date;id;block;order;cond;trial;gameid;leftright;oa1;oa2;oa3;oa4;pa1;pa2;pa3;pa4;ob1;ob2;ob3;ob4;pb1;pb2;pb3;pb4;choice;rt;paytrial;payout;alter;geschlecht;comment
2019_03_21 14:14;51;0;0;practice;1;16;0;50;42;0;0;0.32000000000000001;0.68000000000000005;0.0;0.0;97;2;56;31;0.35999999999999999;0.16;0.16;0.32000000000000001;0;10.045275596233296;4;95;23;1;
2019_03_21 14:14;51;0;0;practice;2;20;0;32;11;0;0;0.40999999999999998;0.58999999999999997;0.0;0.0;1;86;42;65;0.45000000000000001;0.38;0.050000000000000003;0.12;1;10.816443116934352;4;95;23;1;
2019_03_21 14:14;51;0;0;practice;3;50;0;17;12;21;14;0.55000000000000004;0.34000000000000002;0.059999999999999998;0.049999999999999899;13;93;0;0;0.28999999999999998;0.70999999999999996;0.0;0.0;1;10.89987360280793;4;95;23;1;
2019_03_21 14:14;51;0;0;practice;4;32;1;21;86;16;78;0.45000000000000001;0.41999999999999998;0.050000000000000003;0.080000000000000099;95;9;0;0;0.42999999999999999;0.56999999999999995;0.0;0.0;0;14.599833416133151;4;95;23;1;
2019_03_21 14:14;51;0;0;practice;5;75;1;21;86;27;62;0.88;0.040000000000000001;0.070000000000000007;0.0099999999999999794;13;3;49;87;0.28999999999999998;0.39000000000000001;0.070000000000000007;0.25;0;15.133058943555625;4;95;23;1;
2019_03_21 14:14;51;0;0;practice;6;19;0;25;73;0;0;0.69999999999999996;0.29999999999999999;0.0;0.0;87;84;1;86;0.040000000000000001;0.59999999999999998;0.28000000000000003;0.080000000000000002;0;12.28313708787391;4;95;23;1;
2019_03_21 14:14;51;0;0;practice;7;27;1;68;43;98;36;0.54000000000000004;0.44;0.01;0.0099999999999999603;97;13;0;0;0.27000000000000002;0.72999999999999998;0.0;0.0;0;16.416646327441413;4;95;23;1;
2019_03_21 14:14;51;0;0;practice;8;31;0;72;59;40;92;0.59999999999999998;0.34999999999999998;0.02;0.029999999999999999;97;29;0;0;0.38;0.62;0.0;0.0;0;8.699839221230832;4;95;23;1;
2019_03_21 14:14;51;0;0;practice;9;26;1;24;46;74;59;0.29999999999999999;0.11;0.25;0.34000000000000002;91;6;0;0;0.28999999999999998;0.70999999999999996;0.0;0.0;0;4.366745896099928;4;95;23;1;
2019_03_21 14:14;51;0;0;practice;10;59;1;13;27;48;51;0.56999999999999995;0.13;0.13;0.17000000000000001;8;37;97;1;0.65000000000000002;0.16;0.14999999999999999;0.040000000000000001;0;15.249739812934422;4;95;23;1;
2019_03_21 14:14;51;0;0;practice;11;29;1;66;40;92;49;0.46999999999999997;0.10000000000000001;0.34000000000000002;0.089999999999999997;8;94;0;0;0.44;0.56000000000000005;0.0;0.0;0;13.699762247554645;4;95;23;1;
2019_03_21 14:14;51;0;0;practice;12;18;1;47;36;0;0;0.089999999999999997;0.91000000000000003;0.0;0.0;2;44;81;9;0.20000000000000001;0.25;0.51000000000000001;0.040000000000000001;0;6.733182614596444;4;95;23;1;
2019_03_21 14:14;51;0;0;practice;13;47;0;91;99;90;78;0.93000000000000005;0.040000000000000001;0.02;0.0099999999999999499;10;87;0;0;0.23000000000000001;0.77000000000000002;0.0;0.0;0;5.9332099402518;4;95;23;1;
2019_03_21 14:14;51;0;0;practice;14;56;0;47;52;64;10;0.77000000000000002;0.040000000000000001;0.11;0.080000000000000002;1;5;12;99;0.14000000000000001;0.28999999999999998;0.27000000000000002;0.29999999999999999;0;10.666658114035272;4;95;23;1;
2019_03_21 14:14;51;0;0;practice;15;4;0;40;59;0;0;0.19;0.81000000000000005;0.0;0.0;10;88;13;45;0.56000000000000005;0.28999999999999998;0.01;0.14000000000000001;0;7.8831359974128645;4;95;23;1;
2019_03_21 14:14;51;0;0;practice;16;69;0;38;74;27;73;0.22;0.19;0.45000000000000001;0.14000000000000001;1;97;79;84;0.28000000000000003;0.45000000000000001;0.17000000000000001;0.10000000000000001;0;19.16641741093281;4;95;23;1;
2019_03_21 14:14;51;0;0;practice;17;58;0;44;50;85;42;0.38;0.57999999999999996;0.02;0.02;37;88;19;12;0.20000000000000001;0.29999999999999999;0.46000000000000002;0.040000000000000001;0;9.199987876645537;4;95;23;1;
2019_03_21 14:14;51;0;0;practice;18;54;0;69;80;22;55;0.27000000000000002;0.31;0.059999999999999998;0.35999999999999999;52;2;49;90;0.059999999999999998;0.33000000000000002;0.20000000000000001;0.40999999999999998;0;13.549967622946497;4;95;23;1;
2019_03_21 14:14;51;0;0;practice;19;37;0;50;66;99;12;0.26000000000000001;0.71999999999999997;0.01;0.01;22;90;0;0;0.37;0.63;0.0;0.0;1;18.033139092397505;4;95;23;1;
2019_03_21 14:14;51;0;0;practice;20;48;1;20;25;24;35;0.32000000000000001;0.13;0.48999999999999999;0.059999999999999901;44;76;0;0;0.29999999999999999;0.69999999999999996;0.0;0.0;1;9.100101060023917;4;95;23;1;
2019_03_21 14:14;51;0;0;practice;21;5;1;23;58;0;0;0.71999999999999997;0.28000000000000003;0.0;0.0;94;12;52;3;0.11;0.84999999999999998;0.029999999999999999;0.01;0;5.516525767418898;4;95;23;1;
2019_03_21 14:14;51;0;0;practice;22;24;1;19;38;0;0;0.89000000000000001;0.11;0.0;0.0;45;76;95;57;0.29999999999999999;0.22;0.40000000000000002;0.080000000000000002;1;5.7832485393446404;4;95;23;1;
2019_03_21 14:14;51;0;0;practice;23;15;0;24;59;0;0;0.56999999999999995;0.42999999999999999;0.0;0.0;9;8;80;22;0.31;0.10000000000000001;0.55000000000000004;0.039999999999999897;0;11.749800269343723;4;95;23;1;
2019_03_21 14:14;51;0;0;practice;24;21;0;59;69;0;0;0.34000000000000002;0.66000000000000003;0.0;0.0;64;18;5;24;0.14999999999999999;0.040000000000000001;0.51000000000000001;0.29999999999999999;0;2.116607744385874;4;95;23;1;
2019_03_21 14:14;51;0;0;practice;25;11;1;10;44;0;0;0.48999999999999999;0.51000000000000001;0.0;0.0;88;12;54;50;0.17000000000000001;0.75;0.02;0.059999999999999998;1;7.349866210127402;4;95;23;1;
2019_03_21 14:14;51;0;0;practice;26;67;1;74;31;10;77;0.11;0.070000000000000007;0.77000000000000002;0.050000000000000003;2;23;8;97;0.56999999999999995;0.01;0.059999999999999998;0.35999999999999999;0;12.666429117345615;4;95;23;1;
2019_03_21 14:14;51;0;0;practice;27;8;0;20;44;0;0;0.26000000000000001;0.73999999999999999;0.0;0.0;99;3;69;24;0.20999999999999999;0.60999999999999999;0.12;0.060000000000000102;0;7.916447959861216;4;95;23;1;
2019_03_21 14:14;51;0;0;practice;28;53;1;47;24;95;38;0.57999999999999996;0.28000000000000003;0.02;0.12;8;22;93;96;0.54000000000000004;0.34000000000000002;0.10000000000000001;0.0199999999999999;0;16.94973394369117;4;95;23;1;
2019_03_21 14:14;51;0;0;practice;29;44;1;69;48;22;63;0.39000000000000001;0.40999999999999998;0.19;0.01;1;94;0;0;0.22;0.78000000000000003;0.0;0.0;0;9.599843358566432;4;95;23;1;
2019_03_21 14:14;51;0;0;practice;30;6;1;42;59;0;0;0.35999999999999999;0.64000000000000001;0.0;0.0;77;19;6;7;0.44;0.14999999999999999;0.17999999999999999;0.23000000000000001;0;3.2167559507870465;4;95;23;1;
2019_03_21 14:14;51;0;0;practice;31;73;0;99;88;95;28;0.83999999999999997;0.14000000000000001;0.01;0.01;90;93;10;74;0.080000000000000002;0.46000000000000002;0.34999999999999998;0.11;0;5.533357665567564;4;95;23;1;
2019_03_21 14:14;51;0;0;practice;32;28;0;37;83;75;8;0.83999999999999997;0.070000000000000007;0.01;0.080000000000000002;94;2;0;0;0.19;0.81000000000000005;0.0;0.0;0;5.116705565101256;4;95;23;1;
2019_03_21 14:14;51;0;0;practice;33;74;0;36;46;10;12;0.11;0.19;0.65000000000000002;0.049999999999999899;92;24;79;19;0.51000000000000001;0.40999999999999998;0.02;0.059999999999999998;1;7.816515921203063;4;95;23;1;
2019_03_21 14:14;51;0;0;practice;34;3;1;20;70;0;0;0.13;0.87;0.0;0.0;95;19;80;73;0.31;0.57999999999999996;0.029999999999999999;0.080000000000000002;0;8.616595717248856;4;95;23;1;
2019_03_21 14:14;51;0;0;practice;35;14;1;92;56;0;0;0.11;0.89000000000000001;0.0;0.0;97;31;51;4;0.58999999999999997;0.22;0.080000000000000002;0.11;0;4.400233935833967;4;95;23;1;
2019_03_21 14:14;51;0;0;practice;36;38;0;51;89;10;60;0.57999999999999996;0.029999999999999999;0.080000000000000002;0.31;8;84;0;0;0.33000000000000002;0.67000000000000004;0.0;0.0;1;22.749706618036726;4;95;23;1;
2019_03_21 14:14;51;0;0;practice;37;40;0;29;65;30;41;0.70999999999999996;0.01;0.14999999999999999;0.13;2;59;0;0;0.32000000000000001;0.68000000000000005;0.0;0.0;0;2.466535212731287;4;95;23;1;
2019_03_21 14:14;51;0;0;practice;38;2;0;41;60;0;0;0.97999999999999998;0.02;0.0;0.0;10;14;97;6;0.54000000000000004;0.17000000000000001;0.12;0.17000000000000001;0;3.5166088348460107;4;95;23;1;
2019_03_21 14:14;51;0;0;practice;39;25;1;7;18;0;0;0.20999999999999999;0.79000000000000004;0.0;0.0;92;45;33;13;0.41999999999999998;0.17999999999999999;0.22;0.17999999999999999;1;3.400080629927288;4;95;23;1;
2019_03_21 14:14;51;0;0;practice;40;41;0;19;54;51;8;0.76000000000000001;0.070000000000000007;0.16;0.0099999999999999794;2;77;0;0;0.54000000000000004;0.46000000000000002;0.0;0.0;0;7.4333265233008206;4;95;23;1;
2019_03_21 14:14;51;0;0;practice;41;13;1;15;25;0;0;0.29999999999999999;0.69999999999999996;0.0;0.0;3;43;35;73;0.44;0.40000000000000002;0.01;0.14999999999999999;0;20.38341839459281;4;95;23;1;
2019_03_21 14:14;51;0;0;practice;42;57;0;39;68;59;91;0.73999999999999999;0.040000000000000001;0.14999999999999999;0.070000000000000007;9;22;40;84;0.29999999999999999;0.32000000000000001;0.040000000000000001;0.34000000000000002;0;4.433255322649529;4;95;23;1;
2019_03_21 14:14;51;0;0;practice;43;1;0;67;36;0;0;0.14999999999999999;0.84999999999999998;0.0;0.0;1;4;81;77;0.25;0.54000000000000004;0.14000000000000001;0.070000000000000007;0;2.799936753294787;4;95;23;1;
2019_03_21 14:14;51;0;0;practice;44;63;1;24;82;6;96;0.91000000000000003;0.070000000000000007;0.01;0.0099999999999999603;73;10;71;22;0.31;0.51000000000000001;0.050000000000000003;0.13;0;11.11649484965983;4;95;23;1;
2019_03_21 14:14;51;0;0;practice;45;23;0;99;93;0;0;0.57999999999999996;0.41999999999999998;0.0;0.0;64;10;80;81;0.13;0.55000000000000004;0.02;0.29999999999999999;0;5.966966104962012;4;95;23;1;
2019_03_21 14:14;51;0;0;practice;46;70;1;21;42;14;63;0.96999999999999997;0.01;0.01;0.01;70;2;6;76;0.23999999999999999;0.42999999999999999;0.01;0.32000000000000001;0;10.14988571012509;4;95;23;1;
2019_03_21 14:14;51;0;0;practice;47;71;0;94;87;26;75;0.71999999999999997;0.23999999999999999;0.02;0.02;90;27;12;83;0.16;0.73999999999999999;0.02;0.080000000000000002;0;6.616542797845796;4;95;23;1;
2019_03_21 14:14;51;0;0;practice;48;46;0;79;57;98;81;0.67000000000000004;0.070000000000000007;0.20999999999999999;0.050000000000000003;1;76;0;0;0.56000000000000005;0.44;0.0;0.0;0;2.6166364491537024;4;95;23;1;
2019_03_21 14:14;51;0;0;practice;49;62;0;65;52;74;55;0.16;0.12;0.14999999999999999;0.56999999999999995;72;86;2;68;0.12;0.53000000000000003;0.22;0.13;0;3.083263068125234;4;95;23;1;
2019_03_21 14:14;51;0;0;practice;50;61;0;51;48;56;88;0.91000000000000003;0.02;0.01;0.059999999999999998;78;21;14;82;0.55000000000000004;0.29999999999999999;0.070000000000000007;0.080000000000000002;0;5.7998235378445315;4;95;23;1;
2019_03_21 14:14;51;0;0;practice;51;9;0;57;44;0;0;0.14999999999999999;0.84999999999999998;0.0;0.0;38;35;64;95;0.34000000000000002;0.45000000000000001;0.089999999999999997;0.12;0;11.716507229592025;4;95;23;1;
2019_03_21 14:14;51;0;0;practice;52;39;0;53;65;48;75;0.92000000000000004;0.029999999999999999;0.01;0.040000000000000001;16;83;0;0;0.31;0.68999999999999995;0.0;0.0;0;7.733227836632068;4;95;23;1;
2019_03_21 14:14;51;0;0;practice;53;35;1;84;95;4;35;0.89000000000000001;0.050000000000000003;0.01;0.050000000000000003;5;98;0;0;0.19;0.81000000000000005;0.0;0.0;0;2.033264816069277;4;95;23;1;
2019_03_21 14:14;51;0;0;practice;54;66;0;44;18;63;36;0.47999999999999998;0.10000000000000001;0.029999999999999999;0.39000000000000001;13;93;61;53;0.52000000000000002;0.45000000000000001;0.02;0.0099999999999999707;0;11.316500366106084;4;95;23;1;
2019_03_21 14:14;51;0;0;practice;55;64;0;44;60;96;45;0.53000000000000003;0.10000000000000001;0.029999999999999999;0.34000000000000002;88;20;43;31;0.47999999999999998;0.38;0.050000000000000003;0.089999999999999997;1;14.916459185188614;4;95;23;1;
2019_03_21 14:14;51;0;0;practice;56;60;0;39;93;27;78;0.85999999999999999;0.02;0.11;0.01;22;5;62;95;0.059999999999999998;0.56999999999999995;0.14000000000000001;0.23000000000000001;0;7.54985601111548;4;95;23;1;
2019_03_21 14:14;51;0;0;practice;57;52;0;17;61;57;59;0.070000000000000007;0.050000000000000003;0.33000000000000002;0.55000000000000004;12;93;94;62;0.71999999999999997;0.16;0.080000000000000002;0.040000000000000001;0;12.599723407920465;4;95;23;1;
2019_03_21 14:14;51;0;0;practice;58;17;1;27;61;0;0;0.68999999999999995;0.31;0.0;0.0;3;91;69;43;0.29999999999999999;0.33000000000000002;0.27000000000000002;0.099999999999999895;0;15.933082292237486;4;95;23;1;
2019_03_21 14:14;51;0;0;practice;59;10;1;34;59;0;0;0.16;0.83999999999999997;0.0;0.0;21;61;96;7;0.19;0.01;0.5;0.29999999999999999;0;3.5500670472802085;4;95;23;1;
2019_03_21 14:14;51;0;0;practice;60;43;0;11;17;21;44;0.16;0.46000000000000002;0.25;0.13;2;66;0;0;0.44;0.56000000000000005;0.0;0.0;0;2.2665492604264728;4;95;23;1;
2019_03_21 14:14;51;0;0;practice;61;34;0;57;23;66;79;0.56000000000000005;0.23000000000000001;0.13;0.079999999999999905;85;9;0;0;0.56000000000000005;0.44;0.0;0.0;0;2.500048910357691;4;95;23;1;
2019_03_21 14:14;51;0;0;practice;62;72;1;86;85;97;43;0.51000000000000001;0.14999999999999999;0.33000000000000002;0.0099999999999999499;72;29;10;90;0.01;0.11;0.65000000000000002;0.23000000000000001;0;12.266638421603602;4;95;23;1;
2019_03_21 14:14;51;0;0;practice;63;45;0;37;40;75;23;0.54000000000000004;0.38;0.059999999999999998;0.02;1;90;0;0;0.28000000000000003;0.71999999999999997;0.0;0.0;0;4.166575848417779;4;95;23;1;
2019_03_21 14:14;51;0;0;practice;64;33;1;54;82;55;71;0.56000000000000005;0.20999999999999999;0.02;0.20999999999999999;13;99;0;0;0.5;0.5;0.0;0.0;1;14.666527900231813;4;95;23;1;
2019_03_21 14:14;51;0;0;practice;65;51;0;38;13;51;84;0.91000000000000003;0.070000000000000007;0.01;0.0099999999999999603;4;89;35;16;0.80000000000000004;0.089999999999999997;0.059999999999999998;0.050000000000000003;0;5.399887554286579;4;95;23;1;
2019_03_21 14:14;51;0;0;practice;66;12;1;45;86;0;0;0.97999999999999998;0.02;0.0;0.0;6;23;95;81;0.14999999999999999;0.40999999999999998;0.050000000000000003;0.39000000000000001;0;10.283171405305438;4;95;23;1;
2019_03_21 14:14;51;0;0;practice;67;65;0;35;15;77;1;0.62;0.33000000000000002;0.029999999999999999;0.02;68;3;25;96;0.38;0.28000000000000003;0.28000000000000003;0.059999999999999901;0;19.84968836886037;4;95;23;1;
2019_03_21 14:14;51;0;0;practice;68;22;1;84;87;0;0;0.17000000000000001;0.82999999999999996;0.0;0.0;3;24;41;83;0.68000000000000005;0.11;0.10000000000000001;0.11;0;3.766783228334134;4;95;23;1;
2019_03_21 14:14;51;0;0;practice;69;42;1;23;45;91;22;0.72999999999999998;0.02;0.20000000000000001;0.050000000000000003;2;86;0;0;0.40999999999999998;0.58999999999999997;0.0;0.0;0;4.400006222038428;4;95;23;1;
2019_03_21 14:14;51;0;0;practice;70;68;0;39;58;40;8;0.48999999999999999;0.44;0.02;0.050000000000000003;92;83;51;2;0.57999999999999996;0.13;0.02;0.27000000000000002;1;16.766635054005746;4;95;23;1;
2019_03_21 14:14;51;0;0;practice;71;36;1;56;89;86;77;0.66000000000000003;0.080000000000000002;0.14999999999999999;0.11;29;91;0;0;0.40999999999999998;0.58999999999999997;0.0;0.0;0;5.999974662831846;4;95;23;1;
2019_03_21 14:14;51;0;0;practice;72;49;1;14;31;42;22;0.77000000000000002;0.089999999999999997;0.02;0.12;87;28;0;0;0.68000000000000005;0.32000000000000001;0.0;0.0;1;4.999910197376266;4;95;23;1;
2019_03_21 14:14;51;0;0;practice;73;7;1;13;31;0;0;0.51000000000000001;0.48999999999999999;0.0;0.0;8;79;42;18;0.85999999999999999;0.089999999999999997;0.02;0.029999999999999999;0;8.399884667773222;4;95;23;1;
2019_03_21 14:14;51;0;0;practice;74;30;0;54;78;85;25;0.20999999999999999;0.60999999999999999;0.089999999999999997;0.090000000000000094;87;20;0;0;0.58999999999999997;0.40999999999999998;0.0;0.0;0;15.599662791149058;4;95;23;1;
2019_03_21 14:14;51;0;0;practice;75;55;0;53;11;80;74;0.31;0.37;0.28000000000000003;0.039999999999999897;6;93;98;96;0.69999999999999996;0.22;0.050000000000000003;0.029999999999999999;0;16.88295863723215;4;95;23;1;
2019_03_21 14:14;51;1;0;control;1;103;0;38;49;89;50;0.89000000000000001;0.070000000000000007;0.01;0.029999999999999999;6;64;99;27;0.70999999999999996;0.17999999999999999;0.059999999999999998;0.050000000000000003;0;4.7263598602794445;4;95;23;1;
2019_03_21 14:14;51;1;0;control;2;88;1;77;13;12;7;0.12;0.19;0.66000000000000003;0.029999999999999898;94;2;0;0;0.40999999999999998;0.58999999999999997;0.0;0.0;0;3.7498583203250746;4;95;23;1;
2019_03_21 14:14;51;1;0;control;3;46;1;5;19;0;0;0.32000000000000001;0.68000000000000005;0.0;0.0;88;38;97;66;0.60999999999999999;0.20000000000000001;0.040000000000000001;0.14999999999999999;1;2.733365106357269;4;95;23;1;
2019_03_21 14:14;51;1;0;control;4;53;1;26;70;50;80;0.29999999999999999;0.59999999999999998;0.040000000000000001;0.059999999999999998;89;1;0;0;0.40999999999999998;0.58999999999999997;0.0;0.0;0;5.8832851339129775;4;95;23;1;
2019_03_21 14:14;51;1;0;control;5;58;1;37;58;76;34;0.20999999999999999;0.57999999999999996;0.19;0.020000000000000101;86;5;0;0;0.47999999999999998;0.52000000000000002;0.0;0.0;0;2.433400931188771;4;95;23;1;
2019_03_21 14:14;51;1;0;control;6;118;0;62;52;65;68;0.40999999999999998;0.44;0.10000000000000001;0.0500000000000001;79;20;14;37;0.56999999999999995;0.23999999999999999;0.14000000000000001;0.050000000000000003;0;3.7165960700440337;4;95;23;1;
2019_03_21 14:14;51;1;0;control;7;117;1;65;85;92;41;0.23000000000000001;0.17999999999999999;0.54000000000000004;0.050000000000000003;99;93;10;13;0.64000000000000001;0.16;0.01;0.19;0;4.416644403099781;4;95;23;1;
2019_03_21 14:14;51;1;0;control;8;124;1;37;65;15;41;0.17999999999999999;0.45000000000000001;0.02;0.34999999999999998;40;7;98;30;0.070000000000000007;0.45000000000000001;0.45000000000000001;0.029999999999999898;0;12.24980235404746;4;95;23;1;
2019_03_21 14:14;51;1;0;control;9;1;0;22;51;0;0;0.26000000000000001;0.73999999999999999;0.0;0.0;14;11;92;31;0.29999999999999999;0.40999999999999998;0.14999999999999999;0.14000000000000001;0;7.5665666757222425;4;95;23;1;
2019_03_21 14:14;51;1;0;control;10;79;0;52;46;29;22;0.17999999999999999;0.51000000000000001;0.23999999999999999;0.070000000000000104;93;14;0;0;0.45000000000000001;0.55000000000000004;0.0;0.0;0;9.366619851703945;4;95;23;1;
2019_03_21 14:14;51;1;0;control;11;115;1;50;28;61;79;0.83999999999999997;0.040000000000000001;0.059999999999999998;0.059999999999999998;1;26;97;55;0.45000000000000001;0.080000000000000002;0.40999999999999998;0.060000000000000102;0;4.94994016900182;4;95;23;1;
2019_03_21 14:14;51;1;0;control;12;138;0;8;20;43;51;0.38;0.5;0.02;0.10000000000000001;72;82;70;1;0.39000000000000001;0.050000000000000003;0.070000000000000007;0.48999999999999999;0;25.46648261405153;4;95;23;1;
2019_03_21 14:14;51;1;0;control;13;128;0;70;49;27;54;0.27000000000000002;0.53000000000000003;0.02;0.17999999999999999;72;97;6;20;0.29999999999999999;0.39000000000000001;0.22;0.0899999999999999;1;7.53331404715027;4;95;23;1;
2019_03_21 14:14;51;1;0;control;14;62;1;12;45;16;50;0.20999999999999999;0.76000000000000001;0.02;0.01;92;15;0;0;0.20999999999999999;0.79000000000000004;0.0;0.0;0;11.083161078003286;4;95;23;1;
2019_03_21 14:14;51;1;0;control;15;77;1;24;17;99;41;0.17999999999999999;0.13;0.10000000000000001;0.58999999999999997;12;97;0;0;0.59999999999999998;0.40000000000000002;0.0;0.0;0;6.999825526331733;4;95;23;1;
2019_03_21 14:14;51;1;0;control;16;135;0;48;60;41;51;0.14000000000000001;0.40000000000000002;0.089999999999999997;0.37;94;1;85;65;0.64000000000000001;0.29999999999999999;0.01;0.050000000000000003;0;4.666529503850143;4;95;23;1;
2019_03_21 14:14;51;1;0;control;17;85;0;31;22;82;50;0.11;0.69999999999999996;0.01;0.17999999999999999;3;99;0;0;0.62;0.38;0.0;0.0;0;2.5166665651040603;4;95;23;1;
2019_03_21 14:14;51;1;0;control;18;149;1;14;89;73;53;0.93999999999999995;0.01;0.01;0.040000000000000001;97;45;6;13;0.34000000000000002;0.01;0.40999999999999998;0.23999999999999999;0;19.366435435602398;4;95;23;1;
2019_03_21 14:14;51;1;0;control;19;43;0;60;83;0;0;0.23000000000000001;0.77000000000000002;0.0;0.0;72;5;70;12;0.29999999999999999;0.40999999999999998;0.12;0.17000000000000001;0;5.083209827998871;4;95;23;1;
2019_03_21 14:14;51;1;0;control;20;49;0;21;30;0;0;0.53000000000000003;0.46999999999999997;0.0;0.0;93;99;89;25;0.44;0.02;0.11;0.42999999999999999;1;4.483250046745525;4;95;23;1;
2019_03_21 14:14;51;1;0;control;21;70;0;66;55;69;50;0.22;0.29999999999999999;0.29999999999999999;0.17999999999999999;2;90;0;0;0.34000000000000002;0.66000000000000003;0.0;0.0;0;2.033348204219692;4;95;23;1;
2019_03_21 14:14;51;1;0;control;22;139;0;44;31;16;8;0.79000000000000004;0.070000000000000007;0.13;0.0099999999999999499;92;58;2;88;0.55000000000000004;0.070000000000000007;0.34000000000000002;0.039999999999999897;0;9.483183015501709;4;95;23;1;
2019_03_21 14:14;51;1;0;control;23;4;1;40;43;0;0;0.58999999999999997;0.40999999999999998;0.0;0.0;2;33;88;81;0.69999999999999996;0.14000000000000001;0.13;0.029999999999999999;0;4.300034092924761;4;95;23;1;
2019_03_21 14:14;51;1;0;control;24;52;1;71;51;10;54;0.22;0.12;0.19;0.46999999999999997;91;1;0;0;0.29999999999999999;0.69999999999999996;0.0;0.0;0;6.5499942430105875;4;95;23;1;
2019_03_21 14:14;51;1;0;control;25;44;0;79;74;0;0;0.71999999999999997;0.28000000000000003;0.0;0.0;3;67;15;36;0.41999999999999998;0.53000000000000003;0.02;0.029999999999999999;0;2.783422692289605;4;95;23;1;
2019_03_21 14:14;51;1;0;control;26;56;0;28;84;37;41;0.68000000000000005;0.28000000000000003;0.02;0.0199999999999999;6;95;0;0;0.72999999999999998;0.27000000000000002;0.0;0.0;0;9.016511174492734;4;95;23;1;
2019_03_21 14:14;51;1;0;control;27;65;0;75;64;59;52;0.59999999999999998;0.22;0.14000000000000001;0.040000000000000001;1;99;0;0;0.35999999999999999;0.64000000000000001;0.0;0.0;0;5.950111756157639;4;95;23;1;
2019_03_21 14:14;51;1;0;control;28;10;0;45;62;0;0;0.059999999999999998;0.93999999999999995;0.0;0.0;17;99;28;67;0.58999999999999997;0.34000000000000002;0.01;0.059999999999999998;0;5.199851248368759;4;95;23;1;
2019_03_21 14:14;51;1;0;control;29;86;1;56;30;57;88;0.20000000000000001;0.35999999999999999;0.080000000000000002;0.35999999999999999;98;2;0;0;0.77000000000000002;0.23000000000000001;0.0;0.0;0;2.3665983632190546;4;95;23;1;
2019_03_21 14:14;51;1;0;control;30;16;0;64;53;0;0;0.65000000000000002;0.34999999999999998;0.0;0.0;29;17;81;46;0.10000000000000001;0.01;0.44;0.45000000000000001;0;7.466421355833518;4;95;23;1;
2019_03_21 14:14;51;1;0;control;31;25;1;50;53;0;0;0.82999999999999996;0.17000000000000001;0.0;0.0;83;16;97;4;0.45000000000000001;0.29999999999999999;0.11;0.14000000000000001;0;4.849906781669233;4;95;23;1;
2019_03_21 14:14;51;1;0;control;32;146;1;25;5;64;35;0.94999999999999996;0.02;0.01;0.02;47;97;12;79;0.20999999999999999;0.029999999999999999;0.02;0.73999999999999999;1;9.883287378978821;4;95;23;1;
2019_03_21 14:14;51;1;0;control;33;24;1;35;27;0;0;0.070000000000000007;0.93000000000000005;0.0;0.0;62;3;81;95;0.35999999999999999;0.55000000000000004;0.01;0.080000000000000002;0;5.066558497268488;4;95;23;1;
2019_03_21 14:14;51;1;0;control;34;90;1;27;44;50;72;0.68000000000000005;0.28999999999999998;0.02;0.0099999999999999707;6;96;0;0;0.46999999999999997;0.53000000000000003;0.0;0.0;0;4.033236913111978;4;95;23;1;
2019_03_21 14:14;51;1;0;control;35;11;0;17;36;0;0;0.14000000000000001;0.85999999999999999;0.0;0.0;19;41;34;95;0.88;0.02;0.050000000000000003;0.050000000000000003;1;11.249769640234263;4;95;23;1;
2019_03_21 14:14;51;1;0;control;36;127;1;89;26;62;79;0.02;0.28999999999999998;0.53000000000000003;0.16;96;6;60;13;0.53000000000000003;0.25;0.17000000000000001;0.050000000000000003;0;2.1165663710344234;4;95;23;1;
2019_03_21 14:14;51;1;0;control;37;48;0;13;32;0;0;0.90000000000000002;0.10000000000000001;0.0;0.0;24;99;84;94;0.62;0.14999999999999999;0.20000000000000001;0.029999999999999999;1;2.216639848824343;4;95;23;1;
2019_03_21 14:14;51;1;0;control;38;148;0;37;63;55;10;0.72999999999999998;0.070000000000000007;0.029999999999999999;0.17000000000000001;80;14;23;70;0.46999999999999997;0.10000000000000001;0.23000000000000001;0.20000000000000001;0;2.4667186666620182;4;95;23;1;
2019_03_21 14:14;51;1;0;control;39;136;0;29;67;14;75;0.46000000000000002;0.29999999999999999;0.20999999999999999;0.0300000000000001;70;86;1;85;0.31;0.39000000000000001;0.27000000000000002;0.029999999999999898;0;5.799805577319603;4;95;23;1;
2019_03_21 14:14;51;1;0;control;40;145;0;91;89;90;74;0.57999999999999996;0.29999999999999999;0.11;0.010000000000000101;2;75;84;39;0.32000000000000001;0.27000000000000002;0.39000000000000001;0.0199999999999999;0;2.9830766956101797;4;95;23;1;
2019_03_21 14:14;51;1;0;control;41;113;1;85;65;39;64;0.44;0.34000000000000002;0.13;0.089999999999999997;87;2;4;35;0.67000000000000004;0.17000000000000001;0.11;0.049999999999999899;0;8.049981253701844;4;95;23;1;
2019_03_21 14:14;51;1;0;control;42;54;0;44;79;78;52;0.79000000000000004;0.19;0.01;0.0099999999999999603;96;1;0;0;0.28000000000000003;0.71999999999999997;0.0;0.0;0;5.599931236847624;4;95;23;1;
2019_03_21 14:14;51;1;0;control;43;92;1;90;86;65;94;0.16;0.34000000000000002;0.28000000000000003;0.22;79;22;0;0;0.35999999999999999;0.64000000000000001;0.0;0.0;0;3.6833306125281524;4;95;23;1;
2019_03_21 14:14;51;1;0;control;44;59;1;56;47;83;90;0.31;0.12;0.54000000000000004;0.029999999999999898;10;98;0;0;0.46999999999999997;0.53000000000000003;0.0;0.0;0;2.583322241640417;4;95;23;1;
2019_03_21 14:14;51;1;0;control;45;130;1;37;79;23;95;0.94999999999999996;0.029999999999999999;0.01;0.01;94;4;58;49;0.46000000000000002;0.5;0.029999999999999999;0.01;0;5.53338011622418;4;95;23;1;
2019_03_21 14:14;51;1;0;control;46;50;0;15;20;0;0;0.82999999999999996;0.17000000000000001;0.0;0.0;97;18;88;87;0.56999999999999995;0.39000000000000001;0.01;0.029999999999999999;1;8.249858801410483;4;95;23;1;
2019_03_21 14:14;51;1;0;control;47;37;0;14;98;0;0;0.93000000000000005;0.070000000000000007;0.0;0.0;41;2;87;66;0.17999999999999999;0.48999999999999999;0.32000000000000001;0.010000000000000101;1;21.783044879823137;4;95;23;1;
2019_03_21 14:14;51;1;0;control;48;131;1;83;41;81;88;0.23999999999999999;0.58999999999999997;0.10000000000000001;0.070000000000000007;82;97;4;17;0.26000000000000001;0.46999999999999997;0.11;0.16;0;13.183096323897189;4;95;23;1;
2019_03_21 14:14;51;1;0;control;49;104;0;55;85;93;3;0.87;0.02;0.089999999999999997;0.02;1;2;90;8;0.35999999999999999;0.070000000000000007;0.40000000000000002;0.17000000000000001;0;3.7333801803679307;4;95;23;1;
2019_03_21 14:14;51;1;0;control;50;39;1;14;33;0;0;0.78000000000000003;0.22;0.0;0.0;93;84;1;25;0.14000000000000001;0.23999999999999999;0.39000000000000001;0.23000000000000001;0;5.783200751519871;4;95;23;1;
2019_03_21 14:14;51;1;0;control;51;71;0;68;55;36;51;0.20000000000000001;0.75;0.02;0.029999999999999999;38;81;0;0;0.52000000000000002;0.47999999999999998;0.0;0.0;1;23.616403603778963;4;95;23;1;
2019_03_21 14:14;51;1;0;control;52;51;1;52;23;43;16;0.60999999999999999;0.20999999999999999;0.01;0.17000000000000001;92;7;0;0;0.14999999999999999;0.84999999999999998;0.0;0.0;0;9.849800942863112;4;95;23;1;
2019_03_21 14:14;51;1;0;control;53;60;1;64;59;57;96;0.83999999999999997;0.13;0.02;0.01;83;6;0;0;0.54000000000000004;0.46000000000000002;0.0;0.0;0;7.9998482977107415;4;95;23;1;
2019_03_21 14:14;51;1;0;control;54;40;1;45;49;0;0;0.68999999999999995;0.31;0.0;0.0;2;92;65;73;0.23999999999999999;0.59999999999999998;0.11;0.050000000000000003;0;5.399923154612225;4;95;23;1;
2019_03_21 14:14;51;1;0;control;55;23;1;54;40;0;0;0.93000000000000005;0.070000000000000007;0.0;0.0;36;23;71;86;0.02;0.41999999999999998;0.19;0.37;0;4.433284508501856;4;95;23;1;
2019_03_21 14:14;51;1;0;control;56;109;1;75;28;16;56;0.19;0.070000000000000007;0.059999999999999998;0.68000000000000005;3;50;98;44;0.5;0.02;0.34999999999999998;0.13;0;10.466478444644054;4;95;23;1;
2019_03_21 14:14;51;1;0;control;57;144;1;99;93;90;71;0.65000000000000002;0.32000000000000001;0.01;0.02;97;14;48;73;0.23000000000000001;0.46000000000000002;0.13;0.17999999999999999;0;2.216720350461401;4;95;23;1;
2019_03_21 14:14;51;1;0;control;58;42;1;70;48;0;0;0.79000000000000004;0.20999999999999999;0.0;0.0;51;8;12;67;0.19;0.26000000000000001;0.28999999999999998;0.26000000000000001;0;4.433228702586348;4;95;23;1;
2019_03_21 14:14;51;1;0;control;59;108;0;48;72;39;70;0.14000000000000001;0.66000000000000003;0.02;0.17999999999999999;81;44;98;8;0.59999999999999998;0.029999999999999999;0.050000000000000003;0.32000000000000001;0;9.216563837318063;4;95;23;1;
2019_03_21 14:14;51;1;0;control;60;22;1;32;55;0;0;0.39000000000000001;0.60999999999999999;0.0;0.0;93;72;59;22;0.20000000000000001;0.11;0.14000000000000001;0.55000000000000004;1;13.6331514723297;4;95;23;1;
2019_03_21 14:14;51;1;0;control;61;5;0;70;5;0;0;0.98999999999999999;0.01;0.0;0.0;92;87;47;1;0.44;0.02;0.16;0.38;0;6.150004698601151;4;95;23;1;
2019_03_21 14:14;51;1;0;control;62;19;1;22;53;0;0;0.13;0.87;0.0;0.0;4;93;96;65;0.46999999999999997;0.059999999999999998;0.26000000000000001;0.20999999999999999;0;13.51642057006029;4;95;23;1;
2019_03_21 14:14;51;1;0;control;63;26;1;76;41;0;0;0.57999999999999996;0.41999999999999998;0.0;0.0;61;79;84;2;0.13;0.029999999999999999;0.67000000000000004;0.17000000000000001;0;4.666574084438253;4;95;23;1;
2019_03_21 14:14;51;1;0;control;64;81;1;67;38;52;65;0.27000000000000002;0.35999999999999999;0.01;0.35999999999999999;2;77;0;0;0.14000000000000001;0.85999999999999999;0.0;0.0;0;1.7166207657655832;4;95;23;1;
2019_03_21 14:14;51;1;0;control;65;99;1;8;24;15;73;0.56000000000000005;0.35999999999999999;0.070000000000000007;0.0099999999999999499;88;12;0;0;0.52000000000000002;0.47999999999999998;0.0;0.0;1;13.616618167904562;4;95;23;1;
2019_03_21 14:14;51;1;0;control;66;21;1;64;28;0;0;0.080000000000000002;0.92000000000000004;0.0;0.0;50;1;88;13;0.57999999999999996;0.13;0.02;0.27000000000000002;0;7.349880321968158;4;95;23;1;
2019_03_21 14:14;51;1;0;control;67;95;1;93;88;68;85;0.83999999999999997;0.14000000000000001;0.01;0.01;2;82;0;0;0.41999999999999998;0.57999999999999996;0.0;0.0;0;4.29991157648783;4;95;23;1;
2019_03_21 14:14;51;1;0;control;68;57;0;52;35;23;47;0.22;0.68000000000000005;0.040000000000000001;0.059999999999999998;71;7;0;0;0.28999999999999998;0.70999999999999996;0.0;0.0;0;5.183206652834997;4;95;23;1;
2019_03_21 14:14;51;1;0;control;69;31;0;10;59;0;0;0.23999999999999999;0.76000000000000001;0.0;0.0;1;79;53;73;0.23000000000000001;0.58999999999999997;0.050000000000000003;0.13;0;3.5833629735443537;4;95;23;1;
2019_03_21 14:14;51;1;0;control;70;89;1;26;41;13;56;0.059999999999999998;0.40999999999999998;0.050000000000000003;0.47999999999999998;5;97;0;0;0.37;0.63;0.0;0.0;1;8.649761429708633;4;95;23;1;
2019_03_21 14:14;51;1;0;control;71;15;0;77;81;0;0;0.28000000000000003;0.71999999999999997;0.0;0.0;98;14;87;18;0.55000000000000004;0.23000000000000001;0.16;0.059999999999999901;1;4.633168791407115;4;95;23;1;
2019_03_21 14:14;51;1;0;control;72;63;1;56;78;42;36;0.93000000000000005;0.040000000000000001;0.01;0.0199999999999999;2;72;0;0;0.32000000000000001;0.68000000000000005;0.0;0.0;0;2.6331822618012666;4;95;23;1;
2019_03_21 14:14;51;1;0;control;73;141;1;93;28;60;91;0.81999999999999995;0.10000000000000001;0.01;0.070000000000000007;14;85;7;89;0.45000000000000001;0.070000000000000007;0.23999999999999999;0.23999999999999999;0;2.75008378905477;4;95;23;1;
2019_03_21 14:14;51;1;0;control;74;91;0;74;81;86;48;0.93000000000000005;0.02;0.01;0.039999999999999897;7;64;0;0;0.13;0.87;0.0;0.0;0;1.8000589490075072;4;95;23;1;
2019_03_21 14:14;51;1;0;control;75;13;1;52;56;0;0;0.46999999999999997;0.53000000000000003;0.0;0.0;94;71;27;2;0.089999999999999997;0.31;0.57999999999999996;0.020000000000000101;0;2.0665867209499993;4;95;23;1;
2019_03_21 14:14;51;2;0;timed;1;41;1;99;40;0;0;0.89000000000000001;0.11;0.0;0.0;1;67;52;46;0.51000000000000001;0.38;0.029999999999999999;0.080000000000000002;0;1.9277624489695881;4;95;23;1;
2019_03_21 14:14;51;2;0;timed;2;118;1;62;52;65;68;0.40999999999999998;0.44;0.10000000000000001;0.0500000000000001;79;20;14;37;0.56999999999999995;0.23999999999999999;0.14000000000000001;0.050000000000000003;0;1.9667794437955308;4;95;23;1;
2019_03_21 14:14;51;2;0;timed;3;98;1;27;10;31;79;0.23000000000000001;0.67000000000000004;0.070000000000000007;0.029999999999999999;25;99;0;0;0.38;0.62;0.0;0.0;1;1.7668120934613398;4;95;23;1;
2019_03_21 14:14;51;2;0;timed;4;150;0;25;21;78;38;0.84999999999999998;0.059999999999999998;0.050000000000000003;0.040000000000000001;31;43;64;95;0.059999999999999998;0.45000000000000001;0.13;0.35999999999999999;1;2.716572977940814;4;95;23;1;
2019_03_21 14:14;51;2;0;timed;5;23;0;54;40;0;0;0.93000000000000005;0.070000000000000007;0.0;0.0;36;23;71;86;0.02;0.41999999999999998;0.19;0.37;0;4.0832008477373165;4;95;23;1;
2019_03_21 14:14;51;2;0;timed;6;21;1;64;28;0;0;0.080000000000000002;0.92000000000000004;0.0;0.0;50;1;88;13;0.57999999999999996;0.13;0.02;0.27000000000000002;0;3.7665901526925154;4;95;23;1;
2019_03_21 14:14;51;2;0;timed;7;92;0;90;86;65;94;0.16;0.34000000000000002;0.28000000000000003;0.22;79;22;0;0;0.35999999999999999;0.64000000000000001;0.0;0.0;1;1.5000694366717653;4;95;23;1;
2019_03_21 14:14;51;2;0;timed;8;96;1;51;54;39;7;0.17000000000000001;0.26000000000000001;0.10000000000000001;0.46999999999999997;24;96;0;0;0.28000000000000003;0.71999999999999997;0.0;0.0;1;2.416564222185116;4;95;23;1;
2019_03_21 14:14;51;2;0;timed;9;123;1;26;24;51;92;0.72999999999999998;0.16;0.070000000000000007;0.040000000000000001;6;90;82;49;0.64000000000000001;0.25;0.050000000000000003;0.059999999999999998;0;2.24994603824598;4;95;23;1;
2019_03_21 14:14;51;2;0;timed;10;5;1;70;5;0;0;0.98999999999999999;0.01;0.0;0.0;92;87;47;1;0.44;0.02;0.16;0.38;NA;5.116515375973904;4;95;23;1;
2019_03_21 14:14;51;2;0;timed;11;124;1;37;65;15;41;0.17999999999999999;0.45000000000000001;0.02;0.34999999999999998;40;7;98;30;0.070000000000000007;0.45000000000000001;0.45000000000000001;0.029999999999999898;0;1.9001298610073718;4;95;23;1;
2019_03_21 14:14;51;2;0;timed;12;8;1;50;36;0;0;0.080000000000000002;0.92000000000000004;0.0;0.0;6;19;84;29;0.54000000000000004;0.070000000000000007;0.17000000000000001;0.22;1;1.8499096681825904;4;95;23;1;
2019_03_21 14:14;51;2;0;timed;13;144;1;99;93;90;71;0.65000000000000002;0.32000000000000001;0.01;0.02;97;14;48;73;0.23000000000000001;0.46000000000000002;0.13;0.17999999999999999;0;1.3832397515161574;4;95;23;1;
2019_03_21 14:14;51;2;0;timed;14;59;0;56;47;83;90;0.31;0.12;0.54000000000000004;0.029999999999999898;10;98;0;0;0.46999999999999997;0.53000000000000003;0.0;0.0;0;2.6665461814791342;4;95;23;1;
2019_03_21 14:14;51;2;0;timed;15;71;0;68;55;36;51;0.20000000000000001;0.75;0.02;0.029999999999999999;38;81;0;0;0.52000000000000002;0.47999999999999998;0.0;0.0;0;1.799841177644339;4;95;23;1;
2019_03_21 14:14;51;2;0;timed;16;74;0;66;47;52;44;0.41999999999999998;0.26000000000000001;0.17999999999999999;0.14000000000000001;17;99;0;0;0.47999999999999998;0.52000000000000002;0.0;0.0;0;1.6833245187772263;4;95;23;1;
2019_03_21 14:14;51;2;0;timed;17;146;0;25;5;64;35;0.94999999999999996;0.02;0.01;0.02;47;97;12;79;0.20999999999999999;0.029999999999999999;0.02;0.73999999999999999;1;1.9666033665089344;4;95;23;1;
2019_03_21 14:14;51;2;0;timed;18;3;1;53;40;0;0;0.31;0.68999999999999995;0.0;0.0;96;24;7;88;0.11;0.27000000000000002;0.58999999999999997;0.029999999999999999;0;1.6998934235289198;4;95;23;1;
2019_03_21 14:14;51;2;0;timed;19;107;1;52;48;13;63;0.68000000000000005;0.19;0.050000000000000003;0.079999999999999905;54;91;33;3;0.19;0.17999999999999999;0.33000000000000002;0.29999999999999999;1;2.699897592938214;4;95;23;1;
2019_03_21 14:14;51;2;0;timed;20;78;0;74;36;34;3;0.14999999999999999;0.64000000000000001;0.13;0.080000000000000002;1;83;0;0;0.41999999999999998;0.57999999999999996;0.0;0.0;0;1.4500827306655992;4;95;23;1;
2019_03_21 14:14;51;2;0;timed;21;134;0;57;48;50;55;0.02;0.62;0.17999999999999999;0.17999999999999999;80;96;15;18;0.23999999999999999;0.35999999999999999;0.33000000000000002;0.070000000000000007;0;2.149946006173195;4;95;23;1;
2019_03_21 14:14;51;2;0;timed;22;27;1;44;26;0;0;0.35999999999999999;0.64000000000000001;0.0;0.0;63;10;3;5;0.58999999999999997;0.19;0.14999999999999999;0.070000000000000007;0;1.9999172532970988;4;95;23;1;
2019_03_21 14:14;51;2;0;timed;23;44;0;79;74;0;0;0.71999999999999997;0.28000000000000003;0.0;0.0;3;67;15;36;0.41999999999999998;0.53000000000000003;0.02;0.029999999999999999;0;1.6998488429417193;4;95;23;1;
2019_03_21 14:14;51;2;0;timed;24;69;0;54;34;64;49;0.34000000000000002;0.25;0.20999999999999999;0.20000000000000001;14;98;0;0;0.62;0.38;0.0;0.0;0;1.6000563190737012;4;95;23;1;
2019_03_21 14:14;51;2;0;timed;25;148;0;37;63;55;10;0.72999999999999998;0.070000000000000007;0.029999999999999999;0.17000000000000001;80;14;23;70;0.46999999999999997;0.10000000000000001;0.23000000000000001;0.20000000000000001;0;1.849991131990464;4;95;23;1;
2019_03_21 14:14;51;2;0;timed;26;22;0;32;55;0;0;0.39000000000000001;0.60999999999999999;0.0;0.0;93;72;59;22;0.20000000000000001;0.11;0.14000000000000001;0.55000000000000004;1;3.1998679259995697;4;95;23;1;
2019_03_21 14:14;51;2;0;timed;27;101;1;30;96;61;45;0.65000000000000002;0.14000000000000001;0.11;0.10000000000000001;3;98;63;89;0.75;0.19;0.040000000000000001;0.02;0;3.316574453270732;4;95;23;1;
2019_03_21 14:14;51;2;0;timed;28;42;1;70;48;0;0;0.79000000000000004;0.20999999999999999;0.0;0.0;51;8;12;67;0.19;0.26000000000000001;0.28999999999999998;0.26000000000000001;0;1.8332416598223062;4;95;23;1;
2019_03_21 14:14;51;2;0;timed;29;73;0;65;68;70;47;0.25;0.23000000000000001;0.20999999999999999;0.31;27;95;0;0;0.45000000000000001;0.55000000000000004;0.0;0.0;0;1.766612603349131;4;95;23;1;
2019_03_21 14:14;51;2;0;timed;30;106;1;85;69;22;61;0.10000000000000001;0.58999999999999997;0.17999999999999999;0.13;20;79;91;84;0.55000000000000004;0.14999999999999999;0.26000000000000001;0.039999999999999897;1;1.9834224357091443;4;95;23;1;
2019_03_21 14:14;51;2;0;timed;31;129;0;12;29;81;36;0.17999999999999999;0.79000000000000004;0.01;0.02;5;19;95;92;0.47999999999999998;0.26000000000000001;0.13;0.13;0;2.8002298947176314;4;95;23;1;
2019_03_21 14:14;51;2;0;timed;32;38;1;40;70;0;0;0.53000000000000003;0.46999999999999997;0.0;0.0;97;90;6;96;0.56999999999999995;0.070000000000000007;0.27000000000000002;0.089999999999999997;1;2.099940056748892;4;95;23;1;
2019_03_21 14:14;51;2;0;timed;33;47;1;2;40;0;0;0.45000000000000001;0.55000000000000004;0.0;0.0;93;89;11;56;0.58999999999999997;0.070000000000000007;0.28000000000000003;0.059999999999999998;1;2.833255130215548;4;95;23;1;
2019_03_21 14:14;51;2;0;timed;34;34;1;32;48;0;0;0.28000000000000003;0.71999999999999997;0.0;0.0;97;83;7;62;0.040000000000000001;0.54000000000000004;0.35999999999999999;0.059999999999999901;0;2.6499076796972076;4;95;23;1;
2019_03_21 14:14;51;2;0;timed;35;119;0;60;58;11;18;0.25;0.72999999999999998;0.01;0.01;96;23;42;85;0.44;0.48999999999999999;0.059999999999999998;0.010000000000000101;1;2.016575319223193;4;95;23;1;
2019_03_21 14:14;51;2;0;timed;36;19;1;22;53;0;0;0.13;0.87;0.0;0.0;4;93;96;65;0.46999999999999997;0.059999999999999998;0.26000000000000001;0.20999999999999999;1;1.6334856663797837;4;95;23;1;
2019_03_21 14:14;51;2;0;timed;37;117;0;65;85;92;41;0.23000000000000001;0.17999999999999999;0.54000000000000004;0.050000000000000003;99;93;10;13;0.64000000000000001;0.16;0.01;0.19;1;2.78343167255116;4;95;23;1;
2019_03_21 14:14;51;2;0;timed;38;67;1;44;42;8;89;0.88;0.070000000000000007;0.029999999999999999;0.02;10;63;0;0;0.39000000000000001;0.60999999999999999;0.0;0.0;0;2.9333440027403412;4;95;23;1;
2019_03_21 14:14;51;2;0;timed;39;109;1;75;28;16;56;0.19;0.070000000000000007;0.059999999999999998;0.68000000000000005;3;50;98;44;0.5;0.02;0.34999999999999998;0.13;0;3.9498882117695757;4;95;23;1;
2019_03_21 14:14;51;2;0;timed;40;122;0;35;58;25;31;0.81999999999999995;0.070000000000000007;0.080000000000000002;0.029999999999999999;18;64;68;89;0.63;0.17000000000000001;0.11;0.089999999999999997;1;2.583485489980376;4;95;23;1;
2019_03_21 14:14;51;2;0;timed;41;2;1;59;32;0;0;0.080000000000000002;0.92000000000000004;0.0;0.0;33;38;85;1;0.28999999999999998;0.050000000000000003;0.070000000000000007;0.58999999999999997;0;2.2000658124943584;4;95;23;1;
2019_03_21 14:14;51;2;0;timed;42;1;1;22;51;0;0;0.26000000000000001;0.73999999999999999;0.0;0.0;14;11;92;31;0.29999999999999999;0.40999999999999998;0.14999999999999999;0.14000000000000001;1;3.0665828722667356;4;95;23;1;
2019_03_21 14:14;51;2;0;timed;43;25;0;50;53;0;0;0.82999999999999996;0.17000000000000001;0.0;0.0;83;16;97;4;0.45000000000000001;0.29999999999999999;0.11;0.14000000000000001;0;1.6500734938254027;4;95;23;1;
2019_03_21 14:14;51;2;0;timed;44;138;1;8;20;43;51;0.38;0.5;0.02;0.10000000000000001;72;82;70;1;0.39000000000000001;0.050000000000000003;0.070000000000000007;0.48999999999999999;0;3.2500781763901614;4;95;23;1;
2019_03_21 14:14;51;2;0;timed;45;35;1;33;37;0;0;0.88;0.12;0.0;0.0;63;4;79;98;0.16;0.46000000000000002;0.17000000000000001;0.20999999999999999;0;3.333215520844533;4;95;23;1;
2019_03_21 14:14;51;2;0;timed;46;62;0;12;45;16;50;0.20999999999999999;0.76000000000000001;0.02;0.01;92;15;0;0;0.20999999999999999;0.79000000000000004;0.0;0.0;1;1.9667476921513298;4;95;23;1;
2019_03_21 14:14;51;2;0;timed;47;63;1;56;78;42;36;0.93000000000000005;0.040000000000000001;0.01;0.0199999999999999;2;72;0;0;0.32000000000000001;0.68000000000000005;0.0;0.0;0;1.91658073945473;4;95;23;1;
2019_03_21 14:14;51;2;0;timed;48;28;1;47;30;0;0;0.97999999999999998;0.02;0.0;0.0;55;48;77;13;0.070000000000000007;0.26000000000000001;0.42999999999999999;0.23999999999999999;0;1.9165502707073756;4;95;23;1;
2019_03_21 14:14;51;2;0;timed;49;64;1;48;39;34;19;0.46000000000000002;0.5;0.02;0.02;13;92;0;0;0.68999999999999995;0.31;0.0;0.0;0;3.3000754662771214;4;95;23;1;
2019_03_21 14:14;51;2;0;timed;50;9;0;61;69;0;0;0.93999999999999995;0.060000000000000102;0.0;0.0;18;93;72;16;0.40999999999999998;0.34999999999999998;0.089999999999999997;0.14999999999999999;0;2.7834114669603878;4;95;23;1;
2019_03_21 14:14;51;2;0;timed;51;145;1;91;89;90;74;0.57999999999999996;0.29999999999999999;0.11;0.010000000000000101;2;75;84;39;0.32000000000000001;0.27000000000000002;0.39000000000000001;0.0199999999999999;0;2.2832410023384;4;95;23;1;
2019_03_21 14:14;51;2;0;timed;52;51;1;52;23;43;16;0.60999999999999999;0.20999999999999999;0.01;0.17000000000000001;92;7;0;0;0.14999999999999999;0.84999999999999998;0.0;0.0;0;1.783354698874973;4;95;23;1;
2019_03_21 14:14;51;2;0;timed;53;86;0;56;30;57;88;0.20000000000000001;0.35999999999999999;0.080000000000000002;0.35999999999999999;98;2;0;0;0.77000000000000002;0.23000000000000001;0.0;0.0;0;1.6666703015343955;4;95;23;1;
2019_03_21 14:14;51;2;0;timed;54;95;1;93;88;68;85;0.83999999999999997;0.14000000000000001;0.01;0.01;2;82;0;0;0.41999999999999998;0.57999999999999996;0.0;0.0;0;1.3665768747341644;4;95;23;1;
2019_03_21 14:14;51;2;0;timed;55;48;1;13;32;0;0;0.90000000000000002;0.10000000000000001;0.0;0.0;24;99;84;94;0.62;0.14999999999999999;0.20000000000000001;0.029999999999999999;1;1.5665740523654677;4;95;23;1;
2019_03_21 14:14;51;2;0;timed;56;149;0;14;89;73;53;0.93999999999999995;0.01;0.01;0.040000000000000001;97;45;6;13;0.34000000000000002;0.01;0.40999999999999998;0.23999999999999999;0;1.8334369805270399;4;95;23;1;
2019_03_21 14:14;51;2;0;timed;57;75;0;67;80;36;81;0.81999999999999995;0.080000000000000002;0.059999999999999998;0.040000000000000001;3;97;0;0;0.32000000000000001;0.68000000000000005;0.0;0.0;0;1.866577355818663;4;95;23;1;
2019_03_21 14:14;51;2;0;timed;58;87;0;10;30;63;4;0.56999999999999995;0.12;0.16;0.14999999999999999;86;2;0;0;0.42999999999999999;0.56999999999999995;0.0;0.0;0;2.4667286090952985;4;95;23;1;
2019_03_21 14:14;51;2;0;timed;59;13;1;52;56;0;0;0.46999999999999997;0.53000000000000003;0.0;0.0;94;71;27;2;0.089999999999999997;0.31;0.57999999999999996;0.020000000000000101;1;3.3831999817830365;4;95;23;1;
2019_03_21 14:14;51;2;0;timed;60;141;1;93;28;60;91;0.81999999999999995;0.10000000000000001;0.01;0.070000000000000007;14;85;7;89;0.45000000000000001;0.070000000000000007;0.23999999999999999;0.23999999999999999;0;2.716737829900012;4;95;23;1;
2019_03_21 14:14;51;2;0;timed;61;17;1;81;52;0;0;0.059999999999999998;0.93999999999999995;0.0;0.0;34;3;69;41;0.01;0.22;0.75;0.02;0;1.9666194026904122;4;95;23;1;
2019_03_21 14:14;51;2;0;timed;62;140;1;36;32;26;27;0.39000000000000001;0.14999999999999999;0.19;0.27000000000000002;44;3;99;25;0.29999999999999999;0.34000000000000002;0.34000000000000002;0.0199999999999999;0;2.4166104063915554;4;95;23;1;
2019_03_21 14:14;51;2;0;timed;63;15;0;77;81;0;0;0.28000000000000003;0.71999999999999997;0.0;0.0;98;14;87;18;0.55000000000000004;0.23000000000000001;0.16;0.059999999999999901;0;1.8165832731701812;4;95;23;1;
2019_03_21 14:14;51;2;0;timed;64;132;0;27;70;21;19;0.64000000000000001;0.23000000000000001;0.029999999999999999;0.10000000000000001;11;85;55;6;0.39000000000000001;0.46999999999999997;0.029999999999999999;0.11;0;3.0665726091101533;4;95;23;1;
2019_03_21 14:14;51;2;0;timed;65;103;1;38;49;89;50;0.89000000000000001;0.070000000000000007;0.01;0.029999999999999999;6;64;99;27;0.70999999999999996;0.17999999999999999;0.059999999999999998;0.050000000000000003;0;3.0166057879705477;4;95;23;1;
2019_03_21 14:14;51;2;0;timed;66;112;1;70;44;98;64;0.02;0.75;0.12;0.11;33;2;63;85;0.23999999999999999;0.31;0.080000000000000002;0.37;0;2.249942831007502;4;95;23;1;
2019_03_21 14:14;51;2;0;timed;67;4;1;40;43;0;0;0.58999999999999997;0.40999999999999998;0.0;0.0;2;33;88;81;0.69999999999999996;0.14000000000000001;0.13;0.029999999999999999;0;1.9499292643977242;4;95;23;1;
2019_03_21 14:14;51;2;0;timed;68;108;1;48;72;39;70;0.14000000000000001;0.66000000000000003;0.02;0.17999999999999999;81;44;98;8;0.59999999999999998;0.029999999999999999;0.050000000000000003;0.32000000000000001;0;3.383408772881012;4;95;23;1;
2019_03_21 14:14;51;2;0;timed;69;45;1;97;87;0;0;0.71999999999999997;0.28000000000000003;0.0;0.0;96;11;14;4;0.25;0.029999999999999999;0.14000000000000001;0.57999999999999996;0;1.3999379079014034;4;95;23;1;
2019_03_21 14:14;51;2;0;timed;70;20;0;44;40;0;0;0.91000000000000003;0.089999999999999997;0.0;0.0;29;5;80;99;0.25;0.40000000000000002;0.26000000000000001;0.089999999999999997;0;3.783233786056371;4;95;23;1;
2019_03_21 14:14;51;2;0;timed;71;121;1;42;51;47;70;0.41999999999999998;0.17000000000000001;0.23999999999999999;0.17000000000000001;21;76;48;9;0.14999999999999999;0.34000000000000002;0.40999999999999998;0.10000000000000001;0;3.4499252553505357;4;95;23;1;
2019_03_21 14:14;51;2;0;timed;72;136;1;29;67;14;75;0.46000000000000002;0.29999999999999999;0.20999999999999999;0.0300000000000001;70;86;1;85;0.31;0.39000000000000001;0.27000000000000002;0.029999999999999898;0;2.166931851676054;4;95;23;1;
2019_03_21 14:14;51;2;0;timed;73;82;1;78;66;30;27;0.28999999999999998;0.58999999999999997;0.080000000000000002;0.040000000000000001;90;6;0;0;0.82999999999999996;0.17000000000000001;0.0;0.0;0;3.3165417394575343;4;95;23;1;
2019_03_21 14:14;51;2;0;timed;74;105;0;49;74;63;58;0.84999999999999998;0.080000000000000002;0.02;0.050000000000000003;97;5;86;8;0.25;0.52000000000000002;0.070000000000000007;0.16;0;1.9332429747882998;4;95;23;1;
2019_03_21 14:14;51;2;0;timed;75;57;1;52;35;23;47;0.22;0.68000000000000005;0.040000000000000001;0.059999999999999998;71;7;0;0;0.28999999999999998;0.70999999999999996;0.0;0.0;0;1.7999325838882214;4;95;23;1;
2019_03_21 14:14;51;3;0;control;1;96;1;51;54;39;7;0.17000000000000001;0.26000000000000001;0.10000000000000001;0.46999999999999997;24;96;0;0;0.28000000000000003;0.71999999999999997;0.0;0.0;1;4.632070312887663;4;95;23;1;
2019_03_21 14:14;51;3;0;control;2;93;0;87;81;73;98;0.80000000000000004;0.040000000000000001;0.14999999999999999;0.0099999999999999499;5;71;0;0;0.51000000000000001;0.48999999999999999;0.0;0.0;0;1.8001298289345868;4;95;23;1;
2019_03_21 14:14;51;3;0;control;3;7;1;49;29;0;0;0.95999999999999996;0.040000000000000001;0.0;0.0;23;99;64;25;0.68999999999999995;0.12;0.059999999999999998;0.13;0;5.450373947745902;4;95;23;1;
2019_03_21 14:14;51;3;0;control;4;34;1;32;48;0;0;0.28000000000000003;0.71999999999999997;0.0;0.0;97;83;7;62;0.040000000000000001;0.54000000000000004;0.35999999999999999;0.059999999999999901;0;2.716584203270031;4;95;23;1;
2019_03_21 14:14;51;3;0;control;5;35;0;33;37;0;0;0.88;0.12;0.0;0.0;63;4;79;98;0.16;0.46000000000000002;0.17000000000000001;0.20999999999999999;0;2.2332421088340197;4;95;23;1;
2019_03_21 14:14;51;3;0;control;6;133;1;59;88;60;36;0.67000000000000004;0.070000000000000007;0.12;0.14000000000000001;7;91;66;61;0.25;0.68999999999999995;0.01;0.0500000000000001;0;2.20003951315266;4;95;23;1;
2019_03_21 14:14;51;3;0;control;7;72;0;63;82;51;61;0.01;0.96999999999999997;0.01;0.01;92;12;0;0;0.89000000000000001;0.11;0.0;0.0;0;1.9333103267563274;4;95;23;1;
2019_03_21 14:14;51;3;0;control;8;114;0;57;39;79;97;0.77000000000000002;0.02;0.13;0.080000000000000002;92;36;6;1;0.54000000000000004;0.12;0.13;0.20999999999999999;1;2.6833790418004355;4;95;23;1;
2019_03_21 14:14;51;3;0;control;9;36;1;70;17;0;0;0.33000000000000002;0.67000000000000004;0.0;0.0;84;1;12;88;0.22;0.27000000000000002;0.14000000000000001;0.37;1;9.11652467695967;4;95;23;1;
2019_03_21 14:14;51;3;0;control;10;20;1;44;40;0;0;0.91000000000000003;0.089999999999999997;0.0;0.0;29;5;80;99;0.25;0.40000000000000002;0.26000000000000001;0.089999999999999997;0;1.5000957360098255;4;95;23;1;
2019_03_21 14:14;51;3;0;control;11;64;1;48;39;34;19;0.46000000000000002;0.5;0.02;0.02;13;92;0;0;0.68999999999999995;0.31;0.0;0.0;0;3.4665852456219;4;95;23;1;
2019_03_21 14:14;51;3;0;control;12;12;1;53;68;0;0;0.31;0.68999999999999995;0.0;0.0;69;54;97;29;0.25;0.20999999999999999;0.20000000000000001;0.34000000000000002;0;3.0665857587791834;4;95;23;1;
2019_03_21 14:14;51;3;0;control;13;55;0;74;55;47;48;0.60999999999999999;0.31;0.070000000000000007;0.01;97;6;0;0;0.42999999999999999;0.56999999999999995;0.0;0.0;0;1.6166053389588342;4;95;23;1;
2019_03_21 14:14;51;3;0;control;14;94;0;84;86;93;39;0.78000000000000003;0.20000000000000001;0.01;0.0099999999999999603;9;83;0;0;0.46999999999999997;0.53000000000000003;0.0;0.0;0;1.600107634858432;4;95;23;1;
2019_03_21 14:14;51;3;0;control;15;111;1;51;36;48;27;0.93000000000000005;0.01;0.01;0.049999999999999899;31;78;30;53;0.55000000000000004;0.16;0.029999999999999999;0.26000000000000001;1;2.3000937475244427;4;95;23;1;
2019_03_21 14:14;51;3;0;control;16;73;1;65;68;70;47;0.25;0.23000000000000001;0.20999999999999999;0.31;27;95;0;0;0.45000000000000001;0.55000000000000004;0.0;0.0;0;3.2666352143678523;4;95;23;1;
2019_03_21 14:14;51;3;0;control;17;101;1;30;96;61;45;0.65000000000000002;0.14000000000000001;0.11;0.10000000000000001;3;98;63;89;0.75;0.19;0.040000000000000001;0.02;0;3.6832828247042926;4;95;23;1;
2019_03_21 14:14;51;3;0;control;18;47;0;2;40;0;0;0.45000000000000001;0.55000000000000004;0.0;0.0;93;89;11;56;0.58999999999999997;0.070000000000000007;0.28000000000000003;0.059999999999999998;1;5.033211575942914;4;95;23;1;
2019_03_21 14:14;51;3;0;control;19;83;0;17;12;7;41;0.65000000000000002;0.19;0.089999999999999997;0.070000000000000007;6;84;0;0;0.72999999999999998;0.27000000000000002;0.0;0.0;1;6.133363310304048;4;95;23;1;
2019_03_21 14:14;51;3;0;control;20;18;0;68;50;0;0;0.029999999999999999;0.96999999999999997;0.0;0.0;34;64;15;89;0.65000000000000002;0.029999999999999999;0.050000000000000003;0.27000000000000002;0;2.4000463124957605;4;95;23;1;
2019_03_21 14:14;51;3;0;control;21;126;1;16;55;51;42;0.68999999999999995;0.23999999999999999;0.01;0.060000000000000102;66;4;1;5;0.46999999999999997;0.38;0.089999999999999997;0.059999999999999998;0;2.5165645749821124;4;95;23;1;
2019_03_21 14:14;51;3;0;control;22;98;0;27;10;31;79;0.23000000000000001;0.67000000000000004;0.070000000000000007;0.029999999999999999;25;99;0;0;0.38;0.62;0.0;0.0;1;4.449926858969775;4;95;23;1;
2019_03_21 14:14;51;3;0;control;23;119;1;60;58;11;18;0.25;0.72999999999999998;0.01;0.01;96;23;42;85;0.44;0.48999999999999999;0.059999999999999998;0.010000000000000101;1;4.399905514810598;4;95;23;1;
2019_03_21 14:14;51;3;0;control;24;3;1;53;40;0;0;0.31;0.68999999999999995;0.0;0.0;96;24;7;88;0.11;0.27000000000000002;0.58999999999999997;0.029999999999999999;0;1.466661898575694;4;95;23;1;
2019_03_21 14:14;51;3;0;control;25;122;0;35;58;25;31;0.81999999999999995;0.070000000000000007;0.080000000000000002;0.029999999999999999;18;64;68;89;0.63;0.17000000000000001;0.11;0.089999999999999997;0;2.4999571833923255;4;95;23;1;
2019_03_21 14:14;51;3;0;control;26;134;1;57;48;50;55;0.02;0.62;0.17999999999999999;0.17999999999999999;80;96;15;18;0.23999999999999999;0.35999999999999999;0.33000000000000002;0.070000000000000007;0;1.6332791203458328;4;95;23;1;
2019_03_21 14:14;51;3;0;control;27;116;1;53;65;43;99;0.56999999999999995;0.37;0.050000000000000003;0.010000000000000101;57;72;11;87;0.67000000000000004;0.13;0.14999999999999999;0.050000000000000003;0;2.0167744886148284;4;95;23;1;
2019_03_21 14:14;51;3;0;control;28;66;0;89;23;27;15;0.070000000000000007;0.54000000000000004;0.17000000000000001;0.22;9;73;0;0;0.72999999999999998;0.27000000000000002;0.0;0.0;0;2.199895187510265;4;95;23;1;
2019_03_21 14:14;51;3;0;control;29;137;0;71;22;28;17;0.25;0.46000000000000002;0.050000000000000003;0.23999999999999999;3;98;92;69;0.42999999999999999;0.23999999999999999;0.20000000000000001;0.13;0;2.566589447100341;4;95;23;1;
2019_03_21 14:14;51;3;0;control;30;87;1;10;30;63;4;0.56999999999999995;0.12;0.16;0.14999999999999999;86;2;0;0;0.42999999999999999;0.56999999999999995;0.0;0.0;1;2.766571229996771;4;95;23;1;
2019_03_21 14:14;51;3;0;control;31;32;1;19;81;0;0;0.93000000000000005;0.070000000000000007;0.0;0.0;1;65;41;68;0.45000000000000001;0.050000000000000003;0.059999999999999998;0.44;0;3.94994337623757;4;95;23;1;
2019_03_21 14:14;51;3;0;control;32;76;0;39;62;9;28;0.01;0.51000000000000001;0.26000000000000001;0.22;77;7;0;0;0.57999999999999996;0.41999999999999998;0.0;0.0;0;3.866614239041155;4;95;23;1;
2019_03_21 14:14;51;3;0;control;33;142;1;98;65;64;84;0.88;0.070000000000000007;0.01;0.040000000000000001;5;68;60;16;0.46000000000000002;0.080000000000000002;0.27000000000000002;0.19;0;1.4499618178488163;4;95;23;1;
2019_03_21 14:14;51;3;0;control;34;30;0;33;30;0;0;0.71999999999999997;0.28000000000000003;0.0;0.0;9;88;1;14;0.55000000000000004;0.39000000000000001;0.01;0.049999999999999899;0;1.766572833614191;4;95;23;1;
2019_03_21 14:14;51;3;0;control;35;106;0;85;69;22;61;0.10000000000000001;0.58999999999999997;0.17999999999999999;0.13;20;79;91;84;0.55000000000000004;0.14999999999999999;0.26000000000000001;0.039999999999999897;1;3.349930996306284;4;95;23;1;
2019_03_21 14:14;51;3;0;control;36;41;0;99;40;0;0;0.89000000000000001;0.11;0.0;0.0;1;67;52;46;0.51000000000000001;0.38;0.029999999999999999;0.080000000000000002;0;1.7832411626986868;4;95;23;1;
2019_03_21 14:14;51;3;0;control;37;150;1;25;21;78;38;0.84999999999999998;0.059999999999999998;0.050000000000000003;0.040000000000000001;31;43;64;95;0.059999999999999998;0.45000000000000001;0.13;0.35999999999999999;0;1.7334343826660188;4;95;23;1;
2019_03_21 14:14;51;3;0;control;38;110;1;47;44;23;52;0.13;0.27000000000000002;0.040000000000000001;0.56000000000000005;99;2;30;22;0.28999999999999998;0.5;0.11;0.10000000000000001;0;2.4498771468042833;4;95;23;1;
2019_03_21 14:14;51;3;0;control;39;78;0;74;36;34;3;0.14999999999999999;0.64000000000000001;0.13;0.080000000000000002;1;83;0;0;0.41999999999999998;0.57999999999999996;0.0;0.0;0;2.799911095402422;4;95;23;1;
2019_03_21 14:14;51;3;0;control;40;75;1;67;80;36;81;0.81999999999999995;0.080000000000000002;0.059999999999999998;0.040000000000000001;3;97;0;0;0.32000000000000001;0.68000000000000005;0.0;0.0;0;1.516702486154827;4;95;23;1;
2019_03_21 14:14;51;3;0;control;41;2;0;59;32;0;0;0.080000000000000002;0.92000000000000004;0.0;0.0;33;38;85;1;0.28999999999999998;0.050000000000000003;0.070000000000000007;0.58999999999999997;0;2.8001538832104416;4;95;23;1;
2019_03_21 14:14;51;3;0;control;42;38;0;40;70;0;0;0.53000000000000003;0.46999999999999997;0.0;0.0;97;90;6;96;0.56999999999999995;0.070000000000000007;0.27000000000000002;0.089999999999999997;0;1.5167172394412773;4;95;23;1;
2019_03_21 14:14;51;3;0;control;43;67;1;44;42;8;89;0.88;0.070000000000000007;0.029999999999999999;0.02;10;63;0;0;0.39000000000000001;0.60999999999999999;0.0;0.0;0;3.099853461362727;4;95;23;1;
2019_03_21 14:14;51;3;0;control;44;147;0;39;43;76;28;0.14000000000000001;0.10000000000000001;0.10000000000000001;0.66000000000000003;6;31;68;85;0.27000000000000002;0.20000000000000001;0.22;0.31;0;2.8833508822626754;4;95;23;1;
2019_03_21 14:14;51;3;0;control;45;74;1;66;47;52;44;0.41999999999999998;0.26000000000000001;0.17999999999999999;0.14000000000000001;17;99;0;0;0.47999999999999998;0.52000000000000002;0.0;0.0;0;2.366549933947681;4;95;23;1;
2019_03_21 14:14;51;3;0;control;46;9;0;61;69;0;0;0.93999999999999995;0.060000000000000102;0.0;0.0;18;93;72;16;0.40999999999999998;0.34999999999999998;0.089999999999999997;0.14999999999999999;0;2.316636352936257;4;95;23;1;
2019_03_21 14:14;51;3;0;control;47;143;1;88;44;56;73;0.95999999999999996;0.02;0.01;0.01;20;3;87;32;0.19;0.40000000000000002;0.28000000000000003;0.13;0;1.6665635005574586;4;95;23;1;
2019_03_21 14:14;51;3;0;control;48;61;0;43;18;39;70;0.75;0.089999999999999997;0.089999999999999997;0.070000000000000007;16;66;0;0;0.64000000000000001;0.35999999999999999;0.0;0.0;0;2.0332253670603677;4;95;23;1;
2019_03_21 14:14;51;3;0;control;49;140;0;36;32;26;27;0.39000000000000001;0.14999999999999999;0.19;0.27000000000000002;44;3;99;25;0.29999999999999999;0.34000000000000002;0.34000000000000002;0.0199999999999999;0;3.3333373958321317;4;95;23;1;
2019_03_21 14:14;51;3;0;control;50;68;1;84;27;55;62;0.01;0.050000000000000003;0.40999999999999998;0.53000000000000003;9;82;0;0;0.37;0.63;0.0;0.0;0;1.9000686027902702;4;95;23;1;
2019_03_21 14:14;51;3;0;control;51;123;1;26;24;51;92;0.72999999999999998;0.16;0.070000000000000007;0.040000000000000001;6;90;82;49;0.64000000000000001;0.25;0.050000000000000003;0.059999999999999998;0;2.833165006868512;4;95;23;1;
2019_03_21 14:14;51;3;0;control;52;121;0;42;51;47;70;0.41999999999999998;0.17000000000000001;0.23999999999999999;0.17000000000000001;21;76;48;9;0.14999999999999999;0.34000000000000002;0.40999999999999998;0.10000000000000001;0;2.1165673332052393;4;95;23;1;
2019_03_21 14:14;51;3;0;control;53;6;1;9;51;0;0;0.14999999999999999;0.84999999999999998;0.0;0.0;6;40;50;73;0.42999999999999999;0.26000000000000001;0.059999999999999998;0.25;0;9.34999449958923;4;95;23;1;
2019_03_21 14:14;51;3;0;control;54;132;0;27;70;21;19;0.64000000000000001;0.23000000000000001;0.029999999999999999;0.10000000000000001;11;85;55;6;0.39000000000000001;0.46999999999999997;0.029999999999999999;0.11;1;7.716556300310913;4;95;23;1;
2019_03_21 14:14;51;3;0;control;55;100;1;27;14;59;52;0.02;0.95999999999999996;0.01;0.01;17;98;0;0;0.48999999999999999;0.51000000000000001;0.0;0.0;1;5.616600848827147;4;95;23;1;
2019_03_21 14:14;51;3;0;control;56;80;1;47;39;45;10;0.13;0.76000000000000001;0.059999999999999998;0.050000000000000003;2;87;0;0;0.48999999999999999;0.51000000000000001;0.0;0.0;0;2.0332795693575463;4;95;23;1;
2019_03_21 14:14;51;3;0;control;57;97;1;17;33;32;74;0.94999999999999996;0.01;0.029999999999999999;0.01;76;23;0;0;0.33000000000000002;0.67000000000000004;0.0;0.0;1;5.283214382276128;4;95;23;1;
2019_03_21 14:14;51;3;0;control;58;112;0;70;44;98;64;0.02;0.75;0.12;0.11;33;2;63;85;0.23999999999999999;0.31;0.080000000000000002;0.37;0;3.9331983942010993;4;95;23;1;
2019_03_21 14:14;51;3;0;control;59;82;0;78;66;30;27;0.28999999999999998;0.58999999999999997;0.080000000000000002;0.040000000000000001;90;6;0;0;0.82999999999999996;0.17000000000000001;0.0;0.0;0;8.116638854578923;4;95;23;1;
2019_03_21 14:14;51;3;0;control;60;84;1;43;10;5;45;0.78000000000000003;0.13;0.059999999999999998;0.029999999999999999;87;1;0;0;0.57999999999999996;0.41999999999999998;0.0;0.0;0;4.1501839831234975;4;95;23;1;
2019_03_21 14:14;51;3;0;control;61;69;1;54;34;64;49;0.34000000000000002;0.25;0.20999999999999999;0.20000000000000001;14;98;0;0;0.62;0.38;0.0;0.0;0;2.9996500904908316;4;95;23;1;
2019_03_21 14:14;51;3;0;control;62;102;0;40;56;53;17;0.28000000000000003;0.26000000000000001;0.14999999999999999;0.31;1;76;29;62;0.68000000000000005;0.23000000000000001;0.050000000000000003;0.039999999999999897;0;1.9499228499244055;4;95;23;1;
2019_03_21 14:14;51;3;0;control;63;129;1;12;29;81;36;0.17999999999999999;0.79000000000000004;0.01;0.02;5;19;95;92;0.47999999999999998;0.26000000000000001;0.13;0.13;0;4.816519128438813;4;95;23;1;
2019_03_21 14:14;51;3;0;control;64;17;1;81;52;0;0;0.059999999999999998;0.93999999999999995;0.0;0.0;34;3;69;41;0.01;0.22;0.75;0.02;0;2.583451813996362;4;95;23;1;
2019_03_21 14:14;51;3;0;control;65;107;0;52;48;13;63;0.68000000000000005;0.19;0.050000000000000003;0.079999999999999905;54;91;33;3;0.19;0.17999999999999999;0.33000000000000002;0.29999999999999999;1;11.33316709157225;4;95;23;1;
2019_03_21 14:14;51;3;0;control;66;120;0;64;40;48;51;0.19;0.02;0.070000000000000007;0.71999999999999997;97;9;79;94;0.23000000000000001;0.54000000000000004;0.01;0.22;0;1.7666164520323946;4;95;23;1;
2019_03_21 14:14;51;3;0;control;67;29;0;44;51;0;0;0.78000000000000003;0.22;0.0;0.0;74;1;68;82;0.69999999999999996;0.28000000000000003;0.01;0.01;0;2.0667409890284034;4;95;23;1;
2019_03_21 14:14;51;3;0;control;68;8;0;50;36;0;0;0.080000000000000002;0.92000000000000004;0.0;0.0;6;19;84;29;0.54000000000000004;0.070000000000000007;0.17000000000000001;0.22;0;2.3000991998269456;4;95;23;1;
2019_03_21 14:14;51;3;0;control;69;28;1;47;30;0;0;0.97999999999999998;0.02;0.0;0.0;55;48;77;13;0.070000000000000007;0.26000000000000001;0.42999999999999999;0.23999999999999999;0;6.766707858274458;4;95;23;1;
2019_03_21 14:14;51;3;0;control;70;33;1;27;70;0;0;0.88;0.12;0.0;0.0;93;3;77;16;0.080000000000000002;0.40000000000000002;0.5;0.02;0;4.316596583203136;4;95;23;1;
2019_03_21 14:14;51;3;0;control;71;105;0;49;74;63;58;0.84999999999999998;0.080000000000000002;0.02;0.050000000000000003;97;5;86;8;0.25;0.52000000000000002;0.070000000000000007;0.16;0;2.8170399836562865;4;95;23;1;
2019_03_21 14:14;51;3;0;control;72;125;0;37;41;10;35;0.91000000000000003;0.040000000000000001;0.029999999999999999;0.02;7;13;91;93;0.26000000000000001;0.39000000000000001;0.16;0.19;0;13.283108222743977;4;95;23;1;
2019_03_21 14:14;51;3;0;control;73;14;1;36;40;0;0;0.54000000000000004;0.46000000000000002;0.0;0.0;99;70;1;11;0.16;0.089999999999999997;0.080000000000000002;0.67000000000000004;0;5.050078432970622;4;95;23;1;
2019_03_21 14:14;51;3;0;control;74;45;0;97;87;0;0;0.71999999999999997;0.28000000000000003;0.0;0.0;96;11;14;4;0.25;0.029999999999999999;0.14000000000000001;0.57999999999999996;0;3.01661444750971;4;95;23;1;
2019_03_21 14:14;51;3;0;control;75;27;0;44;26;0;0;0.35999999999999999;0.64000000000000001;0.0;0.0;63;10;3;5;0.58999999999999997;0.19;0.14999999999999999;0.070000000000000007;0;10.599759328968503;4;95;23;1;
2019_03_21 14:14;51;4;0;timed;1;39;1;14;33;0;0;0.78000000000000003;0.22;0.0;0.0;93;84;1;25;0.14000000000000001;0.23999999999999999;0.39000000000000001;0.23000000000000001;0;3.574766617413843;4;95;23;1;
2019_03_21 14:14;51;4;0;timed;2;7;0;49;29;0;0;0.95999999999999996;0.040000000000000001;0.0;0.0;23;99;64;25;0.68999999999999995;0.12;0.059999999999999998;0.13;0;4.333267798798261;4;95;23;1;
2019_03_21 14:14;51;4;0;timed;3;100;1;27;14;59;52;0.02;0.95999999999999996;0.01;0.01;17;98;0;0;0.48999999999999999;0.51000000000000001;0.0;0.0;NA;5.116625704909893;4;95;23;1;
2019_03_21 14:14;51;4;0;timed;4;90;1;27;44;50;72;0.68000000000000005;0.28999999999999998;0.02;0.0099999999999999707;6;96;0;0;0.46999999999999997;0.53000000000000003;0.0;0.0;0;1.8333516680359025;4;95;23;1;
2019_03_21 14:14;51;4;0;timed;5;56;1;28;84;37;41;0.68000000000000005;0.28000000000000003;0.02;0.0199999999999999;6;95;0;0;0.72999999999999998;0.27000000000000002;0.0;0.0;0;2.0000930098594836;4;95;23;1;
2019_03_21 14:14;51;4;0;timed;6;49;0;21;30;0;0;0.53000000000000003;0.46999999999999997;0.0;0.0;93;99;89;25;0.44;0.02;0.11;0.42999999999999999;1;2.09992498273823;4;95;23;1;
2019_03_21 14:14;51;4;0;timed;7;29;1;44;51;0;0;0.78000000000000003;0.22;0.0;0.0;74;1;68;82;0.69999999999999996;0.28000000000000003;0.01;0.01;0;3.316413129272405;4;95;23;1;
2019_03_21 14:14;51;4;0;timed;8;77;0;24;17;99;41;0.17999999999999999;0.13;0.10000000000000001;0.58999999999999997;12;97;0;0;0.59999999999999998;0.40000000000000002;0.0;0.0;0;1.6165703800797928;4;95;23;1;
2019_03_21 14:14;51;4;0;timed;9;43;0;60;83;0;0;0.23000000000000001;0.77000000000000002;0.0;0.0;72;5;70;12;0.29999999999999999;0.40999999999999998;0.12;0.17000000000000001;0;1.6000454144705145;4;95;23;1;
2019_03_21 14:14;51;4;0;timed;10;30;1;33;30;0;0;0.71999999999999997;0.28000000000000003;0.0;0.0;9;88;1;14;0.55000000000000004;0.39000000000000001;0.01;0.049999999999999899;0;2.1165779170860333;4;95;23;1;
2019_03_21 14:14;51;4;0;timed;11;104;0;55;85;93;3;0.87;0.02;0.089999999999999997;0.02;1;2;90;8;0.35999999999999999;0.070000000000000007;0.40000000000000002;0.17000000000000001;1;2.3831707959307096;4;95;23;1;
2019_03_21 14:14;51;4;0;timed;12;120;0;64;40;48;51;0.19;0.02;0.070000000000000007;0.71999999999999997;97;9;79;94;0.23000000000000001;0.54000000000000004;0.01;0.22;0;2.0334264607918158;4;95;23;1;
2019_03_21 14:14;51;4;0;timed;13;137;1;71;22;28;17;0.25;0.46000000000000002;0.050000000000000003;0.23999999999999999;3;98;92;69;0.42999999999999999;0.23999999999999999;0.20000000000000001;0.13;0;2.8665549051638664;4;95;23;1;
2019_03_21 14:14;51;4;0;timed;14;65;0;75;64;59;52;0.59999999999999998;0.22;0.14000000000000001;0.040000000000000001;1;99;0;0;0.35999999999999999;0.64000000000000001;0.0;0.0;0;1.4000761397946917;4;95;23;1;
2019_03_21 14:14;51;4;0;timed;15;80;0;47;39;45;10;0.13;0.76000000000000001;0.059999999999999998;0.050000000000000003;2;87;0;0;0.48999999999999999;0.51000000000000001;0.0;0.0;0;1.6500760596136388;4;95;23;1;
2019_03_21 14:14;51;4;0;timed;16;88;1;77;13;12;7;0.12;0.19;0.66000000000000003;0.029999999999999898;94;2;0;0;0.40999999999999998;0.58999999999999997;0.0;0.0;0;2.999902820733041;4;95;23;1;
2019_03_21 14:14;51;4;0;timed;17;33;1;27;70;0;0;0.88;0.12;0.0;0.0;93;3;77;16;0.080000000000000002;0.40000000000000002;0.5;0.02;0;2.099952244248925;4;95;23;1;
2019_03_21 14:14;51;4;0;timed;18;68;0;84;27;55;62;0.01;0.050000000000000003;0.40999999999999998;0.53000000000000003;9;82;0;0;0.37;0.63;0.0;0.0;NA;5.133158688611729;4;95;23;1;
2019_03_21 14:14;51;4;0;timed;19;66;1;89;23;27;15;0.070000000000000007;0.54000000000000004;0.17000000000000001;0.22;9;73;0;0;0.72999999999999998;0.27000000000000002;0.0;0.0;0;1.7167073611526575;4;95;23;1;
2019_03_21 14:14;51;4;0;timed;20;61;1;43;18;39;70;0.75;0.089999999999999997;0.089999999999999997;0.070000000000000007;16;66;0;0;0.64000000000000001;0.35999999999999999;0.0;0.0;0;1.8000743437423807;4;95;23;1;
2019_03_21 14:14;51;4;0;timed;21;89;1;26;41;13;56;0.059999999999999998;0.40999999999999998;0.050000000000000003;0.47999999999999998;5;97;0;0;0.37;0.63;0.0;0.0;0;1.6999473051037057;4;95;23;1;
2019_03_21 14:14;51;4;0;timed;22;18;1;68;50;0;0;0.029999999999999999;0.96999999999999997;0.0;0.0;34;64;15;89;0.65000000000000002;0.029999999999999999;0.050000000000000003;0.27000000000000002;0;1.2165789113278151;4;95;23;1;
2019_03_21 14:14;51;4;0;timed;23;32;1;19;81;0;0;0.93000000000000005;0.070000000000000007;0.0;0.0;1;65;41;68;0.45000000000000001;0.050000000000000003;0.059999999999999998;0.44;0;1.8004399687106343;4;95;23;1;
2019_03_21 14:14;51;4;0;timed;24;94;0;84;86;93;39;0.78000000000000003;0.20000000000000001;0.01;0.0099999999999999603;9;83;0;0;0.46999999999999997;0.53000000000000003;0.0;0.0;0;1.7000669350272801;4;95;23;1;
2019_03_21 14:14;51;4;0;timed;25;58;0;37;58;76;34;0.20999999999999999;0.57999999999999996;0.19;0.020000000000000101;86;5;0;0;0.47999999999999998;0.52000000000000002;0.0;0.0;0;1.7665731543384027;4;95;23;1;
2019_03_21 14:14;51;4;0;timed;26;72;0;63;82;51;61;0.01;0.96999999999999997;0.01;0.01;92;12;0;0;0.89000000000000001;0.11;0.0;0.0;0;2.3333906359603134;4;95;23;1;
2019_03_21 14:14;51;4;0;timed;27;127;0;89;26;62;79;0.02;0.28999999999999998;0.53000000000000003;0.16;96;6;60;13;0.53000000000000003;0.25;0.17000000000000001;0.050000000000000003;0;2.2000542664427485;4;95;23;1;
2019_03_21 14:14;51;4;0;timed;28;142;1;98;65;64;84;0.88;0.070000000000000007;0.01;0.040000000000000001;5;68;60;16;0.46000000000000002;0.080000000000000002;0.27000000000000002;0.19;0;2.299793550184404;4;95;23;1;
2019_03_21 14:14;51;4;0;timed;29;130;1;37;79;23;95;0.94999999999999996;0.029999999999999999;0.01;0.01;94;4;58;49;0.46000000000000002;0.5;0.029999999999999999;0.01;0;1.916486446700219;4;95;23;1;
2019_03_21 14:14;51;4;0;timed;30;46;1;5;19;0;0;0.32000000000000001;0.68000000000000005;0.0;0.0;88;38;97;66;0.60999999999999999;0.20000000000000001;0.040000000000000001;0.14999999999999999;1;1.7666260737423727;4;95;23;1;
2019_03_21 14:14;51;4;0;timed;31;53;0;26;70;50;80;0.29999999999999999;0.59999999999999998;0.040000000000000001;0.059999999999999998;89;1;0;0;0.40999999999999998;0.58999999999999997;0.0;0.0;0;1.9332554830125446;4;95;23;1;
2019_03_21 14:14;51;4;0;timed;32;54;0;44;79;78;52;0.79000000000000004;0.19;0.01;0.0099999999999999603;96;1;0;0;0.28000000000000003;0.71999999999999997;0.0;0.0;0;2.69992164721225;4;95;23;1;
2019_03_21 14:14;51;4;0;timed;33;50;0;15;20;0;0;0.82999999999999996;0.17000000000000001;0.0;0.0;97;18;88;87;0.56999999999999995;0.39000000000000001;0.01;0.029999999999999999;1;1.9165999828728673;4;95;23;1;
2019_03_21 14:14;51;4;0;timed;34;76;0;39;62;9;28;0.01;0.51000000000000001;0.26000000000000001;0.22;77;7;0;0;0.57999999999999996;0.41999999999999998;0.0;0.0;1;4.399949133226983;4;95;23;1;
2019_03_21 14:14;51;4;0;timed;35;111;0;51;36;48;27;0.93000000000000005;0.01;0.01;0.049999999999999899;31;78;30;53;0.55000000000000004;0.16;0.029999999999999999;0.26000000000000001;1;2.5166765075373405;4;95;23;1;
2019_03_21 14:14;51;4;0;timed;36;115;1;50;28;61;79;0.83999999999999997;0.040000000000000001;0.059999999999999998;0.059999999999999998;1;26;97;55;0.45000000000000001;0.080000000000000002;0.40999999999999998;0.060000000000000102;0;1.8165518422520108;4;95;23;1;
2019_03_21 14:14;51;4;0;timed;37;37;1;14;98;0;0;0.93000000000000005;0.070000000000000007;0.0;0.0;41;2;87;66;0.17999999999999999;0.48999999999999999;0.32000000000000001;0.010000000000000101;0;2.483266403653033;4;95;23;1;
2019_03_21 14:14;51;4;0;timed;38;6;0;9;51;0;0;0.14999999999999999;0.84999999999999998;0.0;0.0;6;40;50;73;0.42999999999999999;0.26000000000000001;0.059999999999999998;0.25;1;3.766546534276131;4;95;23;1;
2019_03_21 14:14;51;4;0;timed;39;12;0;53;68;0;0;0.31;0.68999999999999995;0.0;0.0;69;54;97;29;0.25;0.20999999999999999;0.20000000000000001;0.34000000000000002;1;1.7332528530769196;4;95;23;1;
2019_03_21 14:14;51;4;0;timed;40;11;0;17;36;0;0;0.14000000000000001;0.85999999999999999;0.0;0.0;19;41;34;95;0.88;0.02;0.050000000000000003;0.050000000000000003;1;2.233181812787734;4;95;23;1;
2019_03_21 14:14;51;4;0;timed;41;16;0;64;53;0;0;0.65000000000000002;0.34999999999999998;0.0;0.0;29;17;81;46;0.10000000000000001;0.01;0.44;0.45000000000000001;0;1.866615201210152;4;95;23;1;
2019_03_21 14:14;51;4;0;timed;42;84;1;43;10;5;45;0.78000000000000003;0.13;0.059999999999999998;0.029999999999999999;87;1;0;0;0.57999999999999996;0.41999999999999998;0.0;0.0;1;3.133251698473032;4;95;23;1;
2019_03_21 14:14;51;4;0;timed;43;93;1;87;81;73;98;0.80000000000000004;0.040000000000000001;0.14999999999999999;0.0099999999999999499;5;71;0;0;0.51000000000000001;0.48999999999999999;0.0;0.0;0;2.7329590702083806;4;95;23;1;
2019_03_21 14:14;51;4;0;timed;44;143;0;88;44;56;73;0.95999999999999996;0.02;0.01;0.01;20;3;87;32;0.19;0.40000000000000002;0.28000000000000003;0.13;0;1.4998933593851689;4;95;23;1;
2019_03_21 14:14;51;4;0;timed;45;147;0;39;43;76;28;0.14000000000000001;0.10000000000000001;0.10000000000000001;0.66000000000000003;6;31;68;85;0.27000000000000002;0.20000000000000001;0.22;0.31;0;2.1999327121757233;4;95;23;1;
2019_03_21 14:14;51;4;0;timed;46;126;0;16;55;51;42;0.68999999999999995;0.23999999999999999;0.01;0.060000000000000102;66;4;1;5;0.46999999999999997;0.38;0.089999999999999997;0.059999999999999998;0;1.9332792165623687;4;95;23;1;
2019_03_21 14:14;51;4;0;timed;47;79;0;52;46;29;22;0.17999999999999999;0.51000000000000001;0.23999999999999999;0.070000000000000104;93;14;0;0;0.45000000000000001;0.55000000000000004;0.0;0.0;0;3.283291997400738;4;95;23;1;
2019_03_21 14:14;51;4;0;timed;48;131;0;83;41;81;88;0.23999999999999999;0.58999999999999997;0.10000000000000001;0.070000000000000007;82;97;4;17;0.26000000000000001;0.46999999999999997;0.11;0.16;0;2.0665963426599774;4;95;23;1;
2019_03_21 14:14;51;4;0;timed;49;24;1;35;27;0;0;0.070000000000000007;0.93000000000000005;0.0;0.0;62;3;81;95;0.35999999999999999;0.55000000000000004;0.01;0.080000000000000002;0;1.9332064122918382;4;95;23;1;
2019_03_21 14:14;51;4;0;timed;50;91;0;74;81;86;48;0.93000000000000005;0.02;0.01;0.039999999999999897;7;64;0;0;0.13;0.87;0.0;0.0;0;1.6667046189650137;4;95;23;1;
2019_03_21 14:14;51;4;0;timed;51;97;1;17;33;32;74;0.94999999999999996;0.01;0.029999999999999999;0.01;76;23;0;0;0.33000000000000002;0.67000000000000004;0.0;0.0;1;1.6333984295433766;4;95;23;1;
2019_03_21 14:14;51;4;0;timed;52;52;0;71;51;10;54;0.22;0.12;0.19;0.46999999999999997;91;1;0;0;0.29999999999999999;0.69999999999999996;0.0;0.0;0;2.3999167401379964;4;95;23;1;
2019_03_21 14:14;51;4;0;timed;53;116;1;53;65;43;99;0.56999999999999995;0.37;0.050000000000000003;0.010000000000000101;57;72;11;87;0.67000000000000004;0.13;0.14999999999999999;0.050000000000000003;0;1.5499166278859775;4;95;23;1;
2019_03_21 14:14;51;4;0;timed;54;10;0;45;62;0;0;0.059999999999999998;0.93999999999999995;0.0;0.0;17;99;28;67;0.58999999999999997;0.34000000000000002;0.01;0.059999999999999998;0;3.4333816877697245;4;95;23;1;
2019_03_21 14:14;51;4;0;timed;55;135;0;48;60;41;51;0.14000000000000001;0.40000000000000002;0.089999999999999997;0.37;94;1;85;65;0.64000000000000001;0.29999999999999999;0.01;0.050000000000000003;0;1.7666238286765292;4;95;23;1;
2019_03_21 14:14;51;4;0;timed;56;139;0;44;31;16;8;0.79000000000000004;0.070000000000000007;0.13;0.0099999999999999499;92;58;2;88;0.55000000000000004;0.070000000000000007;0.34000000000000002;0.039999999999999897;0;1.7999191134949797;4;95;23;1;
2019_03_21 14:14;51;4;0;timed;57;36;0;70;17;0;0;0.33000000000000002;0.67000000000000004;0.0;0.0;84;1;12;88;0.22;0.27000000000000002;0.14000000000000001;0.37;0;2.566699776038149;4;95;23;1;
2019_03_21 14:14;51;4;0;timed;58;40;1;45;49;0;0;0.68999999999999995;0.31;0.0;0.0;2;92;65;73;0.23999999999999999;0.59999999999999998;0.11;0.050000000000000003;0;2.6998767458990187;4;95;23;1;
2019_03_21 14:14;51;4;0;timed;59;55;0;74;55;47;48;0.60999999999999999;0.31;0.070000000000000007;0.01;97;6;0;0;0.42999999999999999;0.56999999999999995;0.0;0.0;0;1.6332694986358547;4;95;23;1;
2019_03_21 14:14;51;4;0;timed;60;110;0;47;44;23;52;0.13;0.27000000000000002;0.040000000000000001;0.56000000000000005;99;2;30;22;0.28999999999999998;0.5;0.11;0.10000000000000001;0;2.100007087992708;4;95;23;1;
2019_03_21 14:14;51;4;0;timed;61;60;1;64;59;57;96;0.83999999999999997;0.13;0.02;0.01;83;6;0;0;0.54000000000000004;0.46000000000000002;0.0;0.0;0;2.4000902516363567;4;95;23;1;
2019_03_21 14:14;51;4;0;timed;62;102;1;40;56;53;17;0.28000000000000003;0.26000000000000001;0.14999999999999999;0.31;1;76;29;62;0.68000000000000005;0.23000000000000001;0.050000000000000003;0.039999999999999897;0;2.29989682320047;4;95;23;1;
2019_03_21 14:14;51;4;0;timed;63;128;0;70;49;27;54;0.27000000000000002;0.53000000000000003;0.02;0.17999999999999999;72;97;6;20;0.29999999999999999;0.39000000000000001;0.22;0.0899999999999999;0;1.6500552125780814;4;95;23;1;
2019_03_21 14:14;51;4;0;timed;64;113;0;85;65;39;64;0.44;0.34000000000000002;0.13;0.089999999999999997;87;2;4;35;0.67000000000000004;0.17000000000000001;0.11;0.049999999999999899;0;1.6332598769258766;4;95;23;1;
2019_03_21 14:14;51;4;0;timed;65;99;0;8;24;15;73;0.56000000000000005;0.35999999999999999;0.070000000000000007;0.0099999999999999499;88;12;0;0;0.52000000000000002;0.47999999999999998;0.0;0.0;0;3.366720238207563;4;95;23;1;
2019_03_21 14:14;51;4;0;timed;66;14;1;36;40;0;0;0.54000000000000004;0.46000000000000002;0.0;0.0;99;70;1;11;0.16;0.089999999999999997;0.080000000000000002;0.67000000000000004;1;4.216552611989755;4;95;23;1;
2019_03_21 14:14;51;4;0;timed;67;70;1;66;55;69;50;0.22;0.29999999999999999;0.29999999999999999;0.17999999999999999;2;90;0;0;0.34000000000000002;0.66000000000000003;0.0;0.0;0;1.5333486853051;4;95;23;1;
2019_03_21 14:14;51;4;0;timed;68;81;0;67;38;52;65;0.27000000000000002;0.35999999999999999;0.01;0.35999999999999999;2;77;0;0;0.14000000000000001;0.85999999999999999;0.0;0.0;0;1.3332655537342362;4;95;23;1;
2019_03_21 14:14;51;4;0;timed;69;31;0;10;59;0;0;0.23999999999999999;0.76000000000000001;0.0;0.0;1;79;53;73;0.23000000000000001;0.58999999999999997;0.050000000000000003;0.13;1;1.6167698701920017;4;95;23;1;
2019_03_21 14:14;51;4;0;timed;70;83;1;17;12;7;41;0.65000000000000002;0.19;0.089999999999999997;0.070000000000000007;6;84;0;0;0.72999999999999998;0.27000000000000002;0.0;0.0;1;3.7999175098757405;4;95;23;1;
2019_03_21 14:14;51;4;0;timed;71;133;1;59;88;60;36;0.67000000000000004;0.070000000000000007;0.12;0.14000000000000001;7;91;66;61;0.25;0.68999999999999995;0.01;0.0500000000000001;0;3.5000630221984466;4;95;23;1;
2019_03_21 14:14;51;4;0;timed;72;85;0;31;22;82;50;0.11;0.69999999999999996;0.01;0.17999999999999999;3;99;0;0;0.62;0.38;0.0;0.0;0;1.9999162911262829;4;95;23;1;
2019_03_21 14:14;51;4;0;timed;73;26;1;76;41;0;0;0.57999999999999996;0.41999999999999998;0.0;0.0;61;79;84;2;0.13;0.029999999999999999;0.67000000000000004;0.17000000000000001;1;2.7834037695938605;4;95;23;1;
2019_03_21 14:14;51;4;0;timed;74;114;0;57;39;79;97;0.77000000000000002;0.02;0.13;0.080000000000000002;92;36;6;1;0.54000000000000004;0.12;0.13;0.20999999999999999;0;2.116712300296058;4;95;23;1;
2019_03_21 14:14;51;4;0;timed;75;125;1;37;41;10;35;0.91000000000000003;0.040000000000000001;0.029999999999999999;0.02;7;13;91;93;0.26000000000000001;0.39000000000000001;0.16;0.19;0;1.9999512500035053;4;95;23;1;
