date;id;block;order;cond;trial;gameid;leftright;oa1;oa2;oa3;oa4;pa1;pa2;pa3;pa4;ob1;ob2;ob3;ob4;pb1;pb2;pb3;pb4;choice;rt;paytrial;payout;alter;geschlecht;comment
2019_02_28 12:07;16;0;1;practice;1;26;0;24;46;74;59;0.29999999999999999;0.11;0.25;0.34000000000000002;91;6;0;0;0.28999999999999998;0.70999999999999996;0.0;0.0;0;16.79483431143126;63;48;20;1;die zeit fuer die probephase war etwas lang 
2019_02_28 12:07;16;0;1;practice;2;10;0;34;59;0;0;0.16;0.83999999999999997;0.0;0.0;21;61;96;7;0.19;0.01;0.5;0.29999999999999999;1;4.2929535933453735;63;48;20;1;die zeit fuer die probephase war etwas lang 
2019_02_28 12:07;16;0;1;practice;3;40;1;29;65;30;41;0.70999999999999996;0.01;0.14999999999999999;0.13;2;59;0;0;0.32000000000000001;0.68000000000000005;0.0;0.0;0;4.313123845799055;63;48;20;1;die zeit fuer die probephase war etwas lang 
2019_02_28 12:07;16;0;1;practice;4;33;0;54;82;55;71;0.56000000000000005;0.20999999999999999;0.02;0.20999999999999999;13;99;0;0;0.5;0.5;0.0;0.0;0;5.1133745226852625;63;48;20;1;die zeit fuer die probephase war etwas lang 
2019_02_28 12:07;16;0;1;practice;5;36;1;56;89;86;77;0.66000000000000003;0.080000000000000002;0.14999999999999999;0.11;29;91;0;0;0.40999999999999998;0.58999999999999997;0.0;0.0;0;3.352200382430965;63;48;20;1;die zeit fuer die probephase war etwas lang 
2019_02_28 12:07;16;0;1;practice;6;14;1;92;56;0;0;0.11;0.89000000000000001;0.0;0.0;97;31;51;4;0.58999999999999997;0.22;0.080000000000000002;0.11;0;3.432257586535343;63;48;20;1;die zeit fuer die probephase war etwas lang 
2019_02_28 12:07;16;0;1;practice;7;65;0;35;15;77;1;0.62;0.33000000000000002;0.029999999999999999;0.02;68;3;25;96;0.38;0.28000000000000003;0.28000000000000003;0.059999999999999901;0;5.253530034720825;63;48;20;1;die zeit fuer die probephase war etwas lang 
2019_02_28 12:07;16;0;1;practice;8;63;0;24;82;6;96;0.91000000000000003;0.070000000000000007;0.01;0.0099999999999999603;73;10;71;22;0.31;0.51000000000000001;0.050000000000000003;0.13;1;8.495716106503096;63;48;20;1;die zeit fuer die probephase war etwas lang 
2019_02_28 12:07;16;0;1;practice;9;68;0;39;58;40;8;0.48999999999999999;0.44;0.02;0.050000000000000003;92;83;51;2;0.57999999999999996;0.13;0.02;0.27000000000000002;1;5.013435075135931;63;48;20;1;die zeit fuer die probephase war etwas lang 
2019_02_28 12:07;16;0;1;practice;10;71;1;94;87;26;75;0.71999999999999997;0.23999999999999999;0.02;0.02;90;27;12;83;0.16;0.73999999999999999;0.02;0.080000000000000002;0;7.425133051825469;63;48;20;1;die zeit fuer die probephase war etwas lang 
2019_02_28 12:07;16;0;1;practice;11;11;0;10;44;0;0;0.48999999999999999;0.51000000000000001;0.0;0.0;88;12;54;50;0.17000000000000001;0.75;0.02;0.059999999999999998;0;9.396349790471504;63;48;20;1;die zeit fuer die probephase war etwas lang 
2019_02_28 12:07;16;0;1;practice;12;20;0;32;11;0;0;0.40999999999999998;0.58999999999999997;0.0;0.0;1;86;42;65;0.45000000000000001;0.38;0.050000000000000003;0.12;0;3.5523069906648743;63;48;20;1;die zeit fuer die probephase war etwas lang 
2019_02_28 12:07;16;0;1;practice;13;8;0;20;44;0;0;0.26000000000000001;0.73999999999999999;0.0;0.0;99;3;69;24;0.20999999999999999;0.60999999999999999;0.12;0.060000000000000102;0;4.022636930965746;63;48;20;1;die zeit fuer die probephase war etwas lang 
2019_02_28 12:07;16;0;1;practice;14;74;1;36;46;10;12;0.11;0.19;0.65000000000000002;0.049999999999999899;92;24;79;19;0.51000000000000001;0.40999999999999998;0.02;0.059999999999999998;1;5.813975364646467;63;48;20;1;die zeit fuer die probephase war etwas lang 
2019_02_28 12:07;16;0;1;practice;15;56;0;47;52;64;10;0.77000000000000002;0.040000000000000001;0.11;0.080000000000000002;1;5;12;99;0.14000000000000001;0.28999999999999998;0.27000000000000002;0.29999999999999999;0;6.054008424744097;63;48;20;1;die zeit fuer die probephase war etwas lang 
2019_02_28 12:07;16;0;1;practice;16;53;0;47;24;95;38;0.57999999999999996;0.28000000000000003;0.02;0.12;8;22;93;96;0.54000000000000004;0.34000000000000002;0.10000000000000001;0.0199999999999999;0;3.17220020282366;63;48;20;1;die zeit fuer die probephase war etwas lang 
2019_02_28 12:07;16;0;1;practice;17;64;1;44;60;96;45;0.53000000000000003;0.10000000000000001;0.029999999999999999;0.34000000000000002;88;20;43;31;0.47999999999999998;0.38;0.050000000000000003;0.089999999999999997;0;10.737084976770348;63;48;20;1;die zeit fuer die probephase war etwas lang 
2019_02_28 12:07;16;0;1;practice;18;32;0;21;86;16;78;0.45000000000000001;0.41999999999999998;0.050000000000000003;0.080000000000000099;95;9;0;0;0.42999999999999999;0.56999999999999995;0.0;0.0;1;10.436918329240143;63;48;20;1;die zeit fuer die probephase war etwas lang 
2019_02_28 12:07;16;0;1;practice;19;46;1;79;57;98;81;0.67000000000000004;0.070000000000000007;0.20999999999999999;0.050000000000000003;1;76;0;0;0.56000000000000005;0.44;0.0;0.0;0;3.021974959250656;63;48;20;1;die zeit fuer die probephase war etwas lang 
2019_02_28 12:07;16;0;1;practice;20;37;1;50;66;99;12;0.26000000000000001;0.71999999999999997;0.01;0.01;22;90;0;0;0.37;0.63;0.0;0.0;0;6.874549945829131;63;48;20;1;die zeit fuer die probephase war etwas lang 
2019_02_28 12:07;16;0;1;practice;21;16;0;50;42;0;0;0.32000000000000001;0.68000000000000005;0.0;0.0;97;2;56;31;0.35999999999999999;0.16;0.16;0.32000000000000001;0;5.8738623162989825;63;48;20;1;die zeit fuer die probephase war etwas lang 
2019_02_28 12:07;16;0;1;practice;22;35;1;84;95;4;35;0.89000000000000001;0.050000000000000003;0.01;0.050000000000000003;5;98;0;0;0.19;0.81000000000000005;0.0;0.0;1;6.2741011905873165;63;48;20;1;die zeit fuer die probephase war etwas lang 
2019_02_28 12:07;16;0;1;practice;23;23;1;99;93;0;0;0.57999999999999996;0.41999999999999998;0.0;0.0;64;10;80;81;0.13;0.55000000000000004;0.02;0.29999999999999999;0;3.2322273103090993;63;48;20;1;die zeit fuer die probephase war etwas lang 
2019_02_28 12:07;16;0;1;practice;24;55;1;53;11;80;74;0.31;0.37;0.28000000000000003;0.039999999999999897;6;93;98;96;0.69999999999999996;0.22;0.050000000000000003;0.029999999999999999;0;6.614377101936043;63;48;20;1;die zeit fuer die probephase war etwas lang 
2019_02_28 12:07;16;0;1;practice;25;60;1;39;93;27;78;0.85999999999999999;0.02;0.11;0.01;22;5;62;95;0.059999999999999998;0.56999999999999995;0.14000000000000001;0.23000000000000001;0;5.173405478841232;63;48;20;1;die zeit fuer die probephase war etwas lang 
2019_02_28 12:07;16;0;1;practice;26;61;0;51;48;56;88;0.91000000000000003;0.02;0.01;0.059999999999999998;78;21;14;82;0.55000000000000004;0.29999999999999999;0.070000000000000007;0.080000000000000002;0;5.493761942912897;63;48;20;1;die zeit fuer die probephase war etwas lang 
2019_02_28 12:07;16;0;1;practice;27;19;0;25;73;0;0;0.69999999999999996;0.29999999999999999;0.0;0.0;87;84;1;86;0.040000000000000001;0.59999999999999998;0.28000000000000003;0.080000000000000002;1;7.605238428484881;63;48;20;1;die zeit fuer die probephase war etwas lang 
2019_02_28 12:07;16;0;1;practice;28;3;0;20;70;0;0;0.13;0.87;0.0;0.0;95;19;80;73;0.31;0.57999999999999996;0.029999999999999999;0.080000000000000002;1;6.554307659051119;63;48;20;1;die zeit fuer die probephase war etwas lang 
2019_02_28 12:07;16;0;1;practice;29;24;0;19;38;0;0;0.89000000000000001;0.11;0.0;0.0;45;76;95;57;0.29999999999999999;0.22;0.40000000000000002;0.080000000000000002;1;12.838686730225163;63;48;20;1;die zeit fuer die probephase war etwas lang 
2019_02_28 12:07;16;0;1;practice;30;31;1;72;59;40;92;0.59999999999999998;0.34999999999999998;0.02;0.029999999999999999;97;29;0;0;0.38;0.62;0.0;0.0;1;3.5124241570920276;63;48;20;1;die zeit fuer die probephase war etwas lang 
2019_02_28 12:07;16;0;1;practice;31;62;1;65;52;74;55;0.16;0.12;0.14999999999999999;0.56999999999999995;72;86;2;68;0.12;0.53000000000000003;0.22;0.13;0;2.331511521322682;63;48;20;1;die zeit fuer die probephase war etwas lang 
2019_02_28 12:07;16;0;1;practice;32;34;0;57;23;66;79;0.56000000000000005;0.23000000000000001;0.13;0.079999999999999905;85;9;0;0;0.56000000000000005;0.44;0.0;0.0;0;1.5108320894651115;63;48;20;1;die zeit fuer die probephase war etwas lang 
2019_02_28 12:07;16;0;1;practice;33;6;1;42;59;0;0;0.35999999999999999;0.64000000000000001;0.0;0.0;77;19;6;7;0.44;0.14999999999999999;0.17999999999999999;0.23000000000000001;0;2.4315327531676303;63;48;20;1;die zeit fuer die probephase war etwas lang 
2019_02_28 12:07;16;0;1;practice;34;70;0;21;42;14;63;0.96999999999999997;0.01;0.01;0.01;70;2;6;76;0.23999999999999999;0.42999999999999999;0.01;0.32000000000000001;0;6.454378153906873;63;48;20;1;die zeit fuer die probephase war etwas lang 
2019_02_28 12:07;16;0;1;practice;35;39;1;53;65;48;75;0.92000000000000004;0.029999999999999999;0.01;0.040000000000000001;16;83;0;0;0.31;0.68999999999999995;0.0;0.0;0;3.752531624864787;63;48;20;1;die zeit fuer die probephase war etwas lang 
2019_02_28 12:07;16;0;1;practice;36;51;0;38;13;51;84;0.91000000000000003;0.070000000000000007;0.01;0.0099999999999999603;4;89;35;16;0.80000000000000004;0.089999999999999997;0.059999999999999998;0.050000000000000003;0;3.652365747067961;63;48;20;1;die zeit fuer die probephase war etwas lang 
2019_02_28 12:07;16;0;1;practice;37;49;0;14;31;42;22;0.77000000000000002;0.089999999999999997;0.02;0.12;87;28;0;0;0.68000000000000005;0.32000000000000001;0.0;0.0;1;3.9125209512130823;63;48;20;1;die zeit fuer die probephase war etwas lang 
2019_02_28 12:07;16;0;1;practice;38;17;0;27;61;0;0;0.68999999999999995;0.31;0.0;0.0;3;91;69;43;0.29999999999999999;0.33000000000000002;0.27000000000000002;0.099999999999999895;0;5.643712647828579;63;48;20;1;die zeit fuer die probephase war etwas lang 
2019_02_28 12:07;16;0;1;practice;39;12;0;45;86;0;0;0.97999999999999998;0.02;0.0;0.0;6;23;95;81;0.14999999999999999;0.40999999999999998;0.050000000000000003;0.39000000000000001;0;2.7117424288589973;63;48;20;1;die zeit fuer die probephase war etwas lang 
2019_02_28 12:07;16;0;1;practice;40;30;0;54;78;85;25;0.20999999999999999;0.60999999999999999;0.089999999999999997;0.090000000000000094;87;20;0;0;0.58999999999999997;0.40999999999999998;0.0;0.0;1;5.313618079524531;63;48;20;1;die zeit fuer die probephase war etwas lang 
2019_02_28 12:07;16;0;1;practice;41;73;0;99;88;95;28;0.83999999999999997;0.14000000000000001;0.01;0.01;90;93;10;74;0.080000000000000002;0.46000000000000002;0.34999999999999998;0.11;0;7.574993954376623;63;48;20;1;die zeit fuer die probephase war etwas lang 
2019_02_28 12:07;16;0;1;practice;42;42;0;23;45;91;22;0.72999999999999998;0.02;0.20000000000000001;0.050000000000000003;2;86;0;0;0.40999999999999998;0.58999999999999997;0.0;0.0;0;3.9927965674978623;63;48;20;1;die zeit fuer die probephase war etwas lang 
2019_02_28 12:07;16;0;1;practice;43;29;0;66;40;92;49;0.46999999999999997;0.10000000000000001;0.34000000000000002;0.089999999999999997;8;94;0;0;0.44;0.56000000000000005;0.0;0.0;0;5.043336055199688;63;48;20;1;die zeit fuer die probephase war etwas lang 
2019_02_28 12:07;16;0;1;practice;44;50;1;17;12;21;14;0.55000000000000004;0.34000000000000002;0.059999999999999998;0.049999999999999899;13;93;0;0;0.28999999999999998;0.70999999999999996;0.0;0.0;1;5.473606122981437;63;48;20;1;die zeit fuer die probephase war etwas lang 
2019_02_28 12:07;16;0;1;practice;45;25;1;7;18;0;0;0.20999999999999999;0.79000000000000004;0.0;0.0;92;45;33;13;0.41999999999999998;0.17999999999999999;0.22;0.17999999999999999;1;3.5124680961071135;63;48;20;1;die zeit fuer die probephase war etwas lang 
2019_02_28 12:07;16;0;1;practice;46;2;0;41;60;0;0;0.97999999999999998;0.02;0.0;0.0;10;14;97;6;0.54000000000000004;0.17000000000000001;0.12;0.17000000000000001;0;5.924148433045048;63;48;20;1;die zeit fuer die probephase war etwas lang 
2019_02_28 12:07;16;0;1;practice;47;58;0;44;50;85;42;0.38;0.57999999999999996;0.02;0.02;37;88;19;12;0.20000000000000001;0.29999999999999999;0.46000000000000002;0.040000000000000001;0;4.56285876846232;63;48;20;1;die zeit fuer die probephase war etwas lang 
2019_02_28 12:07;16;0;1;practice;48;54;0;69;80;22;55;0.27000000000000002;0.31;0.059999999999999998;0.35999999999999999;52;2;49;90;0.059999999999999998;0.33000000000000002;0.20000000000000001;0.40999999999999998;0;3.452227387282619;63;48;20;1;die zeit fuer die probephase war etwas lang 
2019_02_28 12:07;16;0;1;practice;49;75;1;21;86;27;62;0.88;0.040000000000000001;0.070000000000000007;0.0099999999999999794;13;3;49;87;0.28999999999999998;0.39000000000000001;0.070000000000000007;0.25;0;6.37419747155036;63;48;20;1;die zeit fuer die probephase war etwas lang 
2019_02_28 12:07;16;0;1;practice;50;47;0;91;99;90;78;0.93000000000000005;0.040000000000000001;0.02;0.0099999999999999499;10;87;0;0;0.23000000000000001;0.77000000000000002;0.0;0.0;0;4.633184603513655;63;48;20;1;die zeit fuer die probephase war etwas lang 
2019_02_28 12:07;16;0;1;practice;51;69;0;38;74;27;73;0.22;0.19;0.45000000000000001;0.14000000000000001;1;97;79;84;0.28000000000000003;0.45000000000000001;0.17000000000000001;0.10000000000000001;0;6.294149568402645;63;48;20;1;die zeit fuer die probephase war etwas lang 
2019_02_28 12:07;16;0;1;practice;52;22;1;84;87;0;0;0.17000000000000001;0.82999999999999996;0.0;0.0;3;24;41;83;0.68000000000000005;0.11;0.10000000000000001;0.11;0;4.24295099549272;63;48;20;1;die zeit fuer die probephase war etwas lang 
2019_02_28 12:07;16;0;1;practice;53;13;1;15;25;0;0;0.29999999999999999;0.69999999999999996;0.0;0.0;3;43;35;73;0.44;0.40000000000000002;0.01;0.14999999999999999;1;6.034489880876208;63;48;20;1;die zeit fuer die probephase war etwas lang 
2019_02_28 12:07;16;0;1;practice;54;27;1;68;43;98;36;0.54000000000000004;0.44;0.01;0.0099999999999999603;97;13;0;0;0.27000000000000002;0.72999999999999998;0.0;0.0;1;5.593827755215898;63;48;20;1;die zeit fuer die probephase war etwas lang 
2019_02_28 12:07;16;0;1;practice;55;66;0;44;18;63;36;0.47999999999999998;0.10000000000000001;0.029999999999999999;0.39000000000000001;13;93;61;53;0.52000000000000002;0.45000000000000001;0.02;0.0099999999999999707;1;3.051973118303067;63;48;20;1;die zeit fuer die probephase war etwas lang 
2019_02_28 12:07;16;0;1;practice;56;52;0;17;61;57;59;0.070000000000000007;0.050000000000000003;0.33000000000000002;0.55000000000000004;12;93;94;62;0.71999999999999997;0.16;0.080000000000000002;0.040000000000000001;1;3.0519913994994567;63;48;20;1;die zeit fuer die probephase war etwas lang 
2019_02_28 12:07;16;0;1;practice;57;18;1;47;36;0;0;0.089999999999999997;0.91000000000000003;0.0;0.0;2;44;81;9;0.20000000000000001;0.25;0.51000000000000001;0.040000000000000001;1;2.3216079241592524;63;48;20;1;die zeit fuer die probephase war etwas lang 
2019_02_28 12:07;16;0;1;practice;58;72;1;86;85;97;43;0.51000000000000001;0.14999999999999999;0.33000000000000002;0.0099999999999999499;72;29;10;90;0.01;0.11;0.65000000000000002;0.23000000000000001;0;2.281434836519111;63;48;20;1;die zeit fuer die probephase war etwas lang 
2019_02_28 12:07;16;0;1;practice;59;57;0;39;68;59;91;0.73999999999999999;0.040000000000000001;0.14999999999999999;0.070000000000000007;9;22;40;84;0.29999999999999999;0.32000000000000001;0.040000000000000001;0.34000000000000002;0;2.6517169249873405;63;48;20;1;die zeit fuer die probephase war etwas lang 
2019_02_28 12:07;16;0;1;practice;60;45;0;37;40;75;23;0.54000000000000004;0.38;0.059999999999999998;0.02;1;90;0;0;0.28000000000000003;0.71999999999999997;0.0;0.0;0;3.592462117834657;63;48;20;1;die zeit fuer die probephase war etwas lang 
2019_02_28 12:07;16;0;1;practice;61;43;1;11;17;21;44;0.16;0.46000000000000002;0.25;0.13;2;66;0;0;0.44;0.56000000000000005;0.0;0.0;1;5.443788851549471;63;48;20;1;die zeit fuer die probephase war etwas lang 
2019_02_28 12:07;16;0;1;practice;62;21;0;59;69;0;0;0.34000000000000002;0.66000000000000003;0.0;0.0;64;18;5;24;0.14999999999999999;0.040000000000000001;0.51000000000000001;0.29999999999999999;0;2.911960648603781;63;48;20;1;die zeit fuer die probephase war etwas lang 
2019_02_28 12:07;16;0;1;practice;63;44;0;69;48;22;63;0.39000000000000001;0.40999999999999998;0.19;0.01;1;94;0;0;0.22;0.78000000000000003;0.0;0.0;1;3.472368453967647;63;48;20;1;die zeit fuer die probephase war etwas lang 
2019_02_28 12:07;16;0;1;practice;64;5;0;23;58;0;0;0.71999999999999997;0.28000000000000003;0.0;0.0;94;12;52;3;0.11;0.84999999999999998;0.029999999999999999;0.01;0;2.4716173213364527;63;48;20;1;die zeit fuer die probephase war etwas lang 
2019_02_28 12:07;16;0;1;practice;65;1;0;67;36;0;0;0.14999999999999999;0.84999999999999998;0.0;0.0;1;4;81;77;0.25;0.54000000000000004;0.14000000000000001;0.070000000000000007;0;3.5923719947477366;63;48;20;1;die zeit fuer die probephase war etwas lang 
2019_02_28 12:07;16;0;1;practice;66;48;1;20;25;24;35;0.32000000000000001;0.13;0.48999999999999999;0.059999999999999901;44;76;0;0;0.29999999999999999;0.69999999999999996;0.0;0.0;1;2.8718741560987837;63;48;20;1;die zeit fuer die probephase war etwas lang 
2019_02_28 12:07;16;0;1;practice;67;38;0;51;89;10;60;0.57999999999999996;0.029999999999999999;0.080000000000000002;0.31;8;84;0;0;0.33000000000000002;0.67000000000000004;0.0;0.0;0;6.554451022111607;63;48;20;1;die zeit fuer die probephase war etwas lang 
2019_02_28 12:07;16;0;1;practice;68;15;0;24;59;0;0;0.56999999999999995;0.42999999999999999;0.0;0.0;9;8;80;22;0.31;0.10000000000000001;0.55000000000000004;0.039999999999999897;0;5.343651197355939;63;48;20;1;die zeit fuer die probephase war etwas lang 
2019_02_28 12:07;16;0;1;practice;69;28;1;37;83;75;8;0.83999999999999997;0.070000000000000007;0.01;0.080000000000000002;94;2;0;0;0.19;0.81000000000000005;0.0;0.0;0;5.4735839931126975;63;48;20;1;die zeit fuer die probephase war etwas lang 
2019_02_28 12:07;16;0;1;practice;70;41;1;19;54;51;8;0.76000000000000001;0.070000000000000007;0.16;0.0099999999999999794;2;77;0;0;0.54000000000000004;0.46000000000000002;0.0;0.0;0;3.162050290606203;63;48;20;1;die zeit fuer die probephase war etwas lang 
2019_02_28 12:07;16;0;1;practice;71;7;1;13;31;0;0;0.51000000000000001;0.48999999999999999;0.0;0.0;8;79;42;18;0.85999999999999999;0.089999999999999997;0.02;0.029999999999999999;0;9.31618321991482;63;48;20;1;die zeit fuer die probephase war etwas lang 
2019_02_28 12:07;16;0;1;practice;72;4;1;40;59;0;0;0.19;0.81000000000000005;0.0;0.0;10;88;13;45;0.56000000000000005;0.28999999999999998;0.01;0.14000000000000001;0;2.1113757786351925;63;48;20;1;die zeit fuer die probephase war etwas lang 
2019_02_28 12:07;16;0;1;practice;73;59;1;13;27;48;51;0.56999999999999995;0.13;0.13;0.17000000000000001;8;37;97;1;0.65000000000000002;0.16;0.14999999999999999;0.040000000000000001;0;9.416253843059167;63;48;20;1;die zeit fuer die probephase war etwas lang 
2019_02_28 12:07;16;0;1;practice;74;67;1;74;31;10;77;0.11;0.070000000000000007;0.77000000000000002;0.050000000000000003;2;23;8;97;0.56999999999999995;0.01;0.059999999999999998;0.35999999999999999;0;3.4422586834079993;63;48;20;1;die zeit fuer die probephase war etwas lang 
2019_02_28 12:07;16;0;1;practice;75;9;0;57;44;0;0;0.14999999999999999;0.84999999999999998;0.0;0.0;38;35;64;95;0.34000000000000002;0.45000000000000001;0.089999999999999997;0.12;0;2.3520002514469525;63;48;20;1;die zeit fuer die probephase war etwas lang 
2019_02_28 12:07;16;1;1;timed;1;113;1;85;65;39;64;0.44;0.34000000000000002;0.13;0.089999999999999997;87;2;4;35;0.67000000000000004;0.17000000000000001;0.11;0.049999999999999899;1;2.213427185355613;63;48;20;1;die zeit fuer die probephase war etwas lang 
2019_02_28 12:07;16;1;1;timed;2;7;0;49;29;0;0;0.95999999999999996;0.040000000000000001;0.0;0.0;23;99;64;25;0.68999999999999995;0.12;0.059999999999999998;0.13;0;2.071461514235125;63;48;20;1;die zeit fuer die probephase war etwas lang 
2019_02_28 12:07;16;1;1;timed;3;45;0;97;87;0;0;0.71999999999999997;0.28000000000000003;0.0;0.0;96;11;14;4;0.25;0.029999999999999999;0.14000000000000001;0.57999999999999996;0;1.3508713074388652;63;48;20;1;die zeit fuer die probephase war etwas lang 
2019_02_28 12:07;16;1;1;timed;4;34;1;32;48;0;0;0.28000000000000003;0.71999999999999997;0.0;0.0;97;83;7;62;0.040000000000000001;0.54000000000000004;0.35999999999999999;0.059999999999999901;0;2.5616958278460515;63;48;20;1;die zeit fuer die probephase war etwas lang 
2019_02_28 12:07;16;1;1;timed;5;46;0;5;19;0;0;0.32000000000000001;0.68000000000000005;0.0;0.0;88;38;97;66;0.60999999999999999;0.20000000000000001;0.040000000000000001;0.14999999999999999;1;1.5109568506049982;63;48;20;1;die zeit fuer die probephase war etwas lang 
2019_02_28 12:07;16;1;1;timed;6;144;0;99;93;90;71;0.65000000000000002;0.32000000000000001;0.01;0.02;97;14;48;73;0.23000000000000001;0.46000000000000002;0.13;0.17999999999999999;0;1.4910730035499;63;48;20;1;die zeit fuer die probephase war etwas lang 
2019_02_28 12:07;16;1;1;timed;7;105;1;49;74;63;58;0.84999999999999998;0.080000000000000002;0.02;0.050000000000000003;97;5;86;8;0.25;0.52000000000000002;0.070000000000000007;0.16;0;1.9613705508545536;63;48;20;1;die zeit fuer die probephase war etwas lang 
2019_02_28 12:07;16;1;1;timed;8;112;0;70;44;98;64;0.02;0.75;0.12;0.11;33;2;63;85;0.23999999999999999;0.31;0.080000000000000002;0.37;0;1.5711404707835754;63;48;20;1;die zeit fuer die probephase war etwas lang 
2019_02_28 12:07;16;1;1;timed;9;16;1;64;53;0;0;0.65000000000000002;0.34999999999999998;0.0;0.0;29;17;81;46;0.10000000000000001;0.01;0.44;0.45000000000000001;0;1.9913039239145292;63;48;20;1;die zeit fuer die probephase war etwas lang 
2019_02_28 12:07;16;1;1;timed;10;120;1;64;40;48;51;0.19;0.02;0.070000000000000007;0.71999999999999997;97;9;79;94;0.23000000000000001;0.54000000000000004;0.01;0.22;0;1.7612726021325216;63;48;20;1;die zeit fuer die probephase war etwas lang 
2019_02_28 12:07;16;1;1;timed;11;13;1;52;56;0;0;0.46999999999999997;0.53000000000000003;0.0;0.0;94;71;27;2;0.089999999999999997;0.31;0.57999999999999996;0.020000000000000101;1;2.8720120668731397;63;48;20;1;die zeit fuer die probephase war etwas lang 
2019_02_28 12:07;16;1;1;timed;12;97;0;17;33;32;74;0.94999999999999996;0.01;0.029999999999999999;0.01;76;23;0;0;0.33000000000000002;0.67000000000000004;0.0;0.0;1;1.9113682737242925;63;48;20;1;die zeit fuer die probephase war etwas lang 
2019_02_28 12:07;16;1;1;timed;13;71;0;68;55;36;51;0.20000000000000001;0.75;0.02;0.029999999999999999;38;81;0;0;0.52000000000000002;0.47999999999999998;0.0;0.0;0;1.3304999618339934;63;48;20;1;die zeit fuer die probephase war etwas lang 
2019_02_28 12:07;16;1;1;timed;14;23;1;54;40;0;0;0.93000000000000005;0.070000000000000007;0.0;0.0;36;23;71;86;0.02;0.41999999999999998;0.19;0.37;0;1.7110993797850824;63;48;20;1;die zeit fuer die probephase war etwas lang 
2019_02_28 12:07;16;1;1;timed;15;57;1;52;35;23;47;0.22;0.68000000000000005;0.040000000000000001;0.059999999999999998;71;7;0;0;0.28999999999999998;0.70999999999999996;0.0;0.0;0;1.310933309558095;63;48;20;1;die zeit fuer die probephase war etwas lang 
2019_02_28 12:07;16;1;1;timed;16;132;1;27;70;21;19;0.64000000000000001;0.23000000000000001;0.029999999999999999;0.10000000000000001;11;85;55;6;0.39000000000000001;0.46999999999999997;0.029999999999999999;0.11;0;2.0915134200004104;63;48;20;1;die zeit fuer die probephase war etwas lang 
2019_02_28 12:07;16;1;1;timed;17;12;1;53;68;0;0;0.31;0.68999999999999995;0.0;0.0;69;54;97;29;0.25;0.20999999999999999;0.20000000000000001;0.34000000000000002;0;1.1907341279129469;63;48;20;1;die zeit fuer die probephase war etwas lang 
2019_02_28 12:07;16;1;1;timed;18;15;0;77;81;0;0;0.28000000000000003;0.71999999999999997;0.0;0.0;98;14;87;18;0.55000000000000004;0.23000000000000001;0.16;0.059999999999999901;0;1.0307287654286483;63;48;20;1;die zeit fuer die probephase war etwas lang 
2019_02_28 12:07;16;1;1;timed;19;59;1;56;47;83;90;0.31;0.12;0.54000000000000004;0.029999999999999898;10;98;0;0;0.46999999999999997;0.53000000000000003;0.0;0.0;0;2.351637834761277;63;48;20;1;die zeit fuer die probephase war etwas lang 
2019_02_28 12:07;16;1;1;timed;20;5;0;70;5;0;0;0.98999999999999999;0.01;0.0;0.0;92;87;47;1;0.44;0.02;0.16;0.38;0;1.8711971104166878;63;48;20;1;die zeit fuer die probephase war etwas lang 
2019_02_28 12:07;16;1;1;timed;21;9;0;61;69;0;0;0.93999999999999995;0.060000000000000102;0.0;0.0;18;93;72;16;0.40999999999999998;0.34999999999999998;0.089999999999999997;0.14999999999999999;0;2.791739657814105;63;48;20;1;die zeit fuer die probephase war etwas lang 
2019_02_28 12:07;16;1;1;timed;22;73;0;65;68;70;47;0.25;0.23000000000000001;0.20999999999999999;0.31;27;95;0;0;0.45000000000000001;0.55000000000000004;0.0;0.0;0;1.4010333044898289;63;48;20;1;die zeit fuer die probephase war etwas lang 
2019_02_28 12:07;16;1;1;timed;23;86;0;56;30;57;88;0.20000000000000001;0.35999999999999999;0.080000000000000002;0.35999999999999999;98;2;0;0;0.77000000000000002;0.23000000000000001;0.0;0.0;0;1.461071957994136;63;48;20;1;die zeit fuer die probephase war etwas lang 
2019_02_28 12:07;16;1;1;timed;24;32;1;19;81;0;0;0.93000000000000005;0.070000000000000007;0.0;0.0;1;65;41;68;0.45000000000000001;0.050000000000000003;0.059999999999999998;0.44;0;2.071330659360683;63;48;20;1;die zeit fuer die probephase war etwas lang 
2019_02_28 12:07;16;1;1;timed;25;98;1;27;10;31;79;0.23000000000000001;0.67000000000000004;0.070000000000000007;0.029999999999999999;25;99;0;0;0.38;0.62;0.0;0.0;1;1.8311699516161752;63;48;20;1;die zeit fuer die probephase war etwas lang 
2019_02_28 12:07;16;1;1;timed;26;141;0;93;28;60;91;0.81999999999999995;0.10000000000000001;0.01;0.070000000000000007;14;85;7;89;0.45000000000000001;0.070000000000000007;0.23999999999999999;0.23999999999999999;0;1.481060681380768;63;48;20;1;die zeit fuer die probephase war etwas lang 
2019_02_28 12:07;16;1;1;timed;27;58;0;37;58;76;34;0.20999999999999999;0.57999999999999996;0.19;0.020000000000000101;86;5;0;0;0.47999999999999998;0.52000000000000002;0.0;0.0;0;1.3509918991858285;63;48;20;1;die zeit fuer die probephase war etwas lang 
2019_02_28 12:07;16;1;1;timed;28;63;0;56;78;42;36;0.93000000000000005;0.040000000000000001;0.01;0.0199999999999999;2;72;0;0;0.32000000000000001;0.68000000000000005;0.0;0.0;0;1.2707182072354044;63;48;20;1;die zeit fuer die probephase war etwas lang 
2019_02_28 12:07;16;1;1;timed;29;85;1;31;22;82;50;0.11;0.69999999999999996;0.01;0.17999999999999999;3;99;0;0;0.62;0.38;0.0;0.0;0;1.3910238688258687;63;48;20;1;die zeit fuer die probephase war etwas lang 
2019_02_28 12:07;16;1;1;timed;30;30;1;33;30;0;0;0.71999999999999997;0.28000000000000003;0.0;0.0;9;88;1;14;0.55000000000000004;0.39000000000000001;0.01;0.049999999999999899;0;1.591419768965352;63;48;20;1;die zeit fuer die probephase war etwas lang 
2019_02_28 12:07;16;1;1;timed;31;42;1;70;48;0;0;0.79000000000000004;0.20999999999999999;0.0;0.0;51;8;12;67;0.19;0.26000000000000001;0.28999999999999998;0.26000000000000001;0;1.561125903555876;63;48;20;1;die zeit fuer die probephase war etwas lang 
2019_02_28 12:07;16;1;1;timed;32;134;0;57;48;50;55;0.02;0.62;0.17999999999999999;0.17999999999999999;80;96;15;18;0.23999999999999999;0.35999999999999999;0.33000000000000002;0.070000000000000007;0;2.171461578380331;63;48;20;1;die zeit fuer die probephase war etwas lang 
2019_02_28 12:07;16;1;1;timed;33;76;1;39;62;9;28;0.01;0.51000000000000001;0.26000000000000001;0.22;77;7;0;0;0.57999999999999996;0.41999999999999998;0.0;0.0;0;2.5115626958413486;63;48;20;1;die zeit fuer die probephase war etwas lang 
2019_02_28 12:07;16;1;1;timed;34;72;0;63;82;51;61;0.01;0.96999999999999997;0.01;0.01;92;12;0;0;0.89000000000000001;0.11;0.0;0.0;0;1.8711810742806847;63;48;20;1;die zeit fuer die probephase war etwas lang 
2019_02_28 12:07;16;1;1;timed;35;37;0;14;98;0;0;0.93000000000000005;0.070000000000000007;0.0;0.0;41;2;87;66;0.17999999999999999;0.48999999999999999;0.32000000000000001;0.010000000000000101;1;2.3914940483482496;63;48;20;1;die zeit fuer die probephase war etwas lang 
2019_02_28 12:07;16;1;1;timed;36;114;1;57;39;79;97;0.77000000000000002;0.02;0.13;0.080000000000000002;92;36;6;1;0.54000000000000004;0.12;0.13;0.20999999999999999;0;1.611035171095864;63;48;20;1;die zeit fuer die probephase war etwas lang 
2019_02_28 12:07;16;1;1;timed;37;115;1;50;28;61;79;0.83999999999999997;0.040000000000000001;0.059999999999999998;0.059999999999999998;1;26;97;55;0.45000000000000001;0.080000000000000002;0.40999999999999998;0.060000000000000102;0;1.7711585595443466;63;48;20;1;die zeit fuer die probephase war etwas lang 
2019_02_28 12:07;16;1;1;timed;38;26;1;76;41;0;0;0.57999999999999996;0.41999999999999998;0.0;0.0;61;79;84;2;0.13;0.029999999999999999;0.67000000000000004;0.17000000000000001;0;1.5909922455666674;63;48;20;1;die zeit fuer die probephase war etwas lang 
2019_02_28 12:07;16;1;1;timed;39;38;1;40;70;0;0;0.53000000000000003;0.46999999999999997;0.0;0.0;97;90;6;96;0.56999999999999995;0.070000000000000007;0.27000000000000002;0.089999999999999997;0;1.9511593805946177;63;48;20;1;die zeit fuer die probephase war etwas lang 
2019_02_28 12:07;16;1;1;timed;40;44;0;79;74;0;0;0.71999999999999997;0.28000000000000003;0.0;0.0;3;67;15;36;0.41999999999999998;0.53000000000000003;0.02;0.029999999999999999;0;1.8711435497189086;63;48;20;1;die zeit fuer die probephase war etwas lang 
2019_02_28 12:07;16;1;1;timed;41;131;0;83;41;81;88;0.23999999999999999;0.58999999999999997;0.10000000000000001;0.070000000000000007;82;97;4;17;0.26000000000000001;0.46999999999999997;0.11;0.16;0;1.4909418279512465;63;48;20;1;die zeit fuer die probephase war etwas lang 
2019_02_28 12:07;16;1;1;timed;42;74;0;66;47;52;44;0.41999999999999998;0.26000000000000001;0.17999999999999999;0.14000000000000001;17;99;0;0;0.47999999999999998;0.52000000000000002;0.0;0.0;0;1.5910121303750202;63;48;20;1;die zeit fuer die probephase war etwas lang 
2019_02_28 12:07;16;1;1;timed;43;84;1;43;10;5;45;0.78000000000000003;0.13;0.059999999999999998;0.029999999999999999;87;1;0;0;0.57999999999999996;0.41999999999999998;0.0;0.0;0;1.9114721878868295;63;48;20;1;die zeit fuer die probephase war etwas lang 
2019_02_28 12:07;16;1;1;timed;44;145;0;91;89;90;74;0.57999999999999996;0.29999999999999999;0.11;0.010000000000000101;2;75;84;39;0.32000000000000001;0.27000000000000002;0.39000000000000001;0.0199999999999999;0;1.881439390781452;63;48;20;1;die zeit fuer die probephase war etwas lang 
2019_02_28 12:07;16;1;1;timed;45;129;0;12;29;81;36;0.17999999999999999;0.79000000000000004;0.01;0.02;5;19;95;92;0.47999999999999998;0.26000000000000001;0.13;0.13;0;2.251453355047488;63;48;20;1;die zeit fuer die probephase war etwas lang 
2019_02_28 12:07;16;1;1;timed;46;139;1;44;31;16;8;0.79000000000000004;0.070000000000000007;0.13;0.0099999999999999499;92;58;2;88;0.55000000000000004;0.070000000000000007;0.34000000000000002;0.039999999999999897;1;1.651265988830346;63;48;20;1;die zeit fuer die probephase war etwas lang 
2019_02_28 12:07;16;1;1;timed;47;121;1;42;51;47;70;0.41999999999999998;0.17000000000000001;0.23999999999999999;0.17000000000000001;21;76;48;9;0.14999999999999999;0.34000000000000002;0.40999999999999998;0.10000000000000001;0;1.6411529597262415;63;48;20;1;die zeit fuer die probephase war etwas lang 
2019_02_28 12:07;16;1;1;timed;48;33;1;27;70;0;0;0.88;0.12;0.0;0.0;93;3;77;16;0.080000000000000002;0.40000000000000002;0.5;0.02;0;1.3910562618220865;63;48;20;1;die zeit fuer die probephase war etwas lang 
2019_02_28 12:07;16;1;1;timed;49;79;0;52;46;29;22;0.17999999999999999;0.51000000000000001;0.23999999999999999;0.070000000000000104;93;14;0;0;0.45000000000000001;0.55000000000000004;0.0;0.0;0;1.991418742651149;63;48;20;1;die zeit fuer die probephase war etwas lang 
2019_02_28 12:07;16;1;1;timed;50;77;0;24;17;99;41;0.17999999999999999;0.13;0.10000000000000001;0.58999999999999997;12;97;0;0;0.59999999999999998;0.40000000000000002;0.0;0.0;1;2.15149883353115;63;48;20;1;die zeit fuer die probephase war etwas lang 
2019_02_28 12:07;16;1;1;timed;51;60;1;64;59;57;96;0.83999999999999997;0.13;0.02;0.01;83;6;0;0;0.54000000000000004;0.46000000000000002;0.0;0.0;0;1.9113147130283323;63;48;20;1;die zeit fuer die probephase war etwas lang 
2019_02_28 12:07;16;1;1;timed;52;20;1;44;40;0;0;0.91000000000000003;0.089999999999999997;0.0;0.0;29;5;80;99;0.25;0.40000000000000002;0.26000000000000001;0.089999999999999997;0;1.4310997774828138;63;48;20;1;die zeit fuer die probephase war etwas lang 
2019_02_28 12:07;16;1;1;timed;53;147;1;39;43;76;28;0.14000000000000001;0.10000000000000001;0.10000000000000001;0.66000000000000003;6;31;68;85;0.27000000000000002;0.20000000000000001;0.22;0.31;0;1.6910702453333215;63;48;20;1;die zeit fuer die probephase war etwas lang 
2019_02_28 12:07;16;1;1;timed;54;8;1;50;36;0;0;0.080000000000000002;0.92000000000000004;0.0;0.0;6;19;84;29;0.54000000000000004;0.070000000000000007;0.17000000000000001;0.22;0;1.9513700954285014;63;48;20;1;die zeit fuer die probephase war etwas lang 
2019_02_28 12:07;16;1;1;timed;55;126;1;16;55;51;42;0.68999999999999995;0.23999999999999999;0.01;0.060000000000000102;66;4;1;5;0.46999999999999997;0.38;0.089999999999999997;0.059999999999999998;0;1.7716335499062552;63;48;20;1;die zeit fuer die probephase war etwas lang 
2019_02_28 12:07;16;1;1;timed;56;90;0;27;44;50;72;0.68000000000000005;0.28999999999999998;0.02;0.0099999999999999707;6;96;0;0;0.46999999999999997;0.53000000000000003;0.0;0.0;0;1.7111090014677757;63;48;20;1;die zeit fuer die probephase war etwas lang 
2019_02_28 12:07;16;1;1;timed;57;14;0;36;40;0;0;0.54000000000000004;0.46000000000000002;0.0;0.0;99;70;1;11;0.16;0.089999999999999997;0.080000000000000002;0.67000000000000004;0;2.2314283899904694;63;48;20;1;die zeit fuer die probephase war etwas lang 
2019_02_28 12:07;16;1;1;timed;58;51;1;52;23;43;16;0.60999999999999999;0.20999999999999999;0.01;0.17000000000000001;92;7;0;0;0.14999999999999999;0.84999999999999998;0.0;0.0;0;2.271439512656798;63;48;20;1;die zeit fuer die probephase war etwas lang 
2019_02_28 12:07;16;1;1;timed;59;137;0;71;22;28;17;0.25;0.46000000000000002;0.050000000000000003;0.23999999999999999;3;98;92;69;0.42999999999999999;0.23999999999999999;0.20000000000000001;0.13;0;1.6910583785920608;63;48;20;1;die zeit fuer die probephase war etwas lang 
2019_02_28 12:07;16;1;1;timed;60;75;0;67;80;36;81;0.81999999999999995;0.080000000000000002;0.059999999999999998;0.040000000000000001;3;97;0;0;0.32000000000000001;0.68000000000000005;0.0;0.0;0;1.581201542805502;63;48;20;1;die zeit fuer die probephase war etwas lang 
2019_02_28 12:07;16;1;1;timed;61;1;0;22;51;0;0;0.26000000000000001;0.73999999999999999;0.0;0.0;14;11;92;31;0.29999999999999999;0.40999999999999998;0.14999999999999999;0.14000000000000001;0;2.1515976161335857;63;48;20;1;die zeit fuer die probephase war etwas lang 
2019_02_28 12:07;16;1;1;timed;62;35;0;33;37;0;0;0.88;0.12;0.0;0.0;63;4;79;98;0.16;0.46000000000000002;0.17000000000000001;0.20999999999999999;1;1.9112104781397647;63;48;20;1;die zeit fuer die probephase war etwas lang 
2019_02_28 12:07;16;1;1;timed;63;28;1;47;30;0;0;0.97999999999999998;0.02;0.0;0.0;55;48;77;13;0.070000000000000007;0.26000000000000001;0.42999999999999999;0.23999999999999999;1;1.4108868689054361;63;48;20;1;die zeit fuer die probephase war etwas lang 
2019_02_28 12:07;16;1;1;timed;64;47;0;2;40;0;0;0.45000000000000001;0.55000000000000004;0.0;0.0;93;89;11;56;0.58999999999999997;0.070000000000000007;0.28000000000000003;0.059999999999999998;1;1.5910108474836306;63;48;20;1;die zeit fuer die probephase war etwas lang 
2019_02_28 12:07;16;1;1;timed;65;83;0;17;12;7;41;0.65000000000000002;0.19;0.089999999999999997;0.070000000000000007;6;84;0;0;0.72999999999999998;0.27000000000000002;0.0;0.0;0;1.7510854860774998;63;48;20;1;die zeit fuer die probephase war etwas lang 
2019_02_28 12:07;16;1;1;timed;66;64;1;48;39;34;19;0.46000000000000002;0.5;0.02;0.02;13;92;0;0;0.68999999999999995;0.31;0.0;0.0;0;1.711202652504653;63;48;20;1;die zeit fuer die probephase war etwas lang 
2019_02_28 12:07;16;1;1;timed;67;148;0;37;63;55;10;0.72999999999999998;0.070000000000000007;0.029999999999999999;0.17000000000000001;80;14;23;70;0.46999999999999997;0.10000000000000001;0.23000000000000001;0.20000000000000001;0;1.8513578438196419;63;48;20;1;die zeit fuer die probephase war etwas lang 
2019_02_28 12:07;16;1;1;timed;68;3;0;53;40;0;0;0.31;0.68999999999999995;0.0;0.0;96;24;7;88;0.11;0.27000000000000002;0.58999999999999997;0.029999999999999999;1;1.7111048320730333;63;48;20;1;die zeit fuer die probephase war etwas lang 
2019_02_28 12:07;16;1;1;timed;69;22;0;32;55;0;0;0.39000000000000001;0.60999999999999999;0.0;0.0;93;72;59;22;0.20000000000000001;0.11;0.14000000000000001;0.55000000000000004;1;2.0314465428982658;63;48;20;1;die zeit fuer die probephase war etwas lang 
2019_02_28 12:07;16;1;1;timed;70;31;1;10;59;0;0;0.23999999999999999;0.76000000000000001;0.0;0.0;1;79;53;73;0.23000000000000001;0.58999999999999997;0.050000000000000003;0.13;0;2.2316387841019605;63;48;20;1;die zeit fuer die probephase war etwas lang 
2019_02_28 12:07;16;1;1;timed;71;95;0;93;88;68;85;0.83999999999999997;0.14000000000000001;0.01;0.01;2;82;0;0;0.41999999999999998;0.57999999999999996;0.0;0.0;0;1.7911383026967087;63;48;20;1;die zeit fuer die probephase war etwas lang 
2019_02_28 12:07;16;1;1;timed;72;92;1;90;86;65;94;0.16;0.34000000000000002;0.28000000000000003;0.22;79;22;0;0;0.35999999999999999;0.64000000000000001;0.0;0.0;0;1.8012824419074605;63;48;20;1;die zeit fuer die probephase war etwas lang 
2019_02_28 12:07;16;1;1;timed;73;2;1;59;32;0;0;0.080000000000000002;0.92000000000000004;0.0;0.0;33;38;85;1;0.28999999999999998;0.050000000000000003;0.070000000000000007;0.58999999999999997;0;2.4715958329124987;63;48;20;1;die zeit fuer die probephase war etwas lang 
2019_02_28 12:07;16;1;1;timed;74;135;0;48;60;41;51;0.14000000000000001;0.40000000000000002;0.089999999999999997;0.37;94;1;85;65;0.64000000000000001;0.29999999999999999;0.01;0.050000000000000003;0;2.051471828677677;63;48;20;1;die zeit fuer die probephase war etwas lang 
2019_02_28 12:07;16;1;1;timed;75;150;0;25;21;78;38;0.84999999999999998;0.059999999999999998;0.050000000000000003;0.040000000000000001;31;43;64;95;0.059999999999999998;0.45000000000000001;0.13;0.35999999999999999;1;2.281603215949872;63;48;20;1;die zeit fuer die probephase war etwas lang 
2019_02_28 12:07;16;2;1;control;1;67;0;44;42;8;89;0.88;0.070000000000000007;0.029999999999999999;0.02;10;63;0;0;0.39000000000000001;0.60999999999999999;0.0;0.0;1;2.8384625450380554;63;48;20;1;die zeit fuer die probephase war etwas lang 
2019_02_28 12:07;16;2;1;control;2;32;0;19;81;0;0;0.93000000000000005;0.070000000000000007;0.0;0.0;1;65;41;68;0.45000000000000001;0.050000000000000003;0.059999999999999998;0.44;0;2.481484997553707;63;48;20;1;die zeit fuer die probephase war etwas lang 
2019_02_28 12:07;16;2;1;control;3;17;0;81;52;0;0;0.059999999999999998;0.93999999999999995;0.0;0.0;34;3;69;41;0.01;0.22;0.75;0.02;0;1.7112539681420458;63;48;20;1;die zeit fuer die probephase war etwas lang 
2019_02_28 12:07;16;2;1;control;4;105;0;49;74;63;58;0.84999999999999998;0.080000000000000002;0.02;0.050000000000000003;97;5;86;8;0.25;0.52000000000000002;0.070000000000000007;0.16;0;1.8911871166965284;63;48;20;1;die zeit fuer die probephase war etwas lang 
2019_02_28 12:07;16;2;1;control;5;102;1;40;56;53;17;0.28000000000000003;0.26000000000000001;0.14999999999999999;0.31;1;76;29;62;0.68000000000000005;0.23000000000000001;0.050000000000000003;0.039999999999999897;0;1.5310924650038942;63;48;20;1;die zeit fuer die probephase war etwas lang 
2019_02_28 12:07;16;2;1;control;6;96;1;51;54;39;7;0.17000000000000001;0.26000000000000001;0.10000000000000001;0.46999999999999997;24;96;0;0;0.28000000000000003;0.71999999999999997;0.0;0.0;1;1.6010289426612871;63;48;20;1;die zeit fuer die probephase war etwas lang 
2019_02_28 12:07;16;2;1;control;7;148;1;37;63;55;10;0.72999999999999998;0.070000000000000007;0.029999999999999999;0.17000000000000001;80;14;23;70;0.46999999999999997;0.10000000000000001;0.23000000000000001;0.20000000000000001;0;6.174133519438328;63;48;20;1;die zeit fuer die probephase war etwas lang 
2019_02_28 12:07;16;2;1;control;8;101;0;30;96;61;45;0.65000000000000002;0.14000000000000001;0.11;0.10000000000000001;3;98;63;89;0.75;0.19;0.040000000000000001;0.02;0;3.051973118303067;63;48;20;1;die zeit fuer die probephase war etwas lang 
2019_02_28 12:07;16;2;1;control;9;1;1;22;51;0;0;0.26000000000000001;0.73999999999999999;0.0;0.0;14;11;92;31;0.29999999999999999;0.40999999999999998;0.14999999999999999;0.14000000000000001;0;3.112133967166301;63;48;20;1;die zeit fuer die probephase war etwas lang 
2019_02_28 12:07;16;2;1;control;10;66;1;89;23;27;15;0.070000000000000007;0.54000000000000004;0.17000000000000001;0.22;9;73;0;0;0.72999999999999998;0.27000000000000002;0.0;0.0;0;2.3916983487270045;63;48;20;1;die zeit fuer die probephase war etwas lang 
2019_02_28 12:07;16;2;1;control;11;126;0;16;55;51;42;0.68999999999999995;0.23999999999999999;0.01;0.060000000000000102;66;4;1;5;0.46999999999999997;0.38;0.089999999999999997;0.059999999999999998;0;1.8513501464749424;63;48;20;1;die zeit fuer die probephase war etwas lang 
2019_02_28 12:07;16;2;1;control;12;44;1;79;74;0;0;0.71999999999999997;0.28000000000000003;0.0;0.0;3;67;15;36;0.41999999999999998;0.53000000000000003;0.02;0.029999999999999999;0;2.151734244014733;63;48;20;1;die zeit fuer die probephase war etwas lang 
2019_02_28 12:07;16;2;1;control;13;13;0;52;56;0;0;0.46999999999999997;0.53000000000000003;0.0;0.0;94;71;27;2;0.089999999999999997;0.31;0.57999999999999996;0.020000000000000101;0;2.5516854300149134;63;48;20;1;die zeit fuer die probephase war etwas lang 
2019_02_28 12:07;16;2;1;control;14;39;1;14;33;0;0;0.78000000000000003;0.22;0.0;0.0;93;84;1;25;0.14000000000000001;0.23999999999999999;0.39000000000000001;0.23000000000000001;0;1.871229182688694;63;48;20;1;die zeit fuer die probephase war etwas lang 
2019_02_28 12:07;16;2;1;control;15;33;1;27;70;0;0;0.88;0.12;0.0;0.0;93;3;77;16;0.080000000000000002;0.40000000000000002;0.5;0.02;0;2.4716942947925418;63;48;20;1;die zeit fuer die probephase war etwas lang 
2019_02_28 12:07;16;2;1;control;16;40;1;45;49;0;0;0.68999999999999995;0.31;0.0;0.0;2;92;65;73;0.23999999999999999;0.59999999999999998;0.11;0.050000000000000003;0;2.191544594250445;63;48;20;1;die zeit fuer die probephase war etwas lang 
2019_02_28 12:07;16;2;1;control;17;134;0;57;48;50;55;0.02;0.62;0.17999999999999999;0.17999999999999999;80;96;15;18;0.23999999999999999;0.35999999999999999;0.33000000000000002;0.070000000000000007;0;2.771926369758148;63;48;20;1;die zeit fuer die probephase war etwas lang 
2019_02_28 12:07;16;2;1;control;18;145;0;91;89;90;74;0.57999999999999996;0.29999999999999999;0.11;0.010000000000000101;2;75;84;39;0.32000000000000001;0.27000000000000002;0.39000000000000001;0.0199999999999999;0;1.8413192223888473;63;48;20;1;die zeit fuer die probephase war etwas lang 
2019_02_28 12:07;16;2;1;control;19;78;0;74;36;34;3;0.14999999999999999;0.64000000000000001;0.13;0.080000000000000002;1;83;0;0;0.41999999999999998;0.57999999999999996;0.0;0.0;0;1.8311622542714758;63;48;20;1;die zeit fuer die probephase war etwas lang 
2019_02_28 12:07;16;2;1;control;20;114;0;57;39;79;97;0.77000000000000002;0.02;0.13;0.080000000000000002;92;36;6;1;0.54000000000000004;0.12;0.13;0.20999999999999999;0;2.141400557673478;63;48;20;1;die zeit fuer die probephase war etwas lang 
2019_02_28 12:07;16;2;1;control;21;45;0;97;87;0;0;0.71999999999999997;0.28000000000000003;0.0;0.0;96;11;14;4;0.25;0.029999999999999999;0.14000000000000001;0.57999999999999996;0;1.9515108927062101;63;48;20;1;die zeit fuer die probephase war etwas lang 
2019_02_28 12:07;16;2;1;control;22;98;1;27;10;31;79;0.23000000000000001;0.67000000000000004;0.070000000000000007;0.029999999999999999;25;99;0;0;0.38;0.62;0.0;0.0;0;1.7912617809470248;63;48;20;1;die zeit fuer die probephase war etwas lang 
2019_02_28 12:07;16;2;1;control;23;150;0;25;21;78;38;0.84999999999999998;0.059999999999999998;0.050000000000000003;0.040000000000000001;31;43;64;95;0.059999999999999998;0.45000000000000001;0.13;0.35999999999999999;1;5.653742930469889;63;48;20;1;die zeit fuer die probephase war etwas lang 
2019_02_28 12:07;16;2;1;control;24;37;0;14;98;0;0;0.93000000000000005;0.070000000000000007;0.0;0.0;41;2;87;66;0.17999999999999999;0.48999999999999999;0.32000000000000001;0.010000000000000101;0;1.7212448018872237;63;48;20;1;die zeit fuer die probephase war etwas lang 
2019_02_28 12:07;16;2;1;control;25;139;0;44;31;16;8;0.79000000000000004;0.070000000000000007;0.13;0.0099999999999999499;92;58;2;88;0.55000000000000004;0.070000000000000007;0.34000000000000002;0.039999999999999897;0;3.1620525356665894;63;48;20;1;die zeit fuer die probephase war etwas lang 
2019_02_28 12:07;16;2;1;control;26;27;0;44;26;0;0;0.35999999999999999;0.64000000000000001;0.0;0.0;63;10;3;5;0.58999999999999997;0.19;0.14999999999999999;0.070000000000000007;0;2.3116440311259794;63;48;20;1;die zeit fuer die probephase war etwas lang 
2019_02_28 12:07;16;2;1;control;27;25;1;50;53;0;0;0.82999999999999996;0.17000000000000001;0.0;0.0;83;16;97;4;0.45000000000000001;0.29999999999999999;0.11;0.14000000000000001;0;2.0713107745505113;63;48;20;1;die zeit fuer die probephase war etwas lang 
2019_02_28 12:07;16;2;1;control;28;77;0;24;17;99;41;0.17999999999999999;0.13;0.10000000000000001;0.58999999999999997;12;97;0;0;0.59999999999999998;0.40000000000000002;0.0;0.0;0;1.831461167852467;63;48;20;1;die zeit fuer die probephase war etwas lang 
2019_02_28 12:07;16;2;1;control;29;35;0;33;37;0;0;0.88;0.12;0.0;0.0;63;4;79;98;0.16;0.46000000000000002;0.17000000000000001;0.20999999999999999;0;2.0813176444335113;63;48;20;1;die zeit fuer die probephase war etwas lang 
2019_02_28 12:07;16;2;1;control;30;123;1;26;24;51;92;0.72999999999999998;0.16;0.070000000000000007;0.040000000000000001;6;90;82;49;0.64000000000000001;0.25;0.050000000000000003;0.059999999999999998;0;2.291526697921654;63;48;20;1;die zeit fuer die probephase war etwas lang 
2019_02_28 12:07;16;2;1;control;31;24;0;35;27;0;0;0.070000000000000007;0.93000000000000005;0.0;0.0;62;3;81;95;0.35999999999999999;0.55000000000000004;0.01;0.080000000000000002;0;1.6310402513445297;63;48;20;1;die zeit fuer die probephase war etwas lang 
2019_02_28 12:07;16;2;1;control;32;128;1;70;49;27;54;0.27000000000000002;0.53000000000000003;0.02;0.17999999999999999;72;97;6;20;0.29999999999999999;0.39000000000000001;0.22;0.0899999999999999;0;1.731136853029966;63;48;20;1;die zeit fuer die probephase war etwas lang 
2019_02_28 12:07;16;2;1;control;33;36;1;70;17;0;0;0.33000000000000002;0.67000000000000004;0.0;0.0;84;1;12;88;0.22;0.27000000000000002;0.14000000000000001;0.37;0;2.9220502649495756;63;48;20;1;die zeit fuer die probephase war etwas lang 
2019_02_28 12:07;16;2;1;control;34;86;0;56;30;57;88;0.20000000000000001;0.35999999999999999;0.080000000000000002;0.35999999999999999;98;2;0;0;0.77000000000000002;0.23000000000000001;0.0;0.0;0;1.7911421513708774;63;48;20;1;die zeit fuer die probephase war etwas lang 
2019_02_28 12:07;16;2;1;control;35;138;0;8;20;43;51;0.38;0.5;0.02;0.10000000000000001;72;82;70;1;0.39000000000000001;0.050000000000000003;0.070000000000000007;0.48999999999999999;0;1.9313553934989613;63;48;20;1;die zeit fuer die probephase war etwas lang 
2019_02_28 12:07;16;2;1;control;36;133;1;59;88;60;36;0.67000000000000004;0.070000000000000007;0.12;0.14000000000000001;7;91;66;61;0.25;0.68999999999999995;0.01;0.0500000000000001;0;1.7312574447751103;63;48;20;1;die zeit fuer die probephase war etwas lang 
2019_02_28 12:07;16;2;1;control;37;130;0;37;79;23;95;0.94999999999999996;0.029999999999999999;0.01;0.01;94;4;58;49;0.46000000000000002;0.5;0.029999999999999999;0.01;0;1.6110188142356492;63;48;20;1;die zeit fuer die probephase war etwas lang 
2019_02_28 12:07;16;2;1;control;38;137;0;71;22;28;17;0.25;0.46000000000000002;0.050000000000000003;0.23999999999999999;3;98;92;69;0.42999999999999999;0.23999999999999999;0.20000000000000001;0.13;0;4.012637116984479;63;48;20;1;die zeit fuer die probephase war etwas lang 
2019_02_28 12:07;16;2;1;control;39;143;0;88;44;56;73;0.95999999999999996;0.02;0.01;0.01;20;3;87;32;0.19;0.40000000000000002;0.28000000000000003;0.13;0;2.251628148937016;63;48;20;1;die zeit fuer die probephase war etwas lang 
2019_02_28 12:07;16;2;1;control;40;113;1;85;65;39;64;0.44;0.34000000000000002;0.13;0.089999999999999997;87;2;4;35;0.67000000000000004;0.17000000000000001;0.11;0.049999999999999899;0;1.6110589045783854;63;48;20;1;die zeit fuer die probephase war etwas lang 
2019_02_28 12:07;16;2;1;control;41;95;1;93;88;68;85;0.83999999999999997;0.14000000000000001;0.01;0.01;2;82;0;0;0.41999999999999998;0.57999999999999996;0.0;0.0;0;1.3612235957007215;63;48;20;1;die zeit fuer die probephase war etwas lang 
2019_02_28 12:07;16;2;1;control;42;11;1;17;36;0;0;0.14000000000000001;0.85999999999999999;0.0;0.0;19;41;34;95;0.88;0.02;0.050000000000000003;0.050000000000000003;1;2.5516629794237815;63;48;20;1;die zeit fuer die probephase war etwas lang 
2019_02_28 12:07;16;2;1;control;43;68;0;84;27;55;62;0.01;0.050000000000000003;0.40999999999999998;0.53000000000000003;9;82;0;0;0.37;0.63;0.0;0.0;0;1.4709386720405746;63;48;20;1;die zeit fuer die probephase war etwas lang 
2019_02_28 12:07;16;2;1;control;44;47;0;2;40;0;0;0.45000000000000001;0.55000000000000004;0.0;0.0;93;89;11;56;0.58999999999999997;0.070000000000000007;0.28000000000000003;0.059999999999999998;1;2.0313131222410448;63;48;20;1;die zeit fuer die probephase war etwas lang 
2019_02_28 12:07;16;2;1;control;45;76;0;39;62;9;28;0.01;0.51000000000000001;0.26000000000000001;0.22;77;7;0;0;0.57999999999999996;0.41999999999999998;0.0;0.0;0;3.032066179210233;63;48;20;1;die zeit fuer die probephase war etwas lang 
2019_02_28 12:07;16;2;1;control;46;104;1;55;85;93;3;0.87;0.02;0.089999999999999997;0.02;1;2;90;8;0.35999999999999999;0.070000000000000007;0.40000000000000002;0.17000000000000001;0;3.052098520891377;63;48;20;1;die zeit fuer die probephase war etwas lang 
2019_02_28 12:07;16;2;1;control;47;89;0;26;41;13;56;0.059999999999999998;0.40999999999999998;0.050000000000000003;0.47999999999999998;5;97;0;0;0.37;0.63;0.0;0.0;1;3.8827004725535517;63;48;20;1;die zeit fuer die probephase war etwas lang 
2019_02_28 12:07;16;2;1;control;48;55;1;74;55;47;48;0.60999999999999999;0.31;0.070000000000000007;0.01;97;6;0;0;0.42999999999999999;0.56999999999999995;0.0;0.0;0;2.811849293671912;63;48;20;1;die zeit fuer die probephase war etwas lang 
2019_02_28 12:07;16;2;1;control;49;10;0;45;62;0;0;0.059999999999999998;0.93999999999999995;0.0;0.0;17;99;28;67;0.58999999999999997;0.34000000000000002;0.01;0.059999999999999998;1;5.153379551617036;63;48;20;1;die zeit fuer die probephase war etwas lang 
2019_02_28 12:07;16;2;1;control;50;80;0;47;39;45;10;0.13;0.76000000000000001;0.059999999999999998;0.050000000000000003;2;87;0;0;0.48999999999999999;0.51000000000000001;0.0;0.0;0;3.0421089700375887;63;48;20;1;die zeit fuer die probephase war etwas lang 
2019_02_28 12:07;16;2;1;control;51;127;0;89;26;62;79;0.02;0.28999999999999998;0.53000000000000003;0.16;96;6;60;13;0.53000000000000003;0.25;0.17000000000000001;0.050000000000000003;0;3.1421978743765067;63;48;20;1;die zeit fuer die probephase war etwas lang 
2019_02_28 12:07;16;2;1;control;52;9;0;61;69;0;0;0.93999999999999995;0.060000000000000102;0.0;0.0;18;93;72;16;0.40999999999999998;0.34999999999999998;0.089999999999999997;0.14999999999999999;1;1.991371275686106;63;48;20;1;die zeit fuer die probephase war etwas lang 
2019_02_28 12:07;16;2;1;control;53;82;0;78;66;30;27;0.28999999999999998;0.58999999999999997;0.080000000000000002;0.040000000000000001;90;6;0;0;0.82999999999999996;0.17000000000000001;0.0;0.0;0;2.3216358270383353;63;48;20;1;die zeit fuer die probephase war etwas lang 
2019_02_28 12:07;16;2;1;control;54;53;0;26;70;50;80;0.29999999999999999;0.59999999999999998;0.040000000000000001;0.059999999999999998;89;1;0;0;0.40999999999999998;0.58999999999999997;0.0;0.0;0;1.8313264643093135;63;48;20;1;die zeit fuer die probephase war etwas lang 
2019_02_28 12:07;16;2;1;control;55;64;0;48;39;34;19;0.46000000000000002;0.5;0.02;0.02;13;92;0;0;0.68999999999999995;0.31;0.0;0.0;0;1.9112213827138476;63;48;20;1;die zeit fuer die probephase war etwas lang 
2019_02_28 12:07;16;2;1;control;56;43;0;60;83;0;0;0.23000000000000001;0.77000000000000002;0.0;0.0;72;5;70;12;0.29999999999999999;0.40999999999999998;0.12;0.17000000000000001;0;1.7611132029360306;63;48;20;1;die zeit fuer die probephase war etwas lang 
2019_02_28 12:07;16;2;1;control;57;121;0;42;51;47;70;0.41999999999999998;0.17000000000000001;0.23999999999999999;0.17000000000000001;21;76;48;9;0.14999999999999999;0.34000000000000002;0.40999999999999998;0.10000000000000001;0;1.9312457063242618;63;48;20;1;die zeit fuer die probephase war etwas lang 
2019_02_28 12:07;16;2;1;control;58;65;1;75;64;59;52;0.59999999999999998;0.22;0.14000000000000001;0.040000000000000001;1;99;0;0;0.35999999999999999;0.64000000000000001;0.0;0.0;0;1.350826726978994;63;48;20;1;die zeit fuer die probephase war etwas lang 
2019_02_28 12:07;16;2;1;control;59;59;0;56;47;83;90;0.31;0.12;0.54000000000000004;0.029999999999999898;10;98;0;0;0.46999999999999997;0.53000000000000003;0.0;0.0;0;1.6310572496495297;63;48;20;1;die zeit fuer die probephase war etwas lang 
2019_02_28 12:07;16;2;1;control;60;132;0;27;70;21;19;0.64000000000000001;0.23000000000000001;0.029999999999999999;0.10000000000000001;11;85;55;6;0.39000000000000001;0.46999999999999997;0.029999999999999999;0.11;0;2.131340768541122;63;48;20;1;die zeit fuer die probephase war etwas lang 
2019_02_28 12:07;16;2;1;control;61;29;0;44;51;0;0;0.78000000000000003;0.22;0.0;0.0;74;1;68;82;0.69999999999999996;0.28000000000000003;0.01;0.01;0;1.9113301077177312;63;48;20;1;die zeit fuer die probephase war etwas lang 
2019_02_28 12:07;16;2;1;control;62;70;1;66;55;69;50;0.22;0.29999999999999999;0.29999999999999999;0.17999999999999999;2;90;0;0;0.34000000000000002;0.66000000000000003;0.0;0.0;0;1.3910293211138196;63;48;20;1;die zeit fuer die probephase war etwas lang 
2019_02_28 12:07;16;2;1;control;63;91;0;74;81;86;48;0.93000000000000005;0.02;0.01;0.039999999999999897;7;64;0;0;0.13;0.87;0.0;0.0;0;1.3509890126806567;63;48;20;1;die zeit fuer die probephase war etwas lang 
2019_02_28 12:07;16;2;1;control;64;75;1;67;80;36;81;0.81999999999999995;0.080000000000000002;0.059999999999999998;0.040000000000000001;3;97;0;0;0.32000000000000001;0.68000000000000005;0.0;0.0;0;1.351011142549396;63;48;20;1;die zeit fuer die probephase war etwas lang 
2019_02_28 12:07;16;2;1;control;65;31;1;10;59;0;0;0.23999999999999999;0.76000000000000001;0.0;0.0;1;79;53;73;0.23000000000000001;0.58999999999999997;0.050000000000000003;0.13;0;2.2415856788320525;63;48;20;1;die zeit fuer die probephase war etwas lang 
2019_02_28 12:07;16;2;1;control;66;129;1;12;29;81;36;0.17999999999999999;0.79000000000000004;0.01;0.02;5;19;95;92;0.47999999999999998;0.26000000000000001;0.13;0.13;0;1.6912357382625487;63;48;20;1;die zeit fuer die probephase war etwas lang 
2019_02_28 12:07;16;2;1;control;67;141;1;93;28;60;91;0.81999999999999995;0.10000000000000001;0.01;0.070000000000000007;14;85;7;89;0.45000000000000001;0.070000000000000007;0.23999999999999999;0.23999999999999999;0;1.8513947269329947;63;48;20;1;die zeit fuer die probephase war etwas lang 
2019_02_28 12:07;16;2;1;control;68;119;1;60;58;11;18;0.25;0.72999999999999998;0.01;0.01;96;23;42;85;0.44;0.48999999999999999;0.059999999999999998;0.010000000000000101;1;1.7312645006750245;63;48;20;1;die zeit fuer die probephase war etwas lang 
2019_02_28 12:07;16;2;1;control;69;34;0;32;48;0;0;0.28000000000000003;0.71999999999999997;0.0;0.0;97;83;7;62;0.040000000000000001;0.54000000000000004;0.35999999999999999;0.059999999999999901;1;1.8713430392581358;63;48;20;1;die zeit fuer die probephase war etwas lang 
2019_02_28 12:07;16;2;1;control;70;120;0;64;40;48;51;0.19;0.02;0.070000000000000007;0.71999999999999997;97;9;79;94;0.23000000000000001;0.54000000000000004;0.01;0.22;0;1.8211261986198224;63;48;20;1;die zeit fuer die probephase war etwas lang 
2019_02_28 12:07;16;2;1;control;71;26;0;76;41;0;0;0.57999999999999996;0.41999999999999998;0.0;0.0;61;79;84;2;0.13;0.029999999999999999;0.67000000000000004;0.17000000000000001;0;2.5117910504250176;63;48;20;1;die zeit fuer die probephase war etwas lang 
2019_02_28 12:07;16;2;1;control;72;57;0;52;35;23;47;0.22;0.68000000000000005;0.040000000000000001;0.059999999999999998;71;7;0;0;0.28999999999999998;0.70999999999999996;0.0;0.0;0;1.9512780480035872;63;48;20;1;die zeit fuer die probephase war etwas lang 
2019_02_28 12:07;16;2;1;control;73;115;0;50;28;61;79;0.83999999999999997;0.040000000000000001;0.059999999999999998;0.059999999999999998;1;26;97;55;0.45000000000000001;0.080000000000000002;0.40999999999999998;0.060000000000000102;0;2.932030194120671;63;48;20;1;die zeit fuer die probephase war etwas lang 
2019_02_28 12:07;16;2;1;control;74;149;0;14;89;73;53;0.93999999999999995;0.01;0.01;0.040000000000000001;97;45;6;13;0.34000000000000002;0.01;0.40999999999999998;0.23999999999999999;0;3.142068623117666;63;48;20;1;die zeit fuer die probephase war etwas lang 
2019_02_28 12:07;16;2;1;control;75;106;1;85;69;22;61;0.10000000000000001;0.58999999999999997;0.17999999999999999;0.13;20;79;91;84;0.55000000000000004;0.14999999999999999;0.26000000000000001;0.039999999999999897;0;3.6124694431418902;63;48;20;1;die zeit fuer die probephase war etwas lang 
2019_02_28 12:07;16;3;1;timed;1;136;1;29;67;14;75;0.46000000000000002;0.29999999999999999;0.20999999999999999;0.0300000000000001;70;86;1;85;0.31;0.39000000000000001;0.27000000000000002;0.029999999999999898;0;1.6528888458415167;63;48;20;1;die zeit fuer die probephase war etwas lang 
2019_02_28 12:07;16;3;1;timed;2;70;0;66;55;69;50;0.22;0.29999999999999999;0.29999999999999999;0.17999999999999999;2;90;0;0;0.34000000000000002;0.66000000000000003;0.0;0.0;0;1.4709556703455746;63;48;20;1;die zeit fuer die probephase war etwas lang 
2019_02_28 12:07;16;3;1;timed;3;10;0;45;62;0;0;0.059999999999999998;0.93999999999999995;0.0;0.0;17;99;28;67;0.58999999999999997;0.34000000000000002;0.01;0.059999999999999998;1;1.4710868459424091;63;48;20;1;die zeit fuer die probephase war etwas lang 
2019_02_28 12:07;16;3;1;timed;4;130;0;37;79;23;95;0.94999999999999996;0.029999999999999999;0.01;0.01;94;4;58;49;0.46000000000000002;0.5;0.029999999999999999;0.01;0;1.461098898702403;63;48;20;1;die zeit fuer die probephase war etwas lang 
2019_02_28 12:07;16;3;1;timed;5;107;1;52;48;13;63;0.68000000000000005;0.19;0.050000000000000003;0.079999999999999905;54;91;33;3;0.19;0.17999999999999999;0.33000000000000002;0.29999999999999999;0;1.410937222373832;63;48;20;1;die zeit fuer die probephase war etwas lang 
2019_02_28 12:07;16;3;1;timed;6;17;0;81;52;0;0;0.059999999999999998;0.93999999999999995;0.0;0.0;34;3;69;41;0.01;0.22;0.75;0.02;0;1.3108255467195704;63;48;20;1;die zeit fuer die probephase war etwas lang 
2019_02_28 12:07;16;3;1;timed;7;65;1;75;64;59;52;0.59999999999999998;0.22;0.14000000000000001;0.040000000000000001;1;99;0;0;0.35999999999999999;0.64000000000000001;0.0;0.0;0;1.2309238931393338;63;48;20;1;die zeit fuer die probephase war etwas lang 
2019_02_28 12:07;16;3;1;timed;8;89;0;26;41;13;56;0.059999999999999998;0.40999999999999998;0.050000000000000003;0.47999999999999998;5;97;0;0;0.37;0.63;0.0;0.0;0;1.1609492494771985;63;48;20;1;die zeit fuer die probephase war etwas lang 
2019_02_28 12:07;16;3;1;timed;9;117;1;65;85;92;41;0.23000000000000001;0.17999999999999999;0.54000000000000004;0.050000000000000003;99;93;10;13;0.64000000000000001;0.16;0.01;0.19;0;1.1407238327137748;63;48;20;1;die zeit fuer die probephase war etwas lang 
2019_02_28 12:07;16;3;1;timed;10;49;0;21;30;0;0;0.53000000000000003;0.46999999999999997;0.0;0.0;93;99;89;25;0.44;0.02;0.11;0.42999999999999999;1;1.4310112580096757;63;48;20;1;die zeit fuer die probephase war etwas lang 
2019_02_28 12:07;16;3;1;timed;11;119;0;60;58;11;18;0.25;0.72999999999999998;0.01;0.01;96;23;42;85;0.44;0.48999999999999999;0.059999999999999998;0.010000000000000101;1;2.0913322116593918;63;48;20;1;die zeit fuer die probephase war etwas lang 
2019_02_28 12:07;16;3;1;timed;12;66;1;89;23;27;15;0.070000000000000007;0.54000000000000004;0.17000000000000001;0.22;9;73;0;0;0.72999999999999998;0.27000000000000002;0.0;0.0;0;1.91124511619455;63;48;20;1;die zeit fuer die probephase war etwas lang 
2019_02_28 12:07;16;3;1;timed;13;18;1;68;50;0;0;0.029999999999999999;0.96999999999999997;0.0;0.0;34;64;15;89;0.65000000000000002;0.029999999999999999;0.050000000000000003;0.27000000000000002;1;1.2708025573156192;63;48;20;1;die zeit fuer die probephase war etwas lang 
2019_02_28 12:07;16;3;1;timed;14;78;1;74;36;34;3;0.14999999999999999;0.64000000000000001;0.13;0.080000000000000002;1;83;0;0;0.41999999999999998;0.57999999999999996;0.0;0.0;0;1.2407870792358153;63;48;20;1;die zeit fuer die probephase war etwas lang 
2019_02_28 12:07;16;3;1;timed;15;54;1;44;79;78;52;0.79000000000000004;0.19;0.01;0.0099999999999999603;96;1;0;0;0.28000000000000003;0.71999999999999997;0.0;0.0;0;1.07066708403363;63;48;20;1;die zeit fuer die probephase war etwas lang 
2019_02_28 12:07;16;3;1;timed;16;101;1;30;96;61;45;0.65000000000000002;0.14000000000000001;0.11;0.10000000000000001;3;98;63;89;0.75;0.19;0.040000000000000001;0.02;1;1.1704057591523451;63;48;20;1;die zeit fuer die probephase war etwas lang 
2019_02_28 12:07;16;3;1;timed;17;109;0;75;28;16;56;0.19;0.070000000000000007;0.059999999999999998;0.68000000000000005;3;50;98;44;0.5;0.02;0.34999999999999998;0.13;0;1.3708828021408408;63;48;20;1;die zeit fuer die probephase war etwas lang 
2019_02_28 12:07;16;3;1;timed;18;100;0;27;14;59;52;0.02;0.95999999999999996;0.01;0.01;17;98;0;0;0.48999999999999999;0.51000000000000001;0.0;0.0;0;1.1107093168029678;63;48;20;1;die zeit fuer die probephase war etwas lang 
2019_02_28 12:07;16;3;1;timed;19;25;0;50;53;0;0;0.82999999999999996;0.17000000000000001;0.0;0.0;83;16;97;4;0.45000000000000001;0.29999999999999999;0.11;0.14000000000000001;0;1.571151696078232;63;48;20;1;die zeit fuer die probephase war etwas lang 
2019_02_28 12:07;16;3;1;timed;20;6;1;9;51;0;0;0.14999999999999999;0.84999999999999998;0.0;0.0;6;40;50;73;0.42999999999999999;0.26000000000000001;0.059999999999999998;0.25;1;1.2707913320191437;63;48;20;1;die zeit fuer die probephase war etwas lang 
2019_02_28 12:07;16;3;1;timed;21;110;0;47;44;23;52;0.13;0.27000000000000002;0.040000000000000001;0.56000000000000005;99;2;30;22;0.28999999999999998;0.5;0.11;0.10000000000000001;0;1.4510638052215654;63;48;20;1;die zeit fuer die probephase war etwas lang 
2019_02_28 12:07;16;3;1;timed;22;48;0;13;32;0;0;0.90000000000000002;0.10000000000000001;0.0;0.0;24;99;84;94;0.62;0.14999999999999999;0.20000000000000001;0.029999999999999999;1;1.2307381946775422;63;48;20;1;die zeit fuer die probephase war etwas lang 
2019_02_28 12:07;16;3;1;timed;23;69;1;54;34;64;49;0.34000000000000002;0.25;0.20999999999999999;0.20000000000000001;14;98;0;0;0.62;0.38;0.0;0.0;0;1.3108435071917484;63;48;20;1;die zeit fuer die probephase war etwas lang 
2019_02_28 12:07;16;3;1;timed;24;99;0;8;24;15;73;0.56000000000000005;0.35999999999999999;0.070000000000000007;0.0099999999999999499;88;12;0;0;0.52000000000000002;0.47999999999999998;0.0;0.0;1;1.6411705994760268;63;48;20;1;die zeit fuer die probephase war etwas lang 
2019_02_28 12:07;16;3;1;timed;25;41;0;99;40;0;0;0.89000000000000001;0.11;0.0;0.0;1;67;52;46;0.51000000000000001;0.38;0.029999999999999999;0.080000000000000002;0;1.9712693371748173;63;48;20;1;die zeit fuer die probephase war etwas lang 
2019_02_28 12:07;16;3;1;timed;26;108;0;48;72;39;70;0.14000000000000001;0.66000000000000003;0.02;0.17999999999999999;81;44;98;8;0.59999999999999998;0.029999999999999999;0.050000000000000003;0.32000000000000001;0;2.091343757676441;63;48;20;1;die zeit fuer die probephase war etwas lang 
2019_02_28 12:07;16;3;1;timed;27;143;1;88;44;56;73;0.95999999999999996;0.02;0.01;0.01;20;3;87;32;0.19;0.40000000000000002;0.28000000000000003;0.13;0;1.5609873513367347;63;48;20;1;die zeit fuer die probephase war etwas lang 
2019_02_28 12:07;16;3;1;timed;28;123;0;26;24;51;92;0.72999999999999998;0.16;0.070000000000000007;0.040000000000000001;6;90;82;49;0.64000000000000001;0.25;0.050000000000000003;0.059999999999999998;0;1.371031296765068;63;48;20;1;die zeit fuer die probephase war etwas lang 
2019_02_28 12:07;16;3;1;timed;29;138;1;8;20;43;51;0.38;0.5;0.02;0.10000000000000001;72;82;70;1;0.39000000000000001;0.050000000000000003;0.070000000000000007;0.48999999999999999;0;1.7010716629265517;63;48;20;1;die zeit fuer die probephase war etwas lang 
2019_02_28 12:07;16;3;1;timed;30;40;1;45;49;0;0;0.68999999999999995;0.31;0.0;0.0;2;92;65;73;0.23999999999999999;0.59999999999999998;0.11;0.050000000000000003;0;1.8713609997303138;63;48;20;1;die zeit fuer die probephase war etwas lang 
2019_02_28 12:07;16;3;1;timed;31;39;0;14;33;0;0;0.78000000000000003;0.22;0.0;0.0;93;84;1;25;0.14000000000000001;0.23999999999999999;0.39000000000000001;0.23000000000000001;0;1.5511353905349097;63;48;20;1;die zeit fuer die probephase war etwas lang 
2019_02_28 12:07;16;3;1;timed;32;106;0;85;69;22;61;0.10000000000000001;0.58999999999999997;0.17999999999999999;0.13;20;79;91;84;0.55000000000000004;0.14999999999999999;0.26000000000000001;0.039999999999999897;1;2.611684313900696;63;48;20;1;die zeit fuer die probephase war etwas lang 
2019_02_28 12:07;16;3;1;timed;33;146;1;25;5;64;35;0.94999999999999996;0.02;0.01;0.02;47;97;12;79;0.20999999999999999;0.029999999999999999;0.02;0.73999999999999999;1;1.5309635344674462;63;48;20;1;die zeit fuer die probephase war etwas lang 
2019_02_28 12:07;16;3;1;timed;34;52;1;71;51;10;54;0.22;0.12;0.19;0.46999999999999997;91;1;0;0;0.29999999999999999;0.69999999999999996;0.0;0.0;0;1.4408500691806694;63;48;20;1;die zeit fuer die probephase war etwas lang 
2019_02_28 12:07;16;3;1;timed;35;27;0;44;26;0;0;0.35999999999999999;0.64000000000000001;0.0;0.0;63;10;3;5;0.58999999999999997;0.19;0.14999999999999999;0.070000000000000007;0;1.5209938684238296;63;48;20;1;die zeit fuer die probephase war etwas lang 
2019_02_28 12:07;16;3;1;timed;36;133;0;59;88;60;36;0.67000000000000004;0.070000000000000007;0.12;0.14000000000000001;7;91;66;61;0.25;0.68999999999999995;0.01;0.0500000000000001;0;2.2916084822190896;63;48;20;1;die zeit fuer die probephase war etwas lang 
2019_02_28 12:07;16;3;1;timed;37;82;1;78;66;30;27;0.28999999999999998;0.58999999999999997;0.080000000000000002;0.040000000000000001;90;6;0;0;0.82999999999999996;0.17000000000000001;0.0;0.0;0;1.3909096915358532;63;48;20;1;die zeit fuer die probephase war etwas lang 
2019_02_28 12:07;16;3;1;timed;38;111;1;51;36;48;27;0.93000000000000005;0.01;0.01;0.049999999999999899;31;78;30;53;0.55000000000000004;0.16;0.029999999999999999;0.26000000000000001;0;2.981938499491662;63;48;20;1;die zeit fuer die probephase war etwas lang 
2019_02_28 12:07;16;3;1;timed;39;142;1;98;65;64;84;0.88;0.070000000000000007;0.01;0.040000000000000001;5;68;60;16;0.46000000000000002;0.080000000000000002;0.27000000000000002;0.19;0;2.011280139116934;63;48;20;1;die zeit fuer die probephase war etwas lang 
2019_02_28 12:07;16;3;1;timed;40;43;1;60;83;0;0;0.23000000000000001;0.77000000000000002;0.0;0.0;72;5;70;12;0.29999999999999999;0.40999999999999998;0.12;0.17000000000000001;0;2.1213476897373766;63;48;20;1;die zeit fuer die probephase war etwas lang 
2019_02_28 12:07;16;3;1;timed;41;104;1;55;85;93;3;0.87;0.02;0.089999999999999997;0.02;1;2;90;8;0.35999999999999999;0.070000000000000007;0.40000000000000002;0.17000000000000001;0;2.131374765151122;63;48;20;1;die zeit fuer die probephase war etwas lang 
2019_02_28 12:07;16;3;1;timed;42;93;1;87;81;73;98;0.80000000000000004;0.040000000000000001;0.14999999999999999;0.0099999999999999499;5;71;0;0;0.51000000000000001;0.48999999999999999;0.0;0.0;0;1.8712096186027338;63;48;20;1;die zeit fuer die probephase war etwas lang 
2019_02_28 12:07;16;3;1;timed;43;55;1;74;55;47;48;0.60999999999999999;0.31;0.070000000000000007;0.01;97;6;0;0;0.42999999999999999;0.56999999999999995;0.0;0.0;0;2.081505908676263;63;48;20;1;die zeit fuer die probephase war etwas lang 
2019_02_28 12:07;16;3;1;timed;44;56;0;28;84;37;41;0.68000000000000005;0.28000000000000003;0.02;0.0199999999999999;6;95;0;0;0.72999999999999998;0.27000000000000002;0.0;0.0;0;2.391525799899682;63;48;20;1;die zeit fuer die probephase war etwas lang 
2019_02_28 12:07;16;3;1;timed;45;68;0;84;27;55;62;0.01;0.050000000000000003;0.40999999999999998;0.53000000000000003;9;82;0;0;0.37;0.63;0.0;0.0;0;1.6310380062841432;63;48;20;1;die zeit fuer die probephase war etwas lang 
2019_02_28 12:07;16;3;1;timed;46;116;1;53;65;43;99;0.56999999999999995;0.37;0.050000000000000003;0.010000000000000101;57;72;11;87;0.67000000000000004;0.13;0.14999999999999999;0.050000000000000003;0;2.6917553090825095;63;48;20;1;die zeit fuer die probephase war etwas lang 
2019_02_28 12:07;16;3;1;timed;47;81;1;67;38;52;65;0.27000000000000002;0.35999999999999999;0.01;0.35999999999999999;2;77;0;0;0.14000000000000001;0.85999999999999999;0.0;0.0;0;1.631052438806364;63;48;20;1;die zeit fuer die probephase war etwas lang 
2019_02_28 12:07;16;3;1;timed;48;127;0;89;26;62;79;0.02;0.28999999999999998;0.53000000000000003;0.16;96;6;60;13;0.53000000000000003;0.25;0.17000000000000001;0.050000000000000003;0;1.611043189164775;63;48;20;1;die zeit fuer die probephase war etwas lang 
2019_02_28 12:07;16;3;1;timed;49;21;1;64;28;0;0;0.080000000000000002;0.92000000000000004;0.0;0.0;50;1;88;13;0.57999999999999996;0.13;0.02;0.27000000000000002;0;2.4717106516509375;63;48;20;1;die zeit fuer die probephase war etwas lang 
2019_02_28 12:07;16;3;1;timed;50;102;0;40;56;53;17;0.28000000000000003;0.26000000000000001;0.14999999999999999;0.31;1;76;29;62;0.68000000000000005;0.23000000000000001;0.050000000000000003;0.039999999999999897;0;1.9711195596610196;63;48;20;1;die zeit fuer die probephase war etwas lang 
2019_02_28 12:07;16;3;1;timed;51;80;0;47;39;45;10;0.13;0.76000000000000001;0.059999999999999998;0.050000000000000003;2;87;0;0;0.48999999999999999;0.51000000000000001;0.0;0.0;0;2.0314487879550143;63;48;20;1;die zeit fuer die probephase war etwas lang 
2019_02_28 12:07;16;3;1;timed;52;61;1;43;18;39;70;0.75;0.089999999999999997;0.089999999999999997;0.070000000000000007;16;66;0;0;0.64000000000000001;0.35999999999999999;0.0;0.0;0;1.921373860712265;63;48;20;1;die zeit fuer die probephase war etwas lang 
2019_02_28 12:07;16;3;1;timed;53;128;1;70;49;27;54;0.27000000000000002;0.53000000000000003;0.02;0.17999999999999999;72;97;6;20;0.29999999999999999;0.39000000000000001;0.22;0.0899999999999999;0;2.4517200039263116;63;48;20;1;die zeit fuer die probephase war etwas lang 
2019_02_28 12:07;16;3;1;timed;54;29;0;44;51;0;0;0.78000000000000003;0.22;0.0;0.0;74;1;68;82;0.69999999999999996;0.28000000000000003;0.01;0.01;0;1.5511267310212133;63;48;20;1;die zeit fuer die probephase war etwas lang 
2019_02_28 12:07;16;3;1;timed;55;103;0;38;49;89;50;0.89000000000000001;0.070000000000000007;0.01;0.029999999999999999;6;64;99;27;0.70999999999999996;0.17999999999999999;0.059999999999999998;0.050000000000000003;0;2.3314893914539425;63;48;20;1;die zeit fuer die probephase war etwas lang 
2019_02_28 12:07;16;3;1;timed;56;11;0;17;36;0;0;0.14000000000000001;0.85999999999999999;0.0;0.0;19;41;34;95;0.88;0.02;0.050000000000000003;0.050000000000000003;1;2.2014218921485735;63;48;20;1;die zeit fuer die probephase war etwas lang 
2019_02_28 12:07;16;3;1;timed;57;53;0;26;70;50;80;0.29999999999999999;0.59999999999999998;0.040000000000000001;0.059999999999999998;89;1;0;0;0.40999999999999998;0.58999999999999997;0.0;0.0;0;1.6810694691848767;63;48;20;1;die zeit fuer die probephase war etwas lang 
2019_02_28 12:07;16;3;1;timed;58;87;0;10;30;63;4;0.56999999999999995;0.12;0.16;0.14999999999999999;86;2;0;0;0.42999999999999999;0.56999999999999995;0.0;0.0;0;2.35164873933536;63;48;20;1;die zeit fuer die probephase war etwas lang 
2019_02_28 12:07;16;3;1;timed;59;149;0;14;89;73;53;0.93999999999999995;0.01;0.01;0.040000000000000001;97;45;6;13;0.34000000000000002;0.01;0.40999999999999998;0.23999999999999999;NA;3.4122306971421494;63;48;20;1;die zeit fuer die probephase war etwas lang 
2019_02_28 12:07;16;3;1;timed;60;125;1;37;41;10;35;0.91000000000000003;0.040000000000000001;0.029999999999999999;0.02;7;13;91;93;0.26000000000000001;0.39000000000000001;0.16;0.19;0;2.091761659392432;63;48;20;1;die zeit fuer die probephase war etwas lang 
2019_02_28 12:07;16;3;1;timed;61;118;0;62;52;65;68;0.40999999999999998;0.44;0.10000000000000001;0.0500000000000001;79;20;14;37;0.56999999999999995;0.23999999999999999;0.14000000000000001;0.050000000000000003;0;1.981460943348793;63;48;20;1;die zeit fuer die probephase war etwas lang 
2019_02_28 12:07;16;3;1;timed;62;19;0;22;53;0;0;0.13;0.87;0.0;0.0;4;93;96;65;0.46999999999999997;0.059999999999999998;0.26000000000000001;0.20999999999999999;0;2.0714878134986066;63;48;20;1;die zeit fuer die probephase war etwas lang 
2019_02_28 12:07;16;3;1;timed;63;88;1;77;13;12;7;0.12;0.19;0.66000000000000003;0.029999999999999898;94;2;0;0;0.40999999999999998;0.58999999999999997;0.0;0.0;1;1.5511318625849526;63;48;20;1;die zeit fuer die probephase war etwas lang 
2019_02_28 12:07;16;3;1;timed;64;91;1;74;81;86;48;0.93000000000000005;0.02;0.01;0.039999999999999897;7;64;0;0;0.13;0.87;0.0;0.0;0;1.230935439156383;63;48;20;1;die zeit fuer die probephase war etwas lang 
2019_02_28 12:07;16;3;1;timed;65;122;1;35;58;25;31;0.81999999999999995;0.070000000000000007;0.080000000000000002;0.029999999999999999;18;64;68;89;0.63;0.17000000000000001;0.11;0.089999999999999997;1;1.751241036601641;63;48;20;1;die zeit fuer die probephase war etwas lang 
2019_02_28 12:07;16;3;1;timed;66;67;1;44;42;8;89;0.88;0.070000000000000007;0.029999999999999999;0.02;10;63;0;0;0.39000000000000001;0.60999999999999999;0.0;0.0;1;1.5910108474836306;63;48;20;1;die zeit fuer die probephase war etwas lang 
2019_02_28 12:07;16;3;1;timed;67;62;1;12;45;16;50;0.20999999999999999;0.76000000000000001;0.02;0.01;92;15;0;0;0.20999999999999999;0.79000000000000004;0.0;0.0;0;2.0014637785370724;63;48;20;1;die zeit fuer die probephase war etwas lang 
2019_02_28 12:07;16;3;1;timed;68;124;0;37;65;15;41;0.17999999999999999;0.45000000000000001;0.02;0.34999999999999998;40;7;98;30;0.070000000000000007;0.45000000000000001;0.45000000000000001;0.029999999999999898;0;1.450915631319731;63;48;20;1;die zeit fuer die probephase war etwas lang 
2019_02_28 12:07;16;3;1;timed;69;4;0;40;43;0;0;0.58999999999999997;0.40999999999999998;0.0;0.0;2;33;88;81;0.69999999999999996;0.14000000000000001;0.13;0.029999999999999999;0;1.5509724633884616;63;48;20;1;die zeit fuer die probephase war etwas lang 
2019_02_28 12:07;16;3;1;timed;70;94;0;84;86;93;39;0.78000000000000003;0.20000000000000001;0.01;0.0099999999999999603;9;83;0;0;0.46999999999999997;0.53000000000000003;0.0;0.0;0;1.5611130746474373;63;48;20;1;die zeit fuer die probephase war etwas lang 
2019_02_28 12:07;16;3;1;timed;71;140;0;36;32;26;27;0.39000000000000001;0.14999999999999999;0.19;0.27000000000000002;44;3;99;25;0.29999999999999999;0.34000000000000002;0.34000000000000002;0.0199999999999999;0;1.6111487069410941;63;48;20;1;die zeit fuer die probephase war etwas lang 
2019_02_28 12:07;16;3;1;timed;72;96;1;51;54;39;7;0.17000000000000001;0.26000000000000001;0.10000000000000001;0.46999999999999997;24;96;0;0;0.28000000000000003;0.71999999999999997;0.0;0.0;1;1.9512472586211516;63;48;20;1;die zeit fuer die probephase war etwas lang 
2019_02_28 12:07;16;3;1;timed;73;36;1;70;17;0;0;0.33000000000000002;0.67000000000000004;0.0;0.0;84;1;12;88;0.22;0.27000000000000002;0.14000000000000001;0.37;0;1.6711892847815761;63;48;20;1;die zeit fuer die probephase war etwas lang 
2019_02_28 12:07;16;3;1;timed;74;24;0;35;27;0;0;0.070000000000000007;0.93000000000000005;0.0;0.0;62;3;81;95;0.35999999999999999;0.55000000000000004;0.01;0.080000000000000002;0;1.751285937783905;63;48;20;1;die zeit fuer die probephase war etwas lang 
2019_02_28 12:07;16;3;1;timed;75;50;0;15;20;0;0;0.82999999999999996;0.17000000000000001;0.0;0.0;97;18;88;87;0.56999999999999995;0.39000000000000001;0.01;0.029999999999999999;1;2.091422334746312;63;48;20;1;die zeit fuer die probephase war etwas lang 
2019_02_28 12:07;16;4;1;control;1;23;1;54;40;0;0;0.93000000000000005;0.070000000000000007;0.0;0.0;36;23;71;86;0.02;0.41999999999999998;0.19;0.37;0;4.358260117680402;63;48;20;1;die zeit fuer die probephase war etwas lang 
2019_02_28 12:07;16;4;1;control;2;4;1;40;43;0;0;0.58999999999999997;0.40999999999999998;0.0;0.0;2;33;88;81;0.69999999999999996;0.14000000000000001;0.13;0.029999999999999999;0;2.5116521774816647;63;48;20;1;die zeit fuer die probephase war etwas lang 
2019_02_28 12:07;16;4;1;control;3;15;1;77;81;0;0;0.28000000000000003;0.71999999999999997;0.0;0.0;98;14;87;18;0.55000000000000004;0.23000000000000001;0.16;0.059999999999999901;1;1.7912964190036291;63;48;20;1;die zeit fuer die probephase war etwas lang 
2019_02_28 12:07;16;4;1;control;4;125;0;37;41;10;35;0.91000000000000003;0.040000000000000001;0.029999999999999999;0.02;7;13;91;93;0.26000000000000001;0.39000000000000001;0.16;0.19;0;2.261616096175203;63;48;20;1;die zeit fuer die probephase war etwas lang 
2019_02_28 12:07;16;4;1;control;5;103;0;38;49;89;50;0.89000000000000001;0.070000000000000007;0.01;0.029999999999999999;6;64;99;27;0.70999999999999996;0.17999999999999999;0.059999999999999998;0.050000000000000003;0;5.853987449478154;63;48;20;1;die zeit fuer die probephase war etwas lang 
2019_02_28 12:07;16;4;1;control;6;109;0;75;28;16;56;0.19;0.070000000000000007;0.059999999999999998;0.68000000000000005;3;50;98;44;0.5;0.02;0.34999999999999998;0.13;0;2.011426067960201;63;48;20;1;die zeit fuer die probephase war etwas lang 
2019_02_28 12:07;16;4;1;control;7;22;1;32;55;0;0;0.39000000000000001;0.60999999999999999;0.0;0.0;93;72;59;22;0.20000000000000001;0.11;0.14000000000000001;0.55000000000000004;1;1.3608124291604327;63;48;20;1;die zeit fuer die probephase war etwas lang 
2019_02_28 12:07;16;4;1;control;8;84;1;43;10;5;45;0.78000000000000003;0.13;0.059999999999999998;0.029999999999999999;87;1;0;0;0.57999999999999996;0.41999999999999998;0.0;0.0;0;2.201417722752012;63;48;20;1;die zeit fuer die probephase war etwas lang 
2019_02_28 12:07;16;4;1;control;9;111;1;51;36;48;27;0.93000000000000005;0.01;0.01;0.049999999999999899;31;78;30;53;0.55000000000000004;0.16;0.029999999999999999;0.26000000000000001;1;1.9013453677071084;63;48;20;1;die zeit fuer die probephase war etwas lang 
2019_02_28 12:07;16;4;1;control;10;8;1;50;36;0;0;0.080000000000000002;0.92000000000000004;0.0;0.0;6;19;84;29;0.54000000000000004;0.070000000000000007;0.17000000000000001;0.22;0;2.671922777664804;63;48;20;1;die zeit fuer die probephase war etwas lang 
2019_02_28 12:07;16;4;1;control;11;74;0;66;47;52;44;0.41999999999999998;0.26000000000000001;0.17999999999999999;0.14000000000000001;17;99;0;0;0.47999999999999998;0.52000000000000002;0.0;0.0;0;1.4710595845099306;63;48;20;1;die zeit fuer die probephase war etwas lang 
2019_02_28 12:07;16;4;1;control;12;118;0;62;52;65;68;0.40999999999999998;0.44;0.10000000000000001;0.0500000000000001;79;20;14;37;0.56999999999999995;0.23999999999999999;0.14000000000000001;0.050000000000000003;1;1.6910702453333215;63;48;20;1;die zeit fuer die probephase war etwas lang 
2019_02_28 12:07;16;4;1;control;13;142;1;98;65;64;84;0.88;0.070000000000000007;0.01;0.040000000000000001;5;68;60;16;0.46000000000000002;0.080000000000000002;0.27000000000000002;0.19;0;1.8416915814777894;63;48;20;1;die zeit fuer die probephase war etwas lang 
2019_02_28 12:07;16;4;1;control;14;46;1;5;19;0;0;0.32000000000000001;0.68000000000000005;0.0;0.0;88;38;97;66;0.60999999999999999;0.20000000000000001;0.040000000000000001;0.14999999999999999;1;1.8313303129816632;63;48;20;1;die zeit fuer die probephase war etwas lang 
2019_02_28 12:07;16;4;1;control;15;14;1;36;40;0;0;0.54000000000000004;0.46000000000000002;0.0;0.0;99;70;1;11;0.16;0.089999999999999997;0.080000000000000002;0.67000000000000004;0;2.0313054248963454;63;48;20;1;die zeit fuer die probephase war etwas lang 
2019_02_28 12:07;16;4;1;control;16;117;0;65;85;92;41;0.23000000000000001;0.17999999999999999;0.54000000000000004;0.050000000000000003;99;93;10;13;0.64000000000000001;0.16;0.01;0.19;0;2.171528609429515;63;48;20;1;die zeit fuer die probephase war etwas lang 
2019_02_28 12:07;16;4;1;control;17;92;1;90;86;65;94;0.16;0.34000000000000002;0.28000000000000003;0.22;79;22;0;0;0.35999999999999999;0.64000000000000001;0.0;0.0;0;1.4709245602407464;63;48;20;1;die zeit fuer die probephase war etwas lang 
2019_02_28 12:07;16;4;1;control;18;136;1;29;67;14;75;0.46000000000000002;0.29999999999999999;0.20999999999999999;0.0300000000000001;70;86;1;85;0.31;0.39000000000000001;0.27000000000000002;0.029999999999999898;0;2.2214965692292026;63;48;20;1;die zeit fuer die probephase war etwas lang 
2019_02_28 12:07;16;4;1;control;19;83;0;17;12;7;41;0.65000000000000002;0.19;0.089999999999999997;0.070000000000000007;6;84;0;0;0.72999999999999998;0.27000000000000002;0.0;0.0;0;2.521779639109809;63;48;20;1;die zeit fuer die probephase war etwas lang 
2019_02_28 12:07;16;4;1;control;20;28;0;47;30;0;0;0.97999999999999998;0.02;0.0;0.0;55;48;77;13;0.070000000000000007;0.26000000000000001;0.42999999999999999;0.23999999999999999;1;1.911230042225725;63;48;20;1;die zeit fuer die probephase war etwas lang 
2019_02_28 12:07;16;4;1;control;21;110;1;47;44;23;52;0.13;0.27000000000000002;0.040000000000000001;0.56000000000000005;99;2;30;22;0.28999999999999998;0.5;0.11;0.10000000000000001;0;1.9314259524999216;63;48;20;1;die zeit fuer die probephase war etwas lang 
2019_02_28 12:07;16;4;1;control;22;88;0;77;13;12;7;0.12;0.19;0.66000000000000003;0.029999999999999898;94;2;0;0;0.40999999999999998;0.58999999999999997;0.0;0.0;0;2.241674839751795;63;48;20;1;die zeit fuer die probephase war etwas lang 
2019_02_28 12:07;16;4;1;control;23;107;0;52;48;13;63;0.68000000000000005;0.19;0.050000000000000003;0.079999999999999905;54;91;33;3;0.19;0.17999999999999999;0.33000000000000002;0.29999999999999999;0;4.052655295548902;63;48;20;1;die zeit fuer die probephase war etwas lang 
2019_02_28 12:07;16;4;1;control;24;144;0;99;93;90;71;0.65000000000000002;0.32000000000000001;0.01;0.02;97;14;48;73;0.23000000000000001;0.46000000000000002;0.13;0.17999999999999999;0;2.691890974798298;63;48;20;1;die zeit fuer die probephase war etwas lang 
2019_02_28 12:07;16;4;1;control;25;90;0;27;44;50;72;0.68000000000000005;0.28999999999999998;0.02;0.0099999999999999707;6;96;0;0;0.46999999999999997;0.53000000000000003;0.0;0.0;0;3.272139650374811;63;48;20;1;die zeit fuer die probephase war etwas lang 
2019_02_28 12:07;16;4;1;control;26;7;0;49;29;0;0;0.95999999999999996;0.040000000000000001;0.0;0.0;23;99;64;25;0.68999999999999995;0.12;0.059999999999999998;0.13;1;1.7916498554495774;63;48;20;1;die zeit fuer die probephase war etwas lang 
2019_02_28 12:07;16;4;1;control;27;58;1;37;58;76;34;0.20999999999999999;0.57999999999999996;0.19;0.020000000000000101;86;5;0;0;0.47999999999999998;0.52000000000000002;0.0;0.0;0;1.4811014131682896;63;48;20;1;die zeit fuer die probephase war etwas lang 
2019_02_28 12:07;16;4;1;control;28;2;1;59;32;0;0;0.080000000000000002;0.92000000000000004;0.0;0.0;33;38;85;1;0.28999999999999998;0.050000000000000003;0.070000000000000007;0.58999999999999997;0;1.751245526718776;63;48;20;1;die zeit fuer die probephase war etwas lang 
2019_02_28 12:07;16;4;1;control;29;5;1;70;5;0;0;0.98999999999999999;0.01;0.0;0.0;92;87;47;1;0.44;0.02;0.16;0.38;1;3.1121926594278193;63;48;20;1;die zeit fuer die probephase war etwas lang 
2019_02_28 12:07;16;4;1;control;30;3;1;53;40;0;0;0.31;0.68999999999999995;0.0;0.0;96;24;7;88;0.11;0.27000000000000002;0.58999999999999997;0.029999999999999999;0;4.072929782889332;63;48;20;1;die zeit fuer die probephase war etwas lang 
2019_02_28 12:07;16;4;1;control;31;48;1;13;32;0;0;0.90000000000000002;0.10000000000000001;0.0;0.0;24;99;84;94;0.62;0.14999999999999999;0.20000000000000001;0.029999999999999999;1;1.5309641759122314;63;48;20;1;die zeit fuer die probephase war etwas lang 
2019_02_28 12:07;16;4;1;control;32;116;0;53;65;43;99;0.56999999999999995;0.37;0.050000000000000003;0.010000000000000101;57;72;11;87;0.67000000000000004;0.13;0.14999999999999999;0.050000000000000003;0;1.9714005127716518;63;48;20;1;die zeit fuer die probephase war etwas lang 
2019_02_28 12:07;16;4;1;control;33;112;0;70;44;98;64;0.02;0.75;0.12;0.11;33;2;63;85;0.23999999999999999;0.31;0.080000000000000002;0.37;0;1.851165089459755;63;48;20;1;die zeit fuer die probephase war etwas lang 
2019_02_28 12:07;16;4;1;control;34;94;0;84;86;93;39;0.78000000000000003;0.20000000000000001;0.01;0.0099999999999999603;9;83;0;0;0.46999999999999997;0.53000000000000003;0.0;0.0;0;1.3908898067256814;63;48;20;1;die zeit fuer die probephase war etwas lang 
2019_02_28 12:07;16;4;1;control;35;131;1;83;41;81;88;0.23999999999999999;0.58999999999999997;0.10000000000000001;0.070000000000000007;82;97;4;17;0.26000000000000001;0.46999999999999997;0.11;0.16;0;1.6512063344016497;63;48;20;1;die zeit fuer die probephase war etwas lang 
2019_02_28 12:07;16;4;1;control;36;100;1;27;14;59;52;0.02;0.95999999999999996;0.01;0.01;17;98;0;0;0.48999999999999999;0.51000000000000001;0.0;0.0;1;2.041323520074002;63;48;20;1;die zeit fuer die probephase war etwas lang 
2019_02_28 12:07;16;4;1;control;37;62;1;12;45;16;50;0.20999999999999999;0.76000000000000001;0.02;0.01;92;15;0;0;0.20999999999999999;0.79000000000000004;0.0;0.0;0;3.3921784706544713;63;48;20;1;die zeit fuer die probephase war etwas lang 
2019_02_28 12:07;16;4;1;control;38;99;1;8;24;15;73;0.56000000000000005;0.35999999999999999;0.070000000000000007;0.0099999999999999499;88;12;0;0;0.52000000000000002;0.47999999999999998;0.0;0.0;1;3.712440321516624;63;48;20;1;die zeit fuer die probephase war etwas lang 
2019_02_28 12:07;16;4;1;control;39;85;1;31;22;82;50;0.11;0.69999999999999996;0.01;0.17999999999999999;3;99;0;0;0.62;0.38;0.0;0.0;0;2.591710664479251;63;48;20;1;die zeit fuer die probephase war etwas lang 
2019_02_28 12:07;16;4;1;control;40;18;0;68;50;0;0;0.029999999999999999;0.96999999999999997;0.0;0.0;34;64;15;89;0.65000000000000002;0.029999999999999999;0.050000000000000003;0.27000000000000002;0;1.9613958879508573;63;48;20;1;die zeit fuer die probephase war etwas lang 
2019_02_28 12:07;16;4;1;control;41;63;1;56;78;42;36;0.93000000000000005;0.040000000000000001;0.01;0.0199999999999999;2;72;0;0;0.32000000000000001;0.68000000000000005;0.0;0.0;0;1.6710654858088674;63;48;20;1;die zeit fuer die probephase war etwas lang 
2019_02_28 12:07;16;4;1;control;42;49;1;21;30;0;0;0.53000000000000003;0.46999999999999997;0.0;0.0;93;99;89;25;0.44;0.02;0.11;0.42999999999999999;1;1.551128013912603;63;48;20;1;die zeit fuer die probephase war etwas lang 
2019_02_28 12:07;16;4;1;control;43;61;1;43;18;39;70;0.75;0.089999999999999997;0.089999999999999997;0.070000000000000007;16;66;0;0;0.64000000000000001;0.35999999999999999;0.0;0.0;0;1.8312854117975803;63;48;20;1;die zeit fuer die probephase war etwas lang 
2019_02_28 12:07;16;4;1;control;44;38;1;40;70;0;0;0.53000000000000003;0.46999999999999997;0.0;0.0;97;90;6;96;0.56999999999999995;0.070000000000000007;0.27000000000000002;0.089999999999999997;0;4.152849076222992;63;48;20;1;die zeit fuer die probephase war etwas lang 
2019_02_28 12:07;16;4;1;control;45;140;0;36;32;26;27;0.39000000000000001;0.14999999999999999;0.19;0.27000000000000002;44;3;99;25;0.29999999999999999;0.34000000000000002;0.34000000000000002;0.0199999999999999;0;1.6210494175993517;63;48;20;1;die zeit fuer die probephase war etwas lang 
2019_02_28 12:07;16;4;1;control;46;20;0;44;40;0;0;0.91000000000000003;0.089999999999999997;0.0;0.0;29;5;80;99;0.25;0.40000000000000002;0.26000000000000001;0.089999999999999997;1;1.711228631045742;63;48;20;1;die zeit fuer die probephase war etwas lang 
2019_02_28 12:07;16;4;1;control;47;93;1;87;81;73;98;0.80000000000000004;0.040000000000000001;0.14999999999999999;0.0099999999999999499;5;71;0;0;0.51000000000000001;0.48999999999999999;0.0;0.0;0;1.4809599744457955;63;48;20;1;die zeit fuer die probephase war etwas lang 
2019_02_28 12:07;16;4;1;control;48;12;0;53;68;0;0;0.31;0.68999999999999995;0.0;0.0;69;54;97;29;0.25;0.20999999999999999;0.20000000000000001;0.34000000000000002;1;2.4317168480138207;63;48;20;1;die zeit fuer die probephase war etwas lang 
2019_02_28 12:07;16;4;1;control;49;73;0;65;68;70;47;0.25;0.23000000000000001;0.20999999999999999;0.31;27;95;0;0;0.45000000000000001;0.55000000000000004;0.0;0.0;0;1.47089890242205;63;48;20;1;die zeit fuer die probephase war etwas lang 
2019_02_28 12:07;16;4;1;control;50;108;1;48;72;39;70;0.14000000000000001;0.66000000000000003;0.02;0.17999999999999999;81;44;98;8;0.59999999999999998;0.029999999999999999;0.050000000000000003;0.32000000000000001;0;1.7412485992445;63;48;20;1;die zeit fuer die probephase war etwas lang 
2019_02_28 12:07;16;4;1;control;51;16;1;64;53;0;0;0.65000000000000002;0.34999999999999998;0.0;0.0;29;17;81;46;0.10000000000000001;0.01;0.44;0.45000000000000001;1;2.311490404938013;63;48;20;1;die zeit fuer die probephase war etwas lang 
2019_02_28 12:07;16;4;1;control;52;147;0;39;43;76;28;0.14000000000000001;0.10000000000000001;0.10000000000000001;0.66000000000000003;6;31;68;85;0.27000000000000002;0.20000000000000001;0.22;0.31;0;1.651184525257122;63;48;20;1;die zeit fuer die probephase war etwas lang 
2019_02_28 12:07;16;4;1;control;53;135;0;48;60;41;51;0.14000000000000001;0.40000000000000002;0.089999999999999997;0.37;94;1;85;65;0.64000000000000001;0.29999999999999999;0.01;0.050000000000000003;0;1.6012146411212598;63;48;20;1;die zeit fuer die probephase war etwas lang 
2019_02_28 12:07;16;4;1;control;54;71;1;68;55;36;51;0.20000000000000001;0.75;0.02;0.029999999999999999;38;81;0;0;0.52000000000000002;0.47999999999999998;0.0;0.0;0;1.631040892789315;63;48;20;1;die zeit fuer die probephase war etwas lang 
2019_02_28 12:07;16;4;1;control;55;72;0;63;82;51;61;0.01;0.96999999999999997;0.01;0.01;92;12;0;0;0.89000000000000001;0.11;0.0;0.0;0;1.510718874338636;63;48;20;1;die zeit fuer die probephase war etwas lang 
2019_02_28 12:07;16;4;1;control;56;146;1;25;5;64;35;0.94999999999999996;0.02;0.01;0.02;47;97;12;79;0.20999999999999999;0.029999999999999999;0.02;0.73999999999999999;1;2.721768221381353;63;48;20;1;die zeit fuer die probephase war etwas lang 
2019_02_28 12:07;16;4;1;control;57;41;0;99;40;0;0;0.89000000000000001;0.11;0.0;0.0;1;67;52;46;0.51000000000000001;0.38;0.029999999999999999;0.080000000000000002;0;2.3514595129254303;63;48;20;1;die zeit fuer die probephase war etwas lang 
2019_02_28 12:07;16;4;1;control;58;19;1;22;53;0;0;0.13;0.87;0.0;0.0;4;93;96;65;0.46999999999999997;0.059999999999999998;0.26000000000000001;0.20999999999999999;0;1.9912715309183113;63;48;20;1;die zeit fuer die probephase war etwas lang 
2019_02_28 12:07;16;4;1;control;59;52;0;71;51;10;54;0.22;0.12;0.19;0.46999999999999997;91;1;0;0;0.29999999999999999;0.69999999999999996;0.0;0.0;0;1.7611192966669478;63;48;20;1;die zeit fuer die probephase war etwas lang 
2019_02_28 12:07;16;4;1;control;60;54;0;44;79;78;52;0.79000000000000004;0.19;0.01;0.0099999999999999603;96;1;0;0;0.28000000000000003;0.71999999999999997;0.0;0.0;0;2.191532727509184;63;48;20;1;die zeit fuer die probephase war etwas lang 
2019_02_28 12:07;16;4;1;control;61;51;0;52;23;43;16;0.60999999999999999;0.20999999999999999;0.01;0.17000000000000001;92;7;0;0;0.14999999999999999;0.84999999999999998;0.0;0.0;0;2.2716021190790343;63;48;20;1;die zeit fuer die probephase war etwas lang 
2019_02_28 12:07;16;4;1;control;62;87;0;10;30;63;4;0.56999999999999995;0.12;0.16;0.14999999999999999;86;2;0;0;0.42999999999999999;0.56999999999999995;0.0;0.0;0;2.3114772553053626;63;48;20;1;die zeit fuer die probephase war etwas lang 
2019_02_28 12:07;16;4;1;control;63;6;0;9;51;0;0;0.14999999999999999;0.84999999999999998;0.0;0.0;6;40;50;73;0.42999999999999999;0.26000000000000001;0.059999999999999998;0.25;1;1.9915399758428975;63;48;20;1;die zeit fuer die probephase war etwas lang 
2019_02_28 12:07;16;4;1;control;64;42;0;70;48;0;0;0.79000000000000004;0.20999999999999999;0.0;0.0;51;8;12;67;0.19;0.26000000000000001;0.28999999999999998;0.26000000000000001;0;2.5117410176790145;63;48;20;1;die zeit fuer die probephase war etwas lang 
2019_02_28 12:07;16;4;1;control;65;97;0;17;33;32;74;0.94999999999999996;0.01;0.029999999999999999;0.01;76;23;0;0;0.33000000000000002;0.67000000000000004;0.0;0.0;0;1.4310195968009793;63;48;20;1;die zeit fuer die probephase war etwas lang 
2019_02_28 12:07;16;4;1;control;66;56;0;28;84;37;41;0.68000000000000005;0.28000000000000003;0.02;0.0199999999999999;6;95;0;0;0.72999999999999998;0.27000000000000002;0.0;0.0;0;2.351509866392007;63;48;20;1;die zeit fuer die probephase war etwas lang 
2019_02_28 12:07;16;4;1;control;67;124;1;37;65;15;41;0.17999999999999999;0.45000000000000001;0.02;0.34999999999999998;40;7;98;30;0.070000000000000007;0.45000000000000001;0.45000000000000001;0.029999999999999898;0;1.4909546568615042;63;48;20;1;die zeit fuer die probephase war etwas lang 
2019_02_28 12:07;16;4;1;control;68;60;1;64;59;57;96;0.83999999999999997;0.13;0.02;0.01;83;6;0;0;0.54000000000000004;0.46000000000000002;0.0;0.0;0;1.5609963315728237;63;48;20;1;die zeit fuer die probephase war etwas lang 
2019_02_28 12:07;16;4;1;control;69;122;1;35;58;25;31;0.81999999999999995;0.070000000000000007;0.080000000000000002;0.029999999999999999;18;64;68;89;0.63;0.17000000000000001;0.11;0.089999999999999997;1;2.2514796543127886;63;48;20;1;die zeit fuer die probephase war etwas lang 
2019_02_28 12:07;16;4;1;control;70;30;1;33;30;0;0;0.71999999999999997;0.28000000000000003;0.0;0.0;9;88;1;14;0.55000000000000004;0.39000000000000001;0.01;0.049999999999999899;0;2.4316992082640354;63;48;20;1;die zeit fuer die probephase war etwas lang 
2019_02_28 12:07;16;4;1;control;71;81;1;67;38;52;65;0.27000000000000002;0.35999999999999999;0.01;0.35999999999999999;2;77;0;0;0.14000000000000001;0.85999999999999999;0.0;0.0;0;2.872001162299057;63;48;20;1;die zeit fuer die probephase war etwas lang 
2019_02_28 12:07;16;4;1;control;72;50;0;15;20;0;0;0.82999999999999996;0.17000000000000001;0.0;0.0;97;18;88;87;0.56999999999999995;0.39000000000000001;0.01;0.029999999999999999;1;2.75198511333474;63;48;20;1;die zeit fuer die probephase war etwas lang 
2019_02_28 12:07;16;4;1;control;73;21;0;64;28;0;0;0.080000000000000002;0.92000000000000004;0.0;0.0;50;1;88;13;0.57999999999999996;0.13;0.02;0.27000000000000002;0;2.3613085872220836;63;48;20;1;die zeit fuer die probephase war etwas lang 
2019_02_28 12:07;16;4;1;control;74;79;0;52;46;29;22;0.17999999999999999;0.51000000000000001;0.23999999999999999;0.070000000000000104;93;14;0;0;0.45000000000000001;0.55000000000000004;0.0;0.0;0;2.2315816954560432;63;48;20;1;die zeit fuer die probephase war etwas lang 
2019_02_28 12:07;16;4;1;control;75;69;1;54;34;64;49;0.34000000000000002;0.25;0.20999999999999999;0.20000000000000001;14;98;0;0;0.62;0.38;0.0;0.0;1;3.512337882679276;63;48;20;1;die zeit fuer die probephase war etwas lang 
