date;id;block;order;cond;trial;gameid;leftright;oa1;oa2;oa3;oa4;pa1;pa2;pa3;pa4;ob1;ob2;ob3;ob4;pb1;pb2;pb3;pb4;choice;rt;paytrial;payout;alter;geschlecht;comment
2019_03_04 11:47;23;0;0;practice;1;49;1;14;31;42;22;0.77000000000000002;0.089999999999999997;0.02;0.12;87;28;0;0;0.68000000000000005;0.32000000000000001;0.0;0.0;1;13.462414423705923;66;12;21;2;
2019_03_04 11:47;23;0;0;practice;2;73;0;99;88;95;28;0.83999999999999997;0.14000000000000001;0.01;0.01;90;93;10;74;0.080000000000000002;0.46000000000000002;0.34999999999999998;0.11;0;13.399489669265677;66;12;21;2;
2019_03_04 11:47;23;0;0;practice;3;1;0;67;36;0;0;0.14999999999999999;0.84999999999999998;0.0;0.0;1;4;81;77;0.25;0.54000000000000004;0.14000000000000001;0.070000000000000007;0;30.632105165592293;66;12;21;2;
2019_03_04 11:47;23;0;0;practice;4;29;0;66;40;92;49;0.46999999999999997;0.10000000000000001;0.34000000000000002;0.089999999999999997;8;94;0;0;0.44;0.56000000000000005;0.0;0.0;1;19.732454173827136;66;12;21;2;
2019_03_04 11:47;23;0;0;practice;5;60;1;39;93;27;78;0.85999999999999999;0.02;0.11;0.01;22;5;62;95;0.059999999999999998;0.56999999999999995;0.14000000000000001;0.23000000000000001;0;6.749836272098037;66;12;21;2;
2019_03_04 11:47;23;0;0;practice;6;56;0;47;52;64;10;0.77000000000000002;0.040000000000000001;0.11;0.080000000000000002;1;5;12;99;0.14000000000000001;0.28999999999999998;0.27000000000000002;0.29999999999999999;0;7.9329417975368415;66;12;21;2;
2019_03_04 11:47;23;0;0;practice;7;68;1;39;58;40;8;0.48999999999999999;0.44;0.02;0.050000000000000003;92;83;51;2;0.57999999999999996;0.13;0.02;0.27000000000000002;1;7.849688804730249;66;12;21;2;
2019_03_04 11:47;23;0;0;practice;8;20;1;32;11;0;0;0.40999999999999998;0.58999999999999997;0.0;0.0;1;86;42;65;0.45000000000000001;0.38;0.050000000000000003;0.12;1;10.432844939894494;66;12;21;2;
2019_03_04 11:47;23;0;0;practice;9;69;0;38;74;27;73;0.22;0.19;0.45000000000000001;0.14000000000000001;1;97;79;84;0.28000000000000003;0.45000000000000001;0.17000000000000001;0.10000000000000001;1;10.082854016287456;66;12;21;2;
2019_03_04 11:47;23;0;0;practice;10;62;0;65;52;74;55;0.16;0.12;0.14999999999999999;0.56999999999999995;72;86;2;68;0.12;0.53000000000000003;0.22;0.13;1;9.199540535564665;66;12;21;2;
2019_03_04 11:47;23;0;0;practice;11;31;0;72;59;40;92;0.59999999999999998;0.34999999999999998;0.02;0.029999999999999999;97;29;0;0;0.38;0.62;0.0;0.0;0;9.632882913221692;66;12;21;2;
2019_03_04 11:47;23;0;0;practice;12;75;1;21;86;27;62;0.88;0.040000000000000001;0.070000000000000007;0.0099999999999999794;13;3;49;87;0.28999999999999998;0.39000000000000001;0.070000000000000007;0.25;0;20.715704857442688;66;12;21;2;
2019_03_04 11:47;23;0;0;practice;13;34;0;57;23;66;79;0.56000000000000005;0.23000000000000001;0.13;0.079999999999999905;85;9;0;0;0.56000000000000005;0.44;0.0;0.0;1;6.033226661638764;66;12;21;2;
2019_03_04 11:47;23;0;0;practice;14;66;0;44;18;63;36;0.47999999999999998;0.10000000000000001;0.029999999999999999;0.39000000000000001;13;93;61;53;0.52000000000000002;0.45000000000000001;0.02;0.0099999999999999707;0;11.816193058450153;66;12;21;2;
2019_03_04 11:47;23;0;0;practice;15;27;0;68;43;98;36;0.54000000000000004;0.44;0.01;0.0099999999999999603;97;13;0;0;0.27000000000000002;0.72999999999999998;0.0;0.0;0;8.066400404364686;66;12;21;2;
2019_03_04 11:47;23;0;0;practice;16;11;0;10;44;0;0;0.48999999999999999;0.51000000000000001;0.0;0.0;88;12;54;50;0.17000000000000001;0.75;0.02;0.059999999999999998;1;12.56605595036126;66;12;21;2;
2019_03_04 11:47;23;0;0;practice;17;65;1;35;15;77;1;0.62;0.33000000000000002;0.029999999999999999;0.02;68;3;25;96;0.38;0.28000000000000003;0.28000000000000003;0.059999999999999901;0;16.582589421734156;66;12;21;2;
2019_03_04 11:47;23;0;0;practice;18;4;1;40;59;0;0;0.19;0.81000000000000005;0.0;0.0;10;88;13;45;0.56000000000000005;0.28999999999999998;0.01;0.14000000000000001;0;10.849459168730391;66;12;21;2;
2019_03_04 11:47;23;0;0;practice;19;43;1;11;17;21;44;0.16;0.46000000000000002;0.25;0.13;2;66;0;0;0.44;0.56000000000000005;0.0;0.0;0;5.932999527258289;66;12;21;2;
2019_03_04 11:47;23;0;0;practice;20;41;1;19;54;51;8;0.76000000000000001;0.070000000000000007;0.16;0.0099999999999999794;2;77;0;0;0.54000000000000004;0.46000000000000002;0.0;0.0;1;6.36631368149574;66;12;21;2;
2019_03_04 11:47;23;0;0;practice;21;19;1;25;73;0;0;0.69999999999999996;0.29999999999999999;0.0;0.0;87;84;1;86;0.040000000000000001;0.59999999999999998;0.28000000000000003;0.080000000000000002;0;5.433095102018342;66;12;21;2;
2019_03_04 11:47;23;0;0;practice;22;7;0;13;31;0;0;0.51000000000000001;0.48999999999999999;0.0;0.0;8;79;42;18;0.85999999999999999;0.089999999999999997;0.02;0.029999999999999999;0;17.18251700300607;66;12;21;2;
2019_03_04 11:47;23;0;0;practice;23;22;1;84;87;0;0;0.17000000000000001;0.82999999999999996;0.0;0.0;3;24;41;83;0.68000000000000005;0.11;0.10000000000000001;0.11;0;4.833052061303533;66;12;21;2;
2019_03_04 11:47;23;0;0;practice;24;21;0;59;69;0;0;0.34000000000000002;0.66000000000000003;0.0;0.0;64;18;5;24;0.14999999999999999;0.040000000000000001;0.51000000000000001;0.29999999999999999;0;4.999735084724307;66;12;21;2;
2019_03_04 11:47;23;0;0;practice;25;17;1;27;61;0;0;0.68999999999999995;0.31;0.0;0.0;3;91;69;43;0.29999999999999999;0.33000000000000002;0.27000000000000002;0.099999999999999895;0;5.699900704879838;66;12;21;2;
2019_03_04 11:47;23;0;0;practice;26;30;1;54;78;85;25;0.20999999999999999;0.60999999999999999;0.089999999999999997;0.090000000000000094;87;20;0;0;0.58999999999999997;0.40999999999999998;0.0;0.0;0;8.799534826737727;66;12;21;2;
2019_03_04 11:47;23;0;0;practice;27;45;0;37;40;75;23;0.54000000000000004;0.38;0.059999999999999998;0.02;1;90;0;0;0.28000000000000003;0.71999999999999997;0.0;0.0;0;4.683072491210623;66;12;21;2;
2019_03_04 11:47;23;0;0;practice;28;12;0;45;86;0;0;0.97999999999999998;0.02;0.0;0.0;6;23;95;81;0.14999999999999999;0.40999999999999998;0.050000000000000003;0.39000000000000001;0;5.0664337593152595;66;12;21;2;
2019_03_04 11:47;23;0;0;practice;29;2;1;41;60;0;0;0.97999999999999998;0.02;0.0;0.0;10;14;97;6;0.54000000000000004;0.17000000000000001;0.12;0.17000000000000001;0;5.299744257335988;66;12;21;2;
2019_03_04 11:47;23;0;0;practice;30;6;0;42;59;0;0;0.35999999999999999;0.64000000000000001;0.0;0.0;77;19;6;7;0.44;0.14999999999999999;0.17999999999999999;0.23000000000000001;0;10.232844490885327;66;12;21;2;
2019_03_04 11:47;23;0;0;practice;31;72;0;86;85;97;43;0.51000000000000001;0.14999999999999999;0.33000000000000002;0.0099999999999999499;72;29;10;90;0.01;0.11;0.65000000000000002;0.23000000000000001;0;5.999849902726055;66;12;21;2;
2019_03_04 11:47;23;0;0;practice;32;58;1;44;50;85;42;0.38;0.57999999999999996;0.02;0.02;37;88;19;12;0.20000000000000001;0.29999999999999999;0.46000000000000002;0.040000000000000001;0;11.766108035399157;66;12;21;2;
2019_03_04 11:47;23;0;0;practice;33;48;0;20;25;24;35;0.32000000000000001;0.13;0.48999999999999999;0.059999999999999901;44;76;0;0;0.29999999999999999;0.69999999999999996;0.0;0.0;1;11.232821078276174;66;12;21;2;
2019_03_04 11:47;23;0;0;practice;34;52;0;17;61;57;59;0.070000000000000007;0.050000000000000003;0.33000000000000002;0.55000000000000004;12;93;94;62;0.71999999999999997;0.16;0.080000000000000002;0.040000000000000001;0;10.599532453403299;66;12;21;2;
2019_03_04 11:47;23;0;0;practice;35;36;0;56;89;86;77;0.66000000000000003;0.080000000000000002;0.14999999999999999;0.11;29;91;0;0;0.40999999999999998;0.58999999999999997;0.0;0.0;0;18.08263432262902;66;12;21;2;
2019_03_04 11:47;23;0;0;practice;36;9;1;57;44;0;0;0.14999999999999999;0.84999999999999998;0.0;0.0;38;35;64;95;0.34000000000000002;0.45000000000000001;0.089999999999999997;0.12;0;8.13309747535095;66;12;21;2;
2019_03_04 11:47;23;0;0;practice;37;53;0;47;24;95;38;0.57999999999999996;0.28000000000000003;0.02;0.12;8;22;93;96;0.54000000000000004;0.34000000000000002;0.10000000000000001;0.0199999999999999;0;9.266179235388336;66;12;21;2;
2019_03_04 11:47;23;0;0;practice;38;47;1;91;99;90;78;0.93000000000000005;0.040000000000000001;0.02;0.0099999999999999499;10;87;0;0;0.23000000000000001;0.77000000000000002;0.0;0.0;0;6.049816259126601;66;12;21;2;
2019_03_04 11:47;23;0;0;practice;39;25;1;7;18;0;0;0.20999999999999999;0.79000000000000004;0.0;0.0;92;45;33;13;0.41999999999999998;0.17999999999999999;0.22;0.17999999999999999;1;7.399636880054459;66;12;21;2;
2019_03_04 11:47;23;0;0;practice;40;18;0;47;36;0;0;0.089999999999999997;0.91000000000000003;0.0;0.0;2;44;81;9;0.20000000000000001;0.25;0.51000000000000001;0.040000000000000001;1;10.532850777010026;66;12;21;2;
2019_03_04 11:47;23;0;0;practice;41;15;0;24;59;0;0;0.56999999999999995;0.42999999999999999;0.0;0.0;9;8;80;22;0.31;0.10000000000000001;0.55000000000000004;0.039999999999999897;1;18.965829778144325;66;12;21;2;
2019_03_04 11:47;23;0;0;practice;42;10;0;34;59;0;0;0.16;0.83999999999999997;0.0;0.0;21;61;96;7;0.19;0.01;0.5;0.29999999999999999;0;12.332724284777214;66;12;21;2;
2019_03_04 11:47;23;0;0;practice;43;74;0;36;46;10;12;0.11;0.19;0.65000000000000002;0.049999999999999899;92;24;79;19;0.51000000000000001;0.40999999999999998;0.02;0.059999999999999998;1;9.299565295201319;66;12;21;2;
2019_03_04 11:47;23;0;0;practice;44;40;0;29;65;30;41;0.70999999999999996;0.01;0.14999999999999999;0.13;2;59;0;0;0.32000000000000001;0.68000000000000005;0.0;0.0;0;8.932900424570107;66;12;21;2;
2019_03_04 11:47;23;0;0;practice;45;5;0;23;58;0;0;0.71999999999999997;0.28000000000000003;0.0;0.0;94;12;52;3;0.11;0.84999999999999998;0.029999999999999999;0.01;0;6.966357363651696;66;12;21;2;
2019_03_04 11:47;23;0;0;practice;46;28;1;37;83;75;8;0.83999999999999997;0.070000000000000007;0.01;0.080000000000000002;94;2;0;0;0.19;0.81000000000000005;0.0;0.0;0;11.399601600780443;66;12;21;2;
2019_03_04 11:47;23;0;0;practice;47;55;1;53;11;80;74;0.31;0.37;0.28000000000000003;0.039999999999999897;6;93;98;96;0.69999999999999996;0.22;0.050000000000000003;0.029999999999999999;0;27.215445073697992;66;12;21;2;
2019_03_04 11:47;23;0;0;practice;48;39;1;53;65;48;75;0.92000000000000004;0.029999999999999999;0.01;0.040000000000000001;16;83;0;0;0.31;0.68999999999999995;0.0;0.0;0;5.666351077525178;66;12;21;2;
2019_03_04 11:47;23;0;0;practice;49;67;1;74;31;10;77;0.11;0.070000000000000007;0.77000000000000002;0.050000000000000003;2;23;8;97;0.56999999999999995;0.01;0.059999999999999998;0.35999999999999999;0;9.216222500608637;66;12;21;2;
2019_03_04 11:47;23;0;0;practice;50;44;0;69;48;22;63;0.39000000000000001;0.40999999999999998;0.19;0.01;1;94;0;0;0.22;0.78000000000000003;0.0;0.0;0;4.999695956803407;66;12;21;2;
2019_03_04 11:47;23;0;0;practice;51;51;1;38;13;51;84;0.91000000000000003;0.070000000000000007;0.01;0.0099999999999999603;4;89;35;16;0.80000000000000004;0.089999999999999997;0.059999999999999998;0.050000000000000003;0;3.2832755715407984;66;12;21;2;
2019_03_04 11:47;23;0;0;practice;52;24;0;19;38;0;0;0.89000000000000001;0.11;0.0;0.0;45;76;95;57;0.29999999999999999;0.22;0.40000000000000002;0.080000000000000002;1;4.466431129405464;66;12;21;2;
2019_03_04 11:47;23;0;0;practice;53;57;0;39;68;59;91;0.73999999999999999;0.040000000000000001;0.14999999999999999;0.070000000000000007;9;22;40;84;0.29999999999999999;0.32000000000000001;0.040000000000000001;0.34000000000000002;0;9.732896126912237;66;12;21;2;
2019_03_04 11:47;23;0;0;practice;54;33;0;54;82;55;71;0.56000000000000005;0.20999999999999999;0.02;0.20999999999999999;13;99;0;0;0.5;0.5;0.0;0.0;0;4.966425035712746;66;12;21;2;
2019_03_04 11:47;23;0;0;practice;55;3;1;20;70;0;0;0.13;0.87;0.0;0.0;95;19;80;73;0.31;0.57999999999999996;0.029999999999999999;0.080000000000000002;0;4.999715841484431;66;12;21;2;
2019_03_04 11:47;23;0;0;practice;56;50;0;17;12;21;14;0.55000000000000004;0.34000000000000002;0.059999999999999998;0.049999999999999899;13;93;0;0;0.28999999999999998;0.70999999999999996;0.0;0.0;1;3.949746598596903;66;12;21;2;
2019_03_04 11:47;23;0;0;practice;57;71;0;94;87;26;75;0.71999999999999997;0.23999999999999999;0.02;0.02;90;27;12;83;0.16;0.73999999999999999;0.02;0.080000000000000002;0;6.566604382711375;66;12;21;2;
2019_03_04 11:47;23;0;0;practice;58;8;0;20;44;0;0;0.26000000000000001;0.73999999999999999;0.0;0.0;99;3;69;24;0.20999999999999999;0.60999999999999999;0.12;0.060000000000000102;0;4.799753558236262;66;12;21;2;
2019_03_04 11:47;23;0;0;practice;59;63;0;24;82;6;96;0.91000000000000003;0.070000000000000007;0.01;0.0099999999999999603;73;10;71;22;0.31;0.51000000000000001;0.050000000000000003;0.13;0;10.049525044756592;66;12;21;2;
2019_03_04 11:47;23;0;0;practice;60;64;1;44;60;96;45;0.53000000000000003;0.10000000000000001;0.029999999999999999;0.34000000000000002;88;20;43;31;0.47999999999999998;0.38;0.050000000000000003;0.089999999999999997;1;8.316168042236313;66;12;21;2;
2019_03_04 11:47;23;0;0;practice;61;38;1;51;89;10;60;0.57999999999999996;0.029999999999999999;0.080000000000000002;0.31;8;84;0;0;0.33000000000000002;0.67000000000000004;0.0;0.0;0;6.933079386704776;66;12;21;2;
2019_03_04 11:47;23;0;0;practice;62;35;0;84;95;4;35;0.89000000000000001;0.050000000000000003;0.01;0.050000000000000003;5;98;0;0;0.19;0.81000000000000005;0.0;0.0;1;7.699588322944692;66;12;21;2;
2019_03_04 11:47;23;0;0;practice;63;26;0;24;46;74;59;0.29999999999999999;0.11;0.25;0.34000000000000002;91;6;0;0;0.28999999999999998;0.70999999999999996;0.0;0.0;0;6.2331434025509225;66;12;21;2;
2019_03_04 11:47;23;0;0;practice;64;37;1;50;66;99;12;0.26000000000000001;0.71999999999999997;0.01;0.01;22;90;0;0;0.37;0.63;0.0;0.0;0;7.266320673206792;66;12;21;2;
2019_03_04 11:47;23;0;0;practice;65;59;0;13;27;48;51;0.56999999999999995;0.13;0.13;0.17000000000000001;8;37;97;1;0.65000000000000002;0.16;0.14999999999999999;0.040000000000000001;1;7.199660485095592;66;12;21;2;
2019_03_04 11:47;23;0;0;practice;66;23;1;99;93;0;0;0.57999999999999996;0.41999999999999998;0.0;0.0;64;10;80;81;0.13;0.55000000000000004;0.02;0.29999999999999999;0;4.432989264196294;66;12;21;2;
2019_03_04 11:47;23;0;0;practice;67;42;0;23;45;91;22;0.72999999999999998;0.02;0.20000000000000001;0.050000000000000003;2;86;0;0;0.40999999999999998;0.58999999999999997;0.0;0.0;0;5.199853238220385;66;12;21;2;
2019_03_04 11:47;23;0;0;practice;68;32;1;21;86;16;78;0.45000000000000001;0.41999999999999998;0.050000000000000003;0.080000000000000099;95;9;0;0;0.42999999999999999;0.56999999999999995;0.0;0.0;0;11.566120735938966;66;12;21;2;
2019_03_04 11:47;23;0;0;practice;69;61;0;51;48;56;88;0.91000000000000003;0.02;0.01;0.059999999999999998;78;21;14;82;0.55000000000000004;0.29999999999999999;0.070000000000000007;0.080000000000000002;1;2.083222845061755;66;12;21;2;
2019_03_04 11:47;23;0;0;practice;70;13;0;15;25;0;0;0.29999999999999999;0.69999999999999996;0.0;0.0;3;43;35;73;0.44;0.40000000000000002;0.01;0.14999999999999999;0;9.432881502050805;66;12;21;2;
2019_03_04 11:47;23;0;0;practice;71;14;0;92;56;0;0;0.11;0.89000000000000001;0.0;0.0;97;31;51;4;0.58999999999999997;0.22;0.080000000000000002;0.11;1;6.466346459146735;66;12;21;2;
2019_03_04 11:47;23;0;0;practice;72;54;1;69;80;22;55;0.27000000000000002;0.31;0.059999999999999998;0.35999999999999999;52;2;49;90;0.059999999999999998;0.33000000000000002;0.20000000000000001;0.40999999999999998;0;11.182764920085901;66;12;21;2;
2019_03_04 11:47;23;0;0;practice;73;46;0;79;57;98;81;0.67000000000000004;0.070000000000000007;0.20999999999999999;0.050000000000000003;1;76;0;0;0.56000000000000005;0.44;0.0;0.0;0;4.6330968339098035;66;12;21;2;
2019_03_04 11:47;23;0;0;practice;74;70;0;21;42;14;63;0.96999999999999997;0.01;0.01;0.01;70;2;6;76;0.23999999999999999;0.42999999999999999;0.01;0.32000000000000001;1;7.699630658073147;66;12;21;2;
2019_03_04 11:47;23;0;0;practice;75;16;0;50;42;0;0;0.32000000000000001;0.68000000000000005;0.0;0.0;97;2;56;31;0.35999999999999999;0.16;0.16;0.32000000000000001;1;7.566378595358401;66;12;21;2;
2019_03_04 11:47;23;1;0;control;1;91;0;74;81;86;48;0.93000000000000005;0.02;0.01;0.039999999999999897;7;64;0;0;0.13;0.87;0.0;0.0;0;9.103850636534844;66;12;21;2;
2019_03_04 11:47;23;1;0;control;2;125;0;37;41;10;35;0.91000000000000003;0.040000000000000001;0.029999999999999999;0.02;7;13;91;93;0.26000000000000001;0.39000000000000001;0.16;0.19;0;7.533007288697263;66;12;21;2;
2019_03_04 11:47;23;1;0;control;3;78;0;74;36;34;3;0.14999999999999999;0.64000000000000001;0.13;0.080000000000000002;1;83;0;0;0.41999999999999998;0.57999999999999996;0.0;0.0;0;15.065968393619187;66;12;21;2;
2019_03_04 11:47;23;1;0;control;4;105;1;49;74;63;58;0.84999999999999998;0.080000000000000002;0.02;0.050000000000000003;97;5;86;8;0.25;0.52000000000000002;0.070000000000000007;0.16;0;7.232958026002962;66;12;21;2;
2019_03_04 11:47;23;1;0;control;5;121;1;42;51;47;70;0.41999999999999998;0.17000000000000001;0.23999999999999999;0.17000000000000001;21;76;48;9;0.14999999999999999;0.34000000000000002;0.40999999999999998;0.10000000000000001;0;12.116174328362831;66;12;21;2;
2019_03_04 11:47;23;1;0;control;6;24;1;35;27;0;0;0.070000000000000007;0.93000000000000005;0.0;0.0;62;3;81;95;0.35999999999999999;0.55000000000000004;0.01;0.080000000000000002;0;6.099697945270236;66;12;21;2;
2019_03_04 11:47;23;1;0;control;7;79;0;52;46;29;22;0.17999999999999999;0.51000000000000001;0.23999999999999999;0.070000000000000104;93;14;0;0;0.45000000000000001;0.55000000000000004;0.0;0.0;0;10.432978680415545;66;12;21;2;
2019_03_04 11:47;23;1;0;control;8;93;0;87;81;73;98;0.80000000000000004;0.040000000000000001;0.14999999999999999;0.0099999999999999499;5;71;0;0;0.51000000000000001;0.48999999999999999;0.0;0.0;0;10.899488386383382;66;12;21;2;
2019_03_04 11:47;23;1;0;control;9;63;0;56;78;42;36;0.93000000000000005;0.040000000000000001;0.01;0.0199999999999999;2;72;0;0;0.32000000000000001;0.68000000000000005;0.0;0.0;0;7.999617059516822;66;12;21;2;
2019_03_04 11:47;23;1;0;control;10;72;1;63;82;51;61;0.01;0.96999999999999997;0.01;0.01;92;12;0;0;0.89000000000000001;0.11;0.0;0.0;0;9.399568566552261;66;12;21;2;
2019_03_04 11:47;23;1;0;control;11;51;0;52;23;43;16;0.60999999999999999;0.20999999999999999;0.01;0.17000000000000001;92;7;0;0;0.14999999999999999;0.84999999999999998;0.0;0.0;0;8.233085993550048;66;12;21;2;
2019_03_04 11:47;23;1;0;control;12;145;1;91;89;90;74;0.57999999999999996;0.29999999999999999;0.11;0.010000000000000101;2;75;84;39;0.32000000000000001;0.27000000000000002;0.39000000000000001;0.0199999999999999;0;6.016333983114237;66;12;21;2;
2019_03_04 11:47;23;1;0;control;13;32;1;19;81;0;0;0.93000000000000005;0.070000000000000007;0.0;0.0;1;65;41;68;0.45000000000000001;0.050000000000000003;0.059999999999999998;0.44;0;8.599573826371852;66;12;21;2;
2019_03_04 11:47;23;1;0;control;14;124;0;37;65;15;41;0.17999999999999999;0.45000000000000001;0.02;0.34999999999999998;40;7;98;30;0.070000000000000007;0.45000000000000001;0.45000000000000001;0.029999999999999898;0;9.182899943489247;66;12;21;2;
2019_03_04 11:47;23;1;0;control;15;60;1;64;59;57;96;0.83999999999999997;0.13;0.02;0.01;83;6;0;0;0.54000000000000004;0.46000000000000002;0.0;0.0;0;6.499800511741341;66;12;21;2;
2019_03_04 11:47;23;1;0;control;16;17;0;81;52;0;0;0.059999999999999998;0.93999999999999995;0.0;0.0;34;3;69;41;0.01;0.22;0.75;0.02;0;6.716330262754127;66;12;21;2;
2019_03_04 11:47;23;1;0;control;17;2;1;59;32;0;0;0.080000000000000002;0.92000000000000004;0.0;0.0;33;38;85;1;0.28999999999999998;0.050000000000000003;0.070000000000000007;0.58999999999999997;0;5.799832134800454;66;12;21;2;
2019_03_04 11:47;23;1;0;control;18;146;1;25;5;64;35;0.94999999999999996;0.02;0.01;0.02;47;97;12;79;0.20999999999999999;0.029999999999999999;0.02;0.73999999999999999;1;7.11628209051014;66;12;21;2;
2019_03_04 11:47;23;1;0;control;19;36;0;70;17;0;0;0.33000000000000002;0.67000000000000004;0.0;0.0;84;1;12;88;0.22;0.27000000000000002;0.14000000000000001;0.37;0;10.766212911059483;66;12;21;2;
2019_03_04 11:47;23;1;0;control;20;35;1;33;37;0;0;0.88;0.12;0.0;0.0;63;4;79;98;0.16;0.46000000000000002;0.17000000000000001;0.20999999999999999;0;6.433027429955473;66;12;21;2;
2019_03_04 11:47;23;1;0;control;21;47;0;2;40;0;0;0.45000000000000001;0.55000000000000004;0.0;0.0;93;89;11;56;0.58999999999999997;0.070000000000000007;0.28000000000000003;0.059999999999999998;1;8.749573281145786;66;12;21;2;
2019_03_04 11:47;23;1;0;control;22;92;0;90;86;65;94;0.16;0.34000000000000002;0.28000000000000003;0.22;79;22;0;0;0.35999999999999999;0.64000000000000001;0.0;0.0;0;6.433135512823355;66;12;21;2;
2019_03_04 11:47;23;1;0;control;23;64;0;48;39;34;19;0.46000000000000002;0.5;0.02;0.02;13;92;0;0;0.68999999999999995;0.31;0.0;0.0;0;10.399448296298942;66;12;21;2;
2019_03_04 11:47;23;1;0;control;24;3;1;53;40;0;0;0.31;0.68999999999999995;0.0;0.0;96;24;7;88;0.11;0.27000000000000002;0.58999999999999997;0.029999999999999999;0;2.8331925369584496;66;12;21;2;
2019_03_04 11:47;23;1;0;control;25;104;1;55;85;93;3;0.87;0.02;0.089999999999999997;0.02;1;2;90;8;0.35999999999999999;0.070000000000000007;0.40000000000000002;0.17000000000000001;0;3.799810646514743;66;12;21;2;
2019_03_04 11:47;23;1;0;control;26;16;0;64;53;0;0;0.65000000000000002;0.34999999999999998;0.0;0.0;29;17;81;46;0.10000000000000001;0.01;0.44;0.45000000000000001;0;12.799535147456481;66;12;21;2;
2019_03_04 11:47;23;1;0;control;27;25;1;50;53;0;0;0.82999999999999996;0.17000000000000001;0.0;0.0;83;16;97;4;0.45000000000000001;0.29999999999999999;0.11;0.14000000000000001;0;8.299623024922766;66;12;21;2;
2019_03_04 11:47;23;1;0;control;28;134;1;57;48;50;55;0.02;0.62;0.17999999999999999;0.17999999999999999;80;96;15;18;0.23999999999999999;0.35999999999999999;0.33000000000000002;0.070000000000000007;0;8.682923035376007;66;12;21;2;
2019_03_04 11:47;23;1;0;control;29;4;0;40;43;0;0;0.58999999999999997;0.40999999999999998;0.0;0.0;2;33;88;81;0.69999999999999996;0.14000000000000001;0.13;0.029999999999999999;0;5.899710645810046;66;12;21;2;
2019_03_04 11:47;23;1;0;control;30;68;0;84;27;55;62;0.01;0.050000000000000003;0.40999999999999998;0.53000000000000003;9;82;0;0;0.37;0.63;0.0;0.0;0;8.066418364722267;66;12;21;2;
2019_03_04 11:47;23;1;0;control;31;88;0;77;13;12;7;0.12;0.19;0.66000000000000003;0.029999999999999898;94;2;0;0;0.40999999999999998;0.58999999999999997;0.0;0.0;1;9.766355952480808;66;12;21;2;
2019_03_04 11:47;23;1;0;control;32;100;1;27;14;59;52;0.02;0.95999999999999996;0.01;0.01;17;98;0;0;0.48999999999999999;0.51000000000000001;0.0;0.0;1;7.299824758225441;66;12;21;2;
2019_03_04 11:47;23;1;0;control;33;147;1;39;43;76;28;0.14000000000000001;0.10000000000000001;0.10000000000000001;0.66000000000000003;6;31;68;85;0.27000000000000002;0.20000000000000001;0.22;0.31;0;26.94879117171513;66;12;21;2;
2019_03_04 11:47;23;1;0;control;34;40;1;45;49;0;0;0.68999999999999995;0.31;0.0;0.0;2;92;65;73;0.23999999999999999;0.59999999999999998;0.11;0.050000000000000003;0;4.6664136180570495;66;12;21;2;
2019_03_04 11:47;23;1;0;control;35;117;1;65;85;92;41;0.23000000000000001;0.17999999999999999;0.54000000000000004;0.050000000000000003;99;93;10;13;0.64000000000000001;0.16;0.01;0.19;0;10.716396331212309;66;12;21;2;
2019_03_04 11:47;23;1;0;control;36;133;1;59;88;60;36;0.67000000000000004;0.070000000000000007;0.12;0.14000000000000001;7;91;66;61;0.25;0.68999999999999995;0.01;0.0500000000000001;0;6.583047090132823;66;12;21;2;
2019_03_04 11:47;23;1;0;control;37;90;1;27;44;50;72;0.68000000000000005;0.28999999999999998;0.02;0.0099999999999999707;6;96;0;0;0.46999999999999997;0.53000000000000003;0.0;0.0;0;5.499793776607476;66;12;21;2;
2019_03_04 11:47;23;1;0;control;38;81;0;67;38;52;65;0.27000000000000002;0.35999999999999999;0.01;0.35999999999999999;2;77;0;0;0.14000000000000001;0.85999999999999999;0.0;0.0;0;6.799762859134717;66;12;21;2;
2019_03_04 11:47;23;1;0;control;39;11;1;17;36;0;0;0.14000000000000001;0.85999999999999999;0.0;0.0;19;41;34;95;0.88;0.02;0.050000000000000003;0.050000000000000003;1;6.766507653357621;66;12;21;2;
2019_03_04 11:47;23;1;0;control;40;44;1;79;74;0;0;0.71999999999999997;0.28000000000000003;0.0;0.0;3;67;15;36;0.41999999999999998;0.53000000000000003;0.02;0.029999999999999999;0;5.03328952288939;66;12;21;2;
2019_03_04 11:47;23;1;0;control;41;37;0;14;98;0;0;0.93000000000000005;0.070000000000000007;0.0;0.0;41;2;87;66;0.17999999999999999;0.48999999999999999;0.32000000000000001;0.010000000000000101;0;5.666520418040818;66;12;21;2;
2019_03_04 11:47;23;1;0;control;42;89;0;26;41;13;56;0.059999999999999998;0.40999999999999998;0.050000000000000003;0.47999999999999998;5;97;0;0;0.37;0.63;0.0;0.0;0;6.982989296269807;66;12;21;2;
2019_03_04 11:47;23;1;0;control;43;6;0;9;51;0;0;0.14999999999999999;0.84999999999999998;0.0;0.0;6;40;50;73;0.42999999999999999;0.26000000000000001;0.059999999999999998;0.25;0;9.49965073518797;66;12;21;2;
2019_03_04 11:47;23;1;0;control;44;136;0;29;67;14;75;0.46000000000000002;0.29999999999999999;0.20999999999999999;0.0300000000000001;70;86;1;85;0.31;0.39000000000000001;0.27000000000000002;0.029999999999999898;0;11.882934388888316;66;12;21;2;
2019_03_04 11:47;23;1;0;control;45;48;0;13;32;0;0;0.90000000000000002;0.10000000000000001;0.0;0.0;24;99;84;94;0.62;0.14999999999999999;0.20000000000000001;0.029999999999999999;1;5.999850864887776;66;12;21;2;
2019_03_04 11:47;23;1;0;control;46;96;1;51;54;39;7;0.17000000000000001;0.26000000000000001;0.10000000000000001;0.46999999999999997;24;96;0;0;0.28000000000000003;0.71999999999999997;0.0;0.0;1;8.082944780238904;66;12;21;2;
2019_03_04 11:47;23;1;0;control;47;56;0;28;84;37;41;0.68000000000000005;0.28000000000000003;0.02;0.0199999999999999;6;95;0;0;0.72999999999999998;0.27000000000000002;0.0;0.0;0;3.199768567963474;66;12;21;2;
2019_03_04 11:47;23;1;0;control;48;84;1;43;10;5;45;0.78000000000000003;0.13;0.059999999999999998;0.029999999999999999;87;1;0;0;0.57999999999999996;0.41999999999999998;0.0;0.0;0;5.399747207966357;66;12;21;2;
2019_03_04 11:47;23;1;0;control;49;31;0;10;59;0;0;0.23999999999999999;0.76000000000000001;0.0;0.0;1;79;53;73;0.23000000000000001;0.58999999999999997;0.050000000000000003;0.13;1;12.616207683313405;66;12;21;2;
2019_03_04 11:47;23;1;0;control;50;142;0;98;65;64;84;0.88;0.070000000000000007;0.01;0.040000000000000001;5;68;60;16;0.46000000000000002;0.080000000000000002;0.27000000000000002;0.19;0;5.033097411207564;66;12;21;2;
2019_03_04 11:47;23;1;0;control;51;122;1;35;58;25;31;0.81999999999999995;0.070000000000000007;0.080000000000000002;0.029999999999999999;18;64;68;89;0.63;0.17000000000000001;0.11;0.089999999999999997;0;11.749389828921267;66;12;21;2;
2019_03_04 11:47;23;1;0;control;52;39;1;14;33;0;0;0.78000000000000003;0.22;0.0;0.0;93;84;1;25;0.14000000000000001;0.23999999999999999;0.39000000000000001;0.23000000000000001;0;8.39960128005987;66;12;21;2;
2019_03_04 11:47;23;1;0;control;53;141;1;93;28;60;91;0.81999999999999995;0.10000000000000001;0.01;0.070000000000000007;14;85;7;89;0.45000000000000001;0.070000000000000007;0.23999999999999999;0.23999999999999999;0;6.133170599665391;66;12;21;2;
2019_03_04 11:47;23;1;0;control;54;28;0;47;30;0;0;0.97999999999999998;0.02;0.0;0.0;55;48;77;13;0.070000000000000007;0.26000000000000001;0.42999999999999999;0.23999999999999999;0;6.866364996802076;66;12;21;2;
2019_03_04 11:47;23;1;0;control;55;34;0;32;48;0;0;0.28000000000000003;0.71999999999999997;0.0;0.0;97;83;7;62;0.040000000000000001;0.54000000000000004;0.35999999999999999;0.059999999999999901;0;7.099705642567642;66;12;21;2;
2019_03_04 11:47;23;1;0;control;56;38;1;40;70;0;0;0.53000000000000003;0.46999999999999997;0.0;0.0;97;90;6;96;0.56999999999999995;0.070000000000000007;0.27000000000000002;0.089999999999999997;0;14.266151653409906;66;12;21;2;
2019_03_04 11:47;23;1;0;control;57;12;1;53;68;0;0;0.31;0.68999999999999995;0.0;0.0;69;54;97;29;0.25;0.20999999999999999;0.20000000000000001;0.34000000000000002;0;2.166507589214234;66;12;21;2;
2019_03_04 11:47;23;1;0;control;58;95;0;93;88;68;85;0.83999999999999997;0.14000000000000001;0.01;0.01;2;82;0;0;0.41999999999999998;0.57999999999999996;0.0;0.0;0;6.299731749229977;66;12;21;2;
2019_03_04 11:47;23;1;0;control;59;54;0;44;79;78;52;0.79000000000000004;0.19;0.01;0.0099999999999999603;96;1;0;0;0.28000000000000003;0.71999999999999997;0.0;0.0;0;2.866432027423798;66;12;21;2;
2019_03_04 11:47;23;1;0;control;60;13;1;52;56;0;0;0.46999999999999997;0.53000000000000003;0.0;0.0;94;71;27;2;0.089999999999999997;0.31;0.57999999999999996;0.020000000000000101;0;6.516469968679303;66;12;21;2;
2019_03_04 11:47;23;1;0;control;61;62;1;12;45;16;50;0.20999999999999999;0.76000000000000001;0.02;0.01;92;15;0;0;0.20999999999999999;0.79000000000000004;0.0;0.0;1;11.432876370519807;66;12;21;2;
2019_03_04 11:47;23;1;0;control;62;55;0;74;55;47;48;0.60999999999999999;0.31;0.070000000000000007;0.01;97;6;0;0;0.42999999999999999;0.56999999999999995;0.0;0.0;0;3.8332146666853077;66;12;21;2;
2019_03_04 11:47;23;1;0;control;63;77;0;24;17;99;41;0.17999999999999999;0.13;0.10000000000000001;0.58999999999999997;12;97;0;0;0.59999999999999998;0.40000000000000002;0.0;0.0;0;6.083289234242329;66;12;21;2;
2019_03_04 11:47;23;1;0;control;64;85;1;31;22;82;50;0.11;0.69999999999999996;0.01;0.17999999999999999;3;99;0;0;0.62;0.38;0.0;0.0;0;12.816072146757506;66;12;21;2;
2019_03_04 11:47;23;1;0;control;65;129;0;12;29;81;36;0.17999999999999999;0.79000000000000004;0.01;0.02;5;19;95;92;0.47999999999999998;0.26000000000000001;0.13;0.13;0;4.433121401112658;66;12;21;2;
2019_03_04 11:47;23;1;0;control;66;140;0;36;32;26;27;0.39000000000000001;0.14999999999999999;0.19;0.27000000000000002;44;3;99;25;0.29999999999999999;0.34000000000000002;0.34000000000000002;0.0199999999999999;0;6.882984421314177;66;12;21;2;
2019_03_04 11:47;23;1;0;control;67;7;1;49;29;0;0;0.95999999999999996;0.040000000000000001;0.0;0.0;23;99;64;25;0.68999999999999995;0.12;0.059999999999999998;0.13;0;6.233020887253588;66;12;21;2;
2019_03_04 11:47;23;1;0;control;68;103;0;38;49;89;50;0.89000000000000001;0.070000000000000007;0.01;0.029999999999999999;6;64;99;27;0.70999999999999996;0.17999999999999999;0.059999999999999998;0.050000000000000003;0;7.3663457535622;66;12;21;2;
2019_03_04 11:47;23;1;0;control;69;110;0;47;44;23;52;0.13;0.27000000000000002;0.040000000000000001;0.56000000000000005;99;2;30;22;0.28999999999999998;0.5;0.11;0.10000000000000001;0;3.0165007578616496;66;12;21;2;
2019_03_04 11:47;23;1;0;control;70;75;0;67;80;36;81;0.81999999999999995;0.080000000000000002;0.059999999999999998;0.040000000000000001;3;97;0;0;0.32000000000000001;0.68000000000000005;0.0;0.0;0;4.366464420210832;66;12;21;2;
2019_03_04 11:47;23;1;0;control;71;130;0;37;79;23;95;0.94999999999999996;0.029999999999999999;0.01;0.01;94;4;58;49;0.46000000000000002;0.5;0.029999999999999999;0.01;0;3.2498048414709046;66;12;21;2;
2019_03_04 11:47;23;1;0;control;72;80;1;47;39;45;10;0.13;0.76000000000000001;0.059999999999999998;0.050000000000000003;2;87;0;0;0.48999999999999999;0.51000000000000001;0.0;0.0;0;3.599874341642135;66;12;21;2;
2019_03_04 11:47;23;1;0;control;73;113;1;85;65;39;64;0.44;0.34000000000000002;0.13;0.089999999999999997;87;2;4;35;0.67000000000000004;0.17000000000000001;0.11;0.049999999999999899;0;5.34968623896566;66;12;21;2;
2019_03_04 11:47;23;1;0;control;74;66;0;89;23;27;15;0.070000000000000007;0.54000000000000004;0.17000000000000001;0.22;9;73;0;0;0.72999999999999998;0.27000000000000002;0.0;0.0;0;3.7664617903010367;66;12;21;2;
2019_03_04 11:47;23;1;0;control;75;99;0;8;24;15;73;0.56000000000000005;0.35999999999999999;0.070000000000000007;0.0099999999999999499;88;12;0;0;0.52000000000000002;0.47999999999999998;0.0;0.0;1;7.0663420332020905;66;12;21;2;
2019_03_04 11:47;23;2;0;timed;1;26;0;76;41;0;0;0.57999999999999996;0.41999999999999998;0.0;0.0;61;79;84;2;0.13;0.029999999999999999;0.67000000000000004;0.17000000000000001;1;4.324781958051972;66;12;21;2;
2019_03_04 11:47;23;2;0;timed;2;38;0;40;70;0;0;0.53000000000000003;0.46999999999999997;0.0;0.0;97;90;6;96;0.56999999999999995;0.070000000000000007;0.27000000000000002;0.089999999999999997;0;3.3164810656144255;66;12;21;2;
2019_03_04 11:47;23;2;0;timed;3;102;1;40;56;53;17;0.28000000000000003;0.26000000000000001;0.14999999999999999;0.31;1;76;29;62;0.68000000000000005;0.23000000000000001;0.050000000000000003;0.039999999999999897;0;2.516638347031403;66;12;21;2;
2019_03_04 11:47;23;2;0;timed;4;133;1;59;88;60;36;0.67000000000000004;0.070000000000000007;0.12;0.14000000000000001;7;91;66;61;0.25;0.68999999999999995;0.01;0.0500000000000001;0;3.2499818792821316;66;12;21;2;
2019_03_04 11:47;23;2;0;timed;5;17;0;81;52;0;0;0.059999999999999998;0.93999999999999995;0.0;0.0;34;3;69;41;0.01;0.22;0.75;0.02;0;4.266400211932705;66;12;21;2;
2019_03_04 11:47;23;2;0;timed;6;111;0;51;36;48;27;0.93000000000000005;0.01;0.01;0.049999999999999899;31;78;30;53;0.55000000000000004;0.16;0.029999999999999999;0.26000000000000001;0;4.099809235343855;66;12;21;2;
2019_03_04 11:47;23;2;0;timed;7;110;1;47;44;23;52;0.13;0.27000000000000002;0.040000000000000001;0.56000000000000005;99;2;30;22;0.28999999999999998;0.5;0.11;0.10000000000000001;0;2.8999707502753154;66;12;21;2;
2019_03_04 11:47;23;2;0;timed;8;23;0;54;40;0;0;0.93000000000000005;0.070000000000000007;0.0;0.0;36;23;71;86;0.02;0.41999999999999998;0.19;0.37;0;3.9674304950185615;66;12;21;2;
2019_03_04 11:47;23;2;0;timed;9;114;1;57;39;79;97;0.77000000000000002;0.02;0.13;0.080000000000000002;92;36;6;1;0.54000000000000004;0.12;0.13;0.20999999999999999;0;2.349852692996137;66;12;21;2;
2019_03_04 11:47;23;2;0;timed;10;1;1;22;51;0;0;0.26000000000000001;0.73999999999999999;0.0;0.0;14;11;92;31;0.29999999999999999;0.40999999999999998;0.14999999999999999;0.14000000000000001;0;2.9669340194195684;66;12;21;2;
2019_03_04 11:47;23;2;0;timed;11;126;0;16;55;51;42;0.68999999999999995;0.23999999999999999;0.01;0.060000000000000102;66;4;1;5;0.46999999999999997;0.38;0.089999999999999997;0.059999999999999998;0;4.299790120392572;66;12;21;2;
2019_03_04 11:47;23;2;0;timed;12;71;1;68;55;36;51;0.20000000000000001;0.75;0.02;0.029999999999999999;38;81;0;0;0.52000000000000002;0.47999999999999998;0.0;0.0;0;5.7831809589424665;66;12;21;2;
2019_03_04 11:47;23;2;0;timed;13;13;1;52;56;0;0;0.46999999999999997;0.53000000000000003;0.0;0.0;94;71;27;2;0.089999999999999997;0.31;0.57999999999999996;0.020000000000000101;0;3.2664640353468712;66;12;21;2;
2019_03_04 11:47;23;2;0;timed;14;47;1;2;40;0;0;0.45000000000000001;0.55000000000000004;0.0;0.0;93;89;11;56;0.58999999999999997;0.070000000000000007;0.28000000000000003;0.059999999999999998;1;2.333372781975413;66;12;21;2;
2019_03_04 11:47;23;2;0;timed;15;141;0;93;28;60;91;0.81999999999999995;0.10000000000000001;0.01;0.070000000000000007;14;85;7;89;0.45000000000000001;0.070000000000000007;0.23999999999999999;0.23999999999999999;0;2.366503227412977;66;12;21;2;
2019_03_04 11:47;23;2;0;timed;16;138;1;8;20;43;51;0.38;0.5;0.02;0.10000000000000001;72;82;70;1;0.39000000000000001;0.050000000000000003;0.070000000000000007;0.48999999999999999;0;2.049978223067228;66;12;21;2;
2019_03_04 11:47;23;2;0;timed;17;148;1;37;63;55;10;0.72999999999999998;0.070000000000000007;0.029999999999999999;0.17000000000000001;80;14;23;70;0.46999999999999997;0.10000000000000001;0.23000000000000001;0.20000000000000001;1;3.816455728680012;66;12;21;2;
2019_03_04 11:47;23;2;0;timed;18;127;0;89;26;62;79;0.02;0.28999999999999998;0.53000000000000003;0.16;96;6;60;13;0.53000000000000003;0.25;0.17000000000000001;0.050000000000000003;0;4.433070727247468;66;12;21;2;
2019_03_04 11:47;23;2;0;timed;19;125;0;37;41;10;35;0.91000000000000003;0.040000000000000001;0.029999999999999999;0.02;7;13;91;93;0.26000000000000001;0.39000000000000001;0.16;0.19;0;4.116428980576529;66;12;21;2;
2019_03_04 11:47;23;2;0;timed;20;27;1;44;26;0;0;0.35999999999999999;0.64000000000000001;0.0;0.0;63;10;3;5;0.58999999999999997;0.19;0.14999999999999999;0.070000000000000007;1;4.233245712444841;66;12;21;2;
2019_03_04 11:47;23;2;0;timed;21;150;0;25;21;78;38;0.84999999999999998;0.059999999999999998;0.050000000000000003;0.040000000000000001;31;43;64;95;0.059999999999999998;0.45000000000000001;0.13;0.35999999999999999;1;4.38310405012453;66;12;21;2;
2019_03_04 11:47;23;2;0;timed;22;119;0;60;58;11;18;0.25;0.72999999999999998;0.01;0.01;96;23;42;85;0.44;0.48999999999999999;0.059999999999999998;0.010000000000000101;0;4.299834059123896;66;12;21;2;
2019_03_04 11:47;23;2;0;timed;23;20;0;44;40;0;0;0.91000000000000003;0.089999999999999997;0.0;0.0;29;5;80;99;0.25;0.40000000000000002;0.26000000000000001;0.089999999999999997;0;2.8331075459809654;66;12;21;2;
2019_03_04 11:47;23;2;0;timed;24;134;0;57;48;50;55;0.02;0.62;0.17999999999999999;0.17999999999999999;80;96;15;18;0.23999999999999999;0.35999999999999999;0.33000000000000002;0.070000000000000007;0;3.266490013720613;66;12;21;2;
2019_03_04 11:47;23;2;0;timed;25;108;0;48;72;39;70;0.14000000000000001;0.66000000000000003;0.02;0.17999999999999999;81;44;98;8;0.59999999999999998;0.029999999999999999;0.050000000000000003;0.32000000000000001;0;2.833179387411292;66;12;21;2;
2019_03_04 11:47;23;2;0;timed;26;142;1;98;65;64;84;0.88;0.070000000000000007;0.01;0.040000000000000001;5;68;60;16;0.46000000000000002;0.080000000000000002;0.27000000000000002;0.19;0;1.8998437448881305;66;12;21;2;
2019_03_04 11:47;23;2;0;timed;27;109;1;75;28;16;56;0.19;0.070000000000000007;0.059999999999999998;0.68000000000000005;3;50;98;44;0.5;0.02;0.34999999999999998;0.13;0;2.899921038570028;66;12;21;2;
2019_03_04 11:47;23;2;0;timed;28;116;0;53;65;43;99;0.56999999999999995;0.37;0.050000000000000003;0.010000000000000101;57;72;11;87;0.67000000000000004;0.13;0.14999999999999999;0.050000000000000003;1;3.5999311092000426;66;12;21;2;
2019_03_04 11:47;23;2;0;timed;29;10;1;45;62;0;0;0.059999999999999998;0.93999999999999995;0.0;0.0;17;99;28;67;0.58999999999999997;0.34000000000000002;0.01;0.059999999999999998;0;2.7000091084682936;66;12;21;2;
2019_03_04 11:47;23;2;0;timed;30;81;0;67;38;52;65;0.27000000000000002;0.35999999999999999;0.01;0.35999999999999999;2;77;0;0;0.14000000000000001;0.85999999999999999;0.0;0.0;0;2.133171561827112;66;12;21;2;
2019_03_04 11:47;23;2;0;timed;31;118;1;62;52;65;68;0.40999999999999998;0.44;0.10000000000000001;0.0500000000000001;79;20;14;37;0.56999999999999995;0.23999999999999999;0.14000000000000001;0.050000000000000003;0;3.283112966159024;66;12;21;2;
2019_03_04 11:47;23;2;0;timed;32;94;1;84;86;93;39;0.78000000000000003;0.20000000000000001;0.01;0.0099999999999999603;9;83;0;0;0.46999999999999997;0.53000000000000003;0.0;0.0;0;1.4999085946092237;66;12;21;2;
2019_03_04 11:47;23;2;0;timed;33;65;1;75;64;59;52;0.59999999999999998;0.22;0.14000000000000001;0.040000000000000001;1;99;0;0;0.35999999999999999;0.64000000000000001;0.0;0.0;0;1.9331121002123837;66;12;21;2;
2019_03_04 11:47;23;2;0;timed;34;77;1;24;17;99;41;0.17999999999999999;0.13;0.10000000000000001;0.58999999999999997;12;97;0;0;0.59999999999999998;0.40000000000000002;0.0;0.0;0;2.3998536872295517;66;12;21;2;
2019_03_04 11:47;23;2;0;timed;35;131;1;83;41;81;88;0.23999999999999999;0.58999999999999997;0.10000000000000001;0.070000000000000007;82;97;4;17;0.26000000000000001;0.46999999999999997;0.11;0.16;0;4.9498748868645635;66;12;21;2;
2019_03_04 11:47;23;2;0;timed;36;66;1;89;23;27;15;0.070000000000000007;0.54000000000000004;0.17000000000000001;0.22;9;73;0;0;0.72999999999999998;0.27000000000000002;0.0;0.0;0;2.46648148255008;66;12;21;2;
2019_03_04 11:47;23;2;0;timed;37;5;0;70;5;0;0;0.98999999999999999;0.01;0.0;0.0;92;87;47;1;0.44;0.02;0.16;0.38;0;3.8497988119215734;66;12;21;2;
2019_03_04 11:47;23;2;0;timed;38;29;1;44;51;0;0;0.78000000000000003;0.22;0.0;0.0;74;1;68;82;0.69999999999999996;0.28000000000000003;0.01;0.01;0;2.7999286717222276;66;12;21;2;
2019_03_04 11:47;23;2;0;timed;39;31;1;10;59;0;0;0.23999999999999999;0.76000000000000001;0.0;0.0;1;79;53;73;0.23000000000000001;0.58999999999999997;0.050000000000000003;0.13;0;3.7665066911959;66;12;21;2;
2019_03_04 11:47;23;2;0;timed;40;61;1;43;18;39;70;0.75;0.089999999999999997;0.089999999999999997;0.070000000000000007;16;66;0;0;0.64000000000000001;0.35999999999999999;0.0;0.0;0;3.83328875315965;66;12;21;2;
2019_03_04 11:47;23;2;0;timed;41;120;0;64;40;48;51;0.19;0.02;0.070000000000000007;0.71999999999999997;97;9;79;94;0.23000000000000001;0.54000000000000004;0.01;0.22;0;2.966645370814149;66;12;21;2;
2019_03_04 11:47;23;2;0;timed;42;14;0;36;40;0;0;0.54000000000000004;0.46000000000000002;0.0;0.0;99;70;1;11;0.16;0.089999999999999997;0.080000000000000002;0.67000000000000004;0;3.5999365614497947;66;12;21;2;
2019_03_04 11:47;23;2;0;timed;43;89;0;26;41;13;56;0.059999999999999998;0.40999999999999998;0.050000000000000003;0.47999999999999998;5;97;0;0;0.37;0.63;0.0;0.0;0;3.6664793657928385;66;12;21;2;
2019_03_04 11:47;23;2;0;timed;44;64;0;48;39;34;19;0.46000000000000002;0.5;0.02;0.02;13;92;0;0;0.68999999999999995;0.31;0.0;0.0;0;3.666393733374207;66;12;21;2;
2019_03_04 11:47;23;2;0;timed;45;79;1;52;46;29;22;0.17999999999999999;0.51000000000000001;0.23999999999999999;0.070000000000000104;93;14;0;0;0.45000000000000001;0.55000000000000004;0.0;0.0;0;4.133252062714746;66;12;21;2;
2019_03_04 11:47;23;2;0;timed;46;41;1;99;40;0;0;0.89000000000000001;0.11;0.0;0.0;1;67;52;46;0.51000000000000001;0.38;0.029999999999999999;0.080000000000000002;0;3.149807022371533;66;12;21;2;
2019_03_04 11:47;23;2;0;timed;47;11;1;17;36;0;0;0.14000000000000001;0.85999999999999999;0.0;0.0;19;41;34;95;0.88;0.02;0.050000000000000003;0.050000000000000003;0;2.9331400029113865;66;12;21;2;
2019_03_04 11:47;23;2;0;timed;48;92;0;90;86;65;94;0.16;0.34000000000000002;0.28000000000000003;0.22;79;22;0;0;0.35999999999999999;0.64000000000000001;0.0;0.0;0;3.4998261693963286;66;12;21;2;
2019_03_04 11:47;23;2;0;timed;49;149;0;14;89;73;53;0.93999999999999995;0.01;0.01;0.040000000000000001;97;45;6;13;0.34000000000000002;0.01;0.40999999999999998;0.23999999999999999;0;2.3332047243438865;66;12;21;2;
2019_03_04 11:47;23;2;0;timed;50;97;0;17;33;32;74;0.94999999999999996;0.01;0.029999999999999999;0.01;76;23;0;0;0.33000000000000002;0.67000000000000004;0.0;0.0;1;4.299797817688159;66;12;21;2;
2019_03_04 11:47;23;2;0;timed;51;132;0;27;70;21;19;0.64000000000000001;0.23000000000000001;0.029999999999999999;0.10000000000000001;11;85;55;6;0.39000000000000001;0.46999999999999997;0.029999999999999999;0.11;0;5.28334067783544;66;12;21;2;
2019_03_04 11:47;23;2;0;timed;52;136;1;29;67;14;75;0.46000000000000002;0.29999999999999999;0.20999999999999999;0.0300000000000001;70;86;1;85;0.31;0.39000000000000001;0.27000000000000002;0.029999999999999898;0;4.716640399643438;66;12;21;2;
2019_03_04 11:47;23;2;0;timed;53;80;0;47;39;45;10;0.13;0.76000000000000001;0.059999999999999998;0.050000000000000003;2;87;0;0;0.48999999999999999;0.51000000000000001;0.0;0.0;0;2.333174576600868;66;12;21;2;
2019_03_04 11:47;23;2;0;timed;54;87;1;10;30;63;4;0.56999999999999995;0.12;0.16;0.14999999999999999;86;2;0;0;0.42999999999999999;0.56999999999999995;0.0;0.0;0;4.766338954283128;66;12;21;2;
2019_03_04 11:47;23;2;0;timed;55;91;0;74;81;86;48;0.93000000000000005;0.02;0.01;0.039999999999999897;7;64;0;0;0.13;0.87;0.0;0.0;0;3.516510700203071;66;12;21;2;
2019_03_04 11:47;23;2;0;timed;56;54;0;44;79;78;52;0.79000000000000004;0.19;0.01;0.0099999999999999603;96;1;0;0;0.28000000000000003;0.71999999999999997;0.0;0.0;0;2.7831366994887503;66;12;21;2;
2019_03_04 11:47;23;2;0;timed;57;45;0;97;87;0;0;0.71999999999999997;0.28000000000000003;0.0;0.0;96;11;14;4;0.25;0.029999999999999999;0.14000000000000001;0.57999999999999996;0;1.8000354717078153;66;12;21;2;
2019_03_04 11:47;23;2;0;timed;58;86;1;56;30;57;88;0.20000000000000001;0.35999999999999999;0.080000000000000002;0.35999999999999999;98;2;0;0;0.77000000000000002;0.23000000000000001;0.0;0.0;0;2.9333260209023138;66;12;21;2;
2019_03_04 11:47;23;2;0;timed;59;58;0;37;58;76;34;0.20999999999999999;0.57999999999999996;0.19;0.020000000000000101;86;5;0;0;0.47999999999999998;0.52000000000000002;0.0;0.0;0;2.2999905708129518;66;12;21;2;
2019_03_04 11:47;23;2;0;timed;60;16;1;64;53;0;0;0.65000000000000002;0.34999999999999998;0.0;0.0;29;17;81;46;0.10000000000000001;0.01;0.44;0.45000000000000001;0;5.499693391036999;66;12;21;2;
2019_03_04 11:47;23;2;0;timed;61;115;0;50;28;61;79;0.83999999999999997;0.040000000000000001;0.059999999999999998;0.059999999999999998;1;26;97;55;0.45000000000000001;0.080000000000000002;0.40999999999999998;0.060000000000000102;0;4.566318620592938;66;12;21;2;
2019_03_04 11:47;23;2;0;timed;62;70;0;66;55;69;50;0.22;0.29999999999999999;0.29999999999999999;0.17999999999999999;2;90;0;0;0.34000000000000002;0.66000000000000003;0.0;0.0;0;1.2334022241320781;66;12;21;2;
2019_03_04 11:47;23;2;0;timed;63;74;1;66;47;52;44;0.41999999999999998;0.26000000000000001;0.17999999999999999;0.14000000000000001;17;99;0;0;0.47999999999999998;0.52000000000000002;0.0;0.0;0;2.666590976587031;66;12;21;2;
2019_03_04 11:47;23;2;0;timed;64;96;1;51;54;39;7;0.17000000000000001;0.26000000000000001;0.10000000000000001;0.46999999999999997;24;96;0;0;0.28000000000000003;0.71999999999999997;0.0;0.0;1;2.983522654747503;66;12;21;2;
2019_03_04 11:47;23;2;0;timed;65;146;1;25;5;64;35;0.94999999999999996;0.02;0.01;0.02;47;97;12;79;0.20999999999999999;0.029999999999999999;0.02;0.73999999999999999;1;3.3998482349779806;66;12;21;2;
2019_03_04 11:47;23;2;0;timed;66;99;0;8;24;15;73;0.56000000000000005;0.35999999999999999;0.070000000000000007;0.0099999999999999499;88;12;0;0;0.52000000000000002;0.47999999999999998;0.0;0.0;1;3.333142183813834;66;12;21;2;
2019_03_04 11:47;23;2;0;timed;67;124;0;37;65;15;41;0.17999999999999999;0.45000000000000001;0.02;0.34999999999999998;40;7;98;30;0.070000000000000007;0.45000000000000001;0.45000000000000001;0.029999999999999898;0;4.333109149583834;66;12;21;2;
2019_03_04 11:47;23;2;0;timed;68;46;0;5;19;0;0;0.32000000000000001;0.68000000000000005;0.0;0.0;88;38;97;66;0.60999999999999999;0.20000000000000001;0.040000000000000001;0.14999999999999999;1;3.766451206518468;66;12;21;2;
2019_03_04 11:47;23;2;0;timed;69;105;1;49;74;63;58;0.84999999999999998;0.080000000000000002;0.02;0.050000000000000003;97;5;86;8;0.25;0.52000000000000002;0.070000000000000007;0.16;0;3.7997750465201534;66;12;21;2;
2019_03_04 11:47;23;2;0;timed;70;4;0;40;43;0;0;0.58999999999999997;0.40999999999999998;0.0;0.0;2;33;88;81;0.69999999999999996;0.14000000000000001;0.13;0.029999999999999999;0;2.266482957866174;66;12;21;2;
2019_03_04 11:47;23;2;0;timed;71;106;0;85;69;22;61;0.10000000000000001;0.58999999999999997;0.17999999999999999;0.13;20;79;91;84;0.55000000000000004;0.14999999999999999;0.26000000000000001;0.039999999999999897;0;5.249962636040436;66;12;21;2;
2019_03_04 11:47;23;2;0;timed;72;129;0;12;29;81;36;0.17999999999999999;0.79000000000000004;0.01;0.02;5;19;95;92;0.47999999999999998;0.26000000000000001;0.13;0.13;0;3.8664621751668165;66;12;21;2;
2019_03_04 11:47;23;2;0;timed;73;42;0;70;48;0;0;0.79000000000000004;0.20999999999999999;0.0;0.0;51;8;12;67;0.19;0.26000000000000001;0.28999999999999998;0.26000000000000001;0;2.7165454663245328;66;12;21;2;
2019_03_04 11:47;23;2;0;timed;74;135;0;48;60;41;51;0.14000000000000001;0.40000000000000002;0.089999999999999997;0.37;94;1;85;65;0.64000000000000001;0.29999999999999999;0.01;0.050000000000000003;0;2.3666603805413615;66;12;21;2;
2019_03_04 11:47;23;2;0;timed;75;62;1;12;45;16;50;0.20999999999999999;0.76000000000000001;0.02;0.01;92;15;0;0;0.20999999999999999;0.79000000000000004;0.0;0.0;0;2.899834123269102;66;12;21;2;
2019_03_04 11:47;23;3;0;control;1;69;0;54;34;64;49;0.34000000000000002;0.25;0.20999999999999999;0.20000000000000001;14;98;0;0;0.62;0.38;0.0;0.0;0;6.2744490179211425;66;12;21;2;
2019_03_04 11:47;23;3;0;control;2;70;1;66;55;69;50;0.22;0.29999999999999999;0.29999999999999999;0.17999999999999999;2;90;0;0;0.34000000000000002;0.66000000000000003;0.0;0.0;0;2.8665096418244502;66;12;21;2;
2019_03_04 11:47;23;3;0;control;3;43;1;60;83;0;0;0.23000000000000001;0.77000000000000002;0.0;0.0;72;5;70;12;0.29999999999999999;0.40999999999999998;0.12;0.17000000000000001;0;4.833261491901794;66;12;21;2;
2019_03_04 11:47;23;3;0;control;4;8;0;50;36;0;0;0.080000000000000002;0.92000000000000004;0.0;0.0;6;19;84;29;0.54000000000000004;0.070000000000000007;0.17000000000000001;0.22;0;2.866503227412977;66;12;21;2;
2019_03_04 11:47;23;3;0;control;5;21;0;64;28;0;0;0.080000000000000002;0.92000000000000004;0.0;0.0;50;1;88;13;0.57999999999999996;0.13;0.02;0.27000000000000002;1;3.2329458386175247;66;12;21;2;
2019_03_04 11:47;23;3;0;control;6;42;1;70;48;0;0;0.79000000000000004;0.20999999999999999;0.0;0.0;51;8;12;67;0.19;0.26000000000000001;0.28999999999999998;0.26000000000000001;0;7.232964440416254;66;12;21;2;
2019_03_04 11:47;23;3;0;control;7;15;0;77;81;0;0;0.28000000000000003;0.71999999999999997;0.0;0.0;98;14;87;18;0.55000000000000004;0.23000000000000001;0.16;0.059999999999999901;0;3.0831766612845968;66;12;21;2;
2019_03_04 11:47;23;3;0;control;8;33;1;27;70;0;0;0.88;0.12;0.0;0.0;93;3;77;16;0.080000000000000002;0.40000000000000002;0.5;0.02;0;6.833134486516428;66;12;21;2;
2019_03_04 11:47;23;3;0;control;9;23;1;54;40;0;0;0.93000000000000005;0.070000000000000007;0.0;0.0;36;23;71;86;0.02;0.41999999999999998;0.19;0.37;0;3.566469359309849;66;12;21;2;
2019_03_04 11:47;23;3;0;control;10;59;1;56;47;83;90;0.31;0.12;0.54000000000000004;0.029999999999999898;10;98;0;0;0.46999999999999997;0.53000000000000003;0.0;0.0;0;3.3664333103060926;66;12;21;2;
2019_03_04 11:47;23;3;0;control;11;114;0;57;39;79;97;0.77000000000000002;0.02;0.13;0.080000000000000002;92;36;6;1;0.54000000000000004;0.12;0.13;0.20999999999999999;0;6.833003311761786;66;12;21;2;
2019_03_04 11:47;23;3;0;control;12;5;0;70;5;0;0;0.98999999999999999;0.01;0.0;0.0;92;87;47;1;0.44;0.02;0.16;0.38;0;2.3498542965971865;66;12;21;2;
2019_03_04 11:47;23;3;0;control;13;41;0;99;40;0;0;0.89000000000000001;0.11;0.0;0.0;1;67;52;46;0.51000000000000001;0.38;0.029999999999999999;0.080000000000000002;0;3.4666652554951725;66;12;21;2;
2019_03_04 11:47;23;3;0;control;14;112;0;70;44;98;64;0.02;0.75;0.12;0.11;33;2;63;85;0.23999999999999999;0.31;0.080000000000000002;0.37;0;4.916348672120876;66;12;21;2;
2019_03_04 11:47;23;3;0;control;15;22;1;32;55;0;0;0.39000000000000001;0.60999999999999999;0.0;0.0;93;72;59;22;0.20000000000000001;0.11;0.14000000000000001;0.55000000000000004;0;7.599881718215329;66;12;21;2;
2019_03_04 11:47;23;3;0;control;16;94;1;84;86;93;39;0.78000000000000003;0.20000000000000001;0.01;0.0099999999999999603;9;83;0;0;0.46999999999999997;0.53000000000000003;0.0;0.0;0;3.9166065315403102;66;12;21;2;
2019_03_04 11:47;23;3;0;control;17;127;0;89;26;62;79;0.02;0.28999999999999998;0.53000000000000003;0.16;96;6;60;13;0.53000000000000003;0.25;0.17000000000000001;0.050000000000000003;0;11.332910623486896;66;12;21;2;
2019_03_04 11:47;23;3;0;control;18;111;0;51;36;48;27;0.93000000000000005;0.01;0.01;0.049999999999999899;31;78;30;53;0.55000000000000004;0.16;0.029999999999999999;0.26000000000000001;0;2.249878607226492;66;12;21;2;
2019_03_04 11:47;23;3;0;control;19;138;0;8;20;43;51;0.38;0.5;0.02;0.10000000000000001;72;82;70;1;0.39000000000000001;0.050000000000000003;0.070000000000000007;0.48999999999999999;0;4.783085384180595;66;12;21;2;
2019_03_04 11:47;23;3;0;control;20;67;0;44;42;8;89;0.88;0.070000000000000007;0.029999999999999999;0.02;10;63;0;0;0.39000000000000001;0.60999999999999999;0.0;0.0;0;6.183218098396537;66;12;21;2;
2019_03_04 11:47;23;3;0;control;21;20;0;44;40;0;0;0.91000000000000003;0.089999999999999997;0.0;0.0;29;5;80;99;0.25;0.40000000000000002;0.26000000000000001;0.089999999999999997;0;3.466568397852825;66;12;21;2;
2019_03_04 11:47;23;3;0;control;22;86;0;56;30;57;88;0.20000000000000001;0.35999999999999999;0.080000000000000002;0.35999999999999999;98;2;0;0;0.77000000000000002;0.23000000000000001;0.0;0.0;0;3.633141734802848;66;12;21;2;
2019_03_04 11:47;23;3;0;control;23;143;1;88;44;56;73;0.95999999999999996;0.02;0.01;0.01;20;3;87;32;0.19;0.40000000000000002;0.28000000000000003;0.13;0;1.8165670187554497;66;12;21;2;
2019_03_04 11:47;23;3;0;control;24;148;1;37;63;55;10;0.72999999999999998;0.070000000000000007;0.029999999999999999;0.17000000000000001;80;14;23;70;0.46999999999999997;0.10000000000000001;0.23000000000000001;0.20000000000000001;0;5.549775527602833;66;12;21;2;
2019_03_04 11:47;23;3;0;control;25;116;1;53;65;43;99;0.56999999999999995;0.37;0.050000000000000003;0.010000000000000101;57;72;11;87;0.67000000000000004;0.13;0.14999999999999999;0.050000000000000003;1;7.04976718886428;66;12;21;2;
2019_03_04 11:47;23;3;0;control;26;149;1;14;89;73;53;0.93999999999999995;0.01;0.01;0.040000000000000001;97;45;6;13;0.34000000000000002;0.01;0.40999999999999998;0.23999999999999999;0;7.199810261650782;66;12;21;2;
2019_03_04 11:47;23;3;0;control;27;61;1;43;18;39;70;0.75;0.089999999999999997;0.089999999999999997;0.070000000000000007;16;66;0;0;0.64000000000000001;0.35999999999999999;0.0;0.0;0;4.066478980930697;66;12;21;2;
2019_03_04 11:47;23;3;0;control;28;65;0;75;64;59;52;0.59999999999999998;0.22;0.14000000000000001;0.040000000000000001;1;99;0;0;0.35999999999999999;0.64000000000000001;0.0;0.0;0;4.133082722199106;66;12;21;2;
2019_03_04 11:47;23;3;0;control;29;14;1;36;40;0;0;0.54000000000000004;0.46000000000000002;0.0;0.0;99;70;1;11;0.16;0.089999999999999997;0.080000000000000002;0.67000000000000004;0;6.283038879682863;66;12;21;2;
2019_03_04 11:47;23;3;0;control;30;26;0;76;41;0;0;0.57999999999999996;0.41999999999999998;0.0;0.0;61;79;84;2;0.13;0.029999999999999999;0.67000000000000004;0.17000000000000001;1;5.449851794977803;66;12;21;2;
2019_03_04 11:47;23;3;0;control;31;73;1;65;68;70;47;0.25;0.23000000000000001;0.20999999999999999;0.31;27;95;0;0;0.45000000000000001;0.55000000000000004;0.0;0.0;0;3.4666976482840255;66;12;21;2;
2019_03_04 11:47;23;3;0;control;32;46;1;5;19;0;0;0.32000000000000001;0.68000000000000005;0.0;0.0;88;38;97;66;0.60999999999999999;0.20000000000000001;0.040000000000000001;0.14999999999999999;1;3.3332435315442126;66;12;21;2;
2019_03_04 11:47;23;3;0;control;33;120;0;64;40;48;51;0.19;0.02;0.070000000000000007;0.71999999999999997;97;9;79;94;0.23000000000000001;0.54000000000000004;0.01;0.22;0;2.9331521902968234;66;12;21;2;
2019_03_04 11:47;23;3;0;control;34;87;0;10;30;63;4;0.56999999999999995;0.12;0.16;0.14999999999999999;86;2;0;0;0.42999999999999999;0.56999999999999995;0.0;0.0;0;3.1498073430921067;66;12;21;2;
2019_03_04 11:47;23;3;0;control;35;135;0;48;60;41;51;0.14000000000000001;0.40000000000000002;0.089999999999999997;0.37;94;1;85;65;0.64000000000000001;0.29999999999999999;0.01;0.050000000000000003;0;3.0498371059711644;66;12;21;2;
2019_03_04 11:47;23;3;0;control;36;139;0;44;31;16;8;0.79000000000000004;0.070000000000000007;0.13;0.0099999999999999499;92;58;2;88;0.55000000000000004;0.070000000000000007;0.34000000000000002;0.039999999999999897;1;5.599691530856944;66;12;21;2;
2019_03_04 11:47;23;3;0;control;37;137;1;71;22;28;17;0.25;0.46000000000000002;0.050000000000000003;0.23999999999999999;3;98;92;69;0.42999999999999999;0.23999999999999999;0.20000000000000001;0.13;0;3.2166320609067043;66;12;21;2;
2019_03_04 11:47;23;3;0;control;38;98;1;27;10;31;79;0.23000000000000001;0.67000000000000004;0.070000000000000007;0.029999999999999999;25;99;0;0;0.38;0.62;0.0;0.0;1;5.716512752816925;66;12;21;2;
2019_03_04 11:47;23;3;0;control;39;27;0;44;26;0;0;0.35999999999999999;0.64000000000000001;0.0;0.0;63;10;3;5;0.58999999999999997;0.19;0.14999999999999999;0.070000000000000007;0;4.299789478949606;66;12;21;2;
2019_03_04 11:47;23;3;0;control;40;49;0;21;30;0;0;0.53000000000000003;0.46999999999999997;0.0;0.0;93;99;89;25;0.44;0.02;0.11;0.42999999999999999;1;6.199808337325521;66;12;21;2;
2019_03_04 11:47;23;3;0;control;41;1;1;22;51;0;0;0.26000000000000001;0.73999999999999999;0.0;0.0;14;11;92;31;0.29999999999999999;0.40999999999999998;0.14999999999999999;0.14000000000000001;0;2.0666746205406525;66;12;21;2;
2019_03_04 11:47;23;3;0;control;42;128;1;70;49;27;54;0.27000000000000002;0.53000000000000003;0.02;0.17999999999999999;72;97;6;20;0.29999999999999999;0.39000000000000001;0.22;0.0899999999999999;1;4.766419775893155;66;12;21;2;
2019_03_04 11:47;23;3;0;control;43;10;1;45;62;0;0;0.059999999999999998;0.93999999999999995;0.0;0.0;17;99;28;67;0.58999999999999997;0.34000000000000002;0.01;0.059999999999999998;0;3.633273551000457;66;12;21;2;
2019_03_04 11:47;23;3;0;control;44;29;0;44;51;0;0;0.78000000000000003;0.22;0.0;0.0;74;1;68;82;0.69999999999999996;0.28000000000000003;0.01;0.01;0;4.499910839653239;66;12;21;2;
2019_03_04 11:47;23;3;0;control;45;97;1;17;33;32;74;0.94999999999999996;0.01;0.029999999999999999;0.01;76;23;0;0;0.33000000000000002;0.67000000000000004;0.0;0.0;1;2.983114377329912;66;12;21;2;
2019_03_04 11:47;23;3;0;control;46;18;1;68;50;0;0;0.029999999999999999;0.96999999999999997;0.0;0.0;34;64;15;89;0.65000000000000002;0.029999999999999999;0.050000000000000003;0.27000000000000002;0;3.299889223078935;66;12;21;2;
2019_03_04 11:47;23;3;0;control;47;123;1;26;24;51;92;0.72999999999999998;0.16;0.070000000000000007;0.040000000000000001;6;90;82;49;0.64000000000000001;0.25;0.050000000000000003;0.059999999999999998;0;4.366399955355519;66;12;21;2;
2019_03_04 11:47;23;3;0;control;48;19;0;22;53;0;0;0.13;0.87;0.0;0.0;4;93;96;65;0.46999999999999997;0.059999999999999998;0.26000000000000001;0.20999999999999999;0;4.733086314272441;66;12;21;2;
2019_03_04 11:47;23;3;0;control;49;108;0;48;72;39;70;0.14000000000000001;0.66000000000000003;0.02;0.17999999999999999;81;44;98;8;0.59999999999999998;0.029999999999999999;0.050000000000000003;0.32000000000000001;0;5.349849485788582;66;12;21;2;
2019_03_04 11:47;23;3;0;control;50;50;0;15;20;0;0;0.82999999999999996;0.17000000000000001;0.0;0.0;97;18;88;87;0.56999999999999995;0.39000000000000001;0.01;0.029999999999999999;1;5.266363649776395;66;12;21;2;
2019_03_04 11:47;23;3;0;control;51;57;1;52;35;23;47;0.22;0.68000000000000005;0.040000000000000001;0.059999999999999998;71;7;0;0;0.28999999999999998;0.70999999999999996;0.0;0.0;0;3.8164502764302597;66;12;21;2;
2019_03_04 11:47;23;3;0;control;52;58;0;37;58;76;34;0.20999999999999999;0.57999999999999996;0.19;0.020000000000000101;86;5;0;0;0.47999999999999998;0.52000000000000002;0.0;0.0;0;4.76639347679702;66;12;21;2;
2019_03_04 11:47;23;3;0;control;53;76;1;39;62;9;28;0.01;0.51000000000000001;0.26000000000000001;0.22;77;7;0;0;0.57999999999999996;0.41999999999999998;0.0;0.0;0;3.0831567766035732;66;12;21;2;
2019_03_04 11:47;23;3;0;control;54;30;0;33;30;0;0;0.71999999999999997;0.28000000000000003;0.0;0.0;9;88;1;14;0.55000000000000004;0.39000000000000001;0.01;0.049999999999999899;0;2.9332031848844053;66;12;21;2;
2019_03_04 11:47;23;3;0;control;55;119;0;60;58;11;18;0.25;0.72999999999999998;0.01;0.01;96;23;42;85;0.44;0.48999999999999999;0.059999999999999998;0.010000000000000101;0;7.132949302400448;66;12;21;2;
2019_03_04 11:47;23;3;0;control;56;53;1;26;70;50;80;0.29999999999999999;0.59999999999999998;0.040000000000000001;0.059999999999999998;89;1;0;0;0.40999999999999998;0.58999999999999997;0.0;0.0;0;3.7164550230954774;66;12;21;2;
2019_03_04 11:47;23;3;0;control;57;74;1;66;47;52;44;0.41999999999999998;0.26000000000000001;0.17999999999999999;0.14000000000000001;17;99;0;0;0.47999999999999998;0.52000000000000002;0.0;0.0;0;5.099895188484879;66;12;21;2;
2019_03_04 11:47;23;3;0;control;58;101;0;30;96;61;45;0.65000000000000002;0.14000000000000001;0.11;0.10000000000000001;3;98;63;89;0.75;0.19;0.040000000000000001;0.02;0;1.8332137045235868;66;12;21;2;
2019_03_04 11:47;23;3;0;control;59;106;1;85;69;22;61;0.10000000000000001;0.58999999999999997;0.17999999999999999;0.13;20;79;91;84;0.55000000000000004;0.14999999999999999;0.26000000000000001;0.039999999999999897;0;3.0664828295775806;66;12;21;2;
2019_03_04 11:47;23;3;0;control;60;71;1;68;55;36;51;0.20000000000000001;0.75;0.02;0.029999999999999999;38;81;0;0;0.52000000000000002;0.47999999999999998;0.0;0.0;0;4.63308047715509;66;12;21;2;
2019_03_04 11:47;23;3;0;control;61;52;0;71;51;10;54;0.22;0.12;0.19;0.46999999999999997;91;1;0;0;0.29999999999999999;0.69999999999999996;0.0;0.0;0;2.3999880691899307;66;12;21;2;
2019_03_04 11:47;23;3;0;control;62;115;1;50;28;61;79;0.83999999999999997;0.040000000000000001;0.059999999999999998;0.059999999999999998;1;26;97;55;0.45000000000000001;0.080000000000000002;0.40999999999999998;0.060000000000000102;0;2.933347188465632;66;12;21;2;
2019_03_04 11:47;23;3;0;control;63;9;1;61;69;0;0;0.93999999999999995;0.060000000000000102;0.0;0.0;18;93;72;16;0.40999999999999998;0.34999999999999998;0.089999999999999997;0.14999999999999999;0;2.86666198414423;66;12;21;2;
2019_03_04 11:47;23;3;0;control;64;45;1;97;87;0;0;0.71999999999999997;0.28000000000000003;0.0;0.0;96;11;14;4;0.25;0.029999999999999999;0.14000000000000001;0.57999999999999996;0;3.566466472822867;66;12;21;2;
2019_03_04 11:47;23;3;0;control;65;150;1;25;21;78;38;0.84999999999999998;0.059999999999999998;0.050000000000000003;0.040000000000000001;31;43;64;95;0.059999999999999998;0.45000000000000001;0.13;0.35999999999999999;1;7.832933073934328;66;12;21;2;
2019_03_04 11:47;23;3;0;control;66;131;0;83;41;81;88;0.23999999999999999;0.58999999999999997;0.10000000000000001;0.070000000000000007;82;97;4;17;0.26000000000000001;0.46999999999999997;0.11;0.16;0;4.683084357875487;66;12;21;2;
2019_03_04 11:47;23;3;0;control;67;82;0;78;66;30;27;0.28999999999999998;0.58999999999999997;0.080000000000000002;0.040000000000000001;90;6;0;0;0.82999999999999996;0.17000000000000001;0.0;0.0;1;2.333129034266676;66;12;21;2;
2019_03_04 11:47;23;3;0;control;68;132;1;27;70;21;19;0.64000000000000001;0.23000000000000001;0.029999999999999999;0.10000000000000001;11;85;55;6;0.39000000000000001;0.46999999999999997;0.029999999999999999;0.11;0;6.516358678603865;66;12;21;2;
2019_03_04 11:47;23;3;0;control;69;118;1;62;52;65;68;0.40999999999999998;0.44;0.10000000000000001;0.0500000000000001;79;20;14;37;0.56999999999999995;0.23999999999999999;0.14000000000000001;0.050000000000000003;0;4.083251389201905;66;12;21;2;
2019_03_04 11:47;23;3;0;control;70;126;0;16;55;51;42;0.68999999999999995;0.23999999999999999;0.01;0.060000000000000102;66;4;1;5;0.46999999999999997;0.38;0.089999999999999997;0.059999999999999998;0;1.583369093686997;66;12;21;2;
2019_03_04 11:47;23;3;0;control;71;83;0;17;12;7;41;0.65000000000000002;0.19;0.089999999999999997;0.070000000000000007;6;84;0;0;0.72999999999999998;0.27000000000000002;0.0;0.0;0;3.366395785986242;66;12;21;2;
2019_03_04 11:47;23;3;0;control;72;109;0;75;28;16;56;0.19;0.070000000000000007;0.059999999999999998;0.68000000000000005;3;50;98;44;0.5;0.02;0.34999999999999998;0.13;0;4.683240869562724;66;12;21;2;
2019_03_04 11:47;23;3;0;control;73;144;0;99;93;90;71;0.65000000000000002;0.32000000000000001;0.01;0.02;97;14;48;73;0.23000000000000001;0.46000000000000002;0.13;0.17999999999999999;0;3.9830755701295857;66;12;21;2;
2019_03_04 11:47;23;3;0;control;74;102;0;40;56;53;17;0.28000000000000003;0.26000000000000001;0.14999999999999999;0.31;1;76;29;62;0.68000000000000005;0.23000000000000001;0.050000000000000003;0.039999999999999897;0;1.9665818681205565;66;12;21;2;
2019_03_04 11:47;23;3;0;control;75;107;1;52;48;13;63;0.68000000000000005;0.19;0.050000000000000003;0.079999999999999905;54;91;33;3;0.19;0.17999999999999999;0.33000000000000002;0.29999999999999999;0;4.199947209377569;66;12;21;2;
2019_03_04 11:47;23;4;0;timed;1;52;0;71;51;10;54;0.22;0.12;0.19;0.46999999999999997;91;1;0;0;0.29999999999999999;0.69999999999999996;0.0;0.0;0;2.640535949900368;66;12;21;2;
2019_03_04 11:47;23;4;0;timed;2;84;1;43;10;5;45;0.78000000000000003;0.13;0.059999999999999998;0.029999999999999999;87;1;0;0;0.57999999999999996;0.41999999999999998;0.0;0.0;0;2.799949518564972;66;12;21;2;
2019_03_04 11:47;23;4;0;timed;3;122;1;35;58;25;31;0.81999999999999995;0.070000000000000007;0.080000000000000002;0.029999999999999999;18;64;68;89;0.63;0.17000000000000001;0.11;0.089999999999999997;0;2.983145807955225;66;12;21;2;
2019_03_04 11:47;23;4;0;timed;4;144;1;99;93;90;71;0.65000000000000002;0.32000000000000001;0.01;0.02;97;14;48;73;0.23000000000000001;0.46000000000000002;0.13;0.17999999999999999;0;1.849998300180232;66;12;21;2;
2019_03_04 11:47;23;4;0;timed;5;48;1;13;32;0;0;0.90000000000000002;0.10000000000000001;0.0;0.0;24;99;84;94;0.62;0.14999999999999999;0.20000000000000001;0.029999999999999999;1;3.1664893081360788;66;12;21;2;
2019_03_04 11:47;23;4;0;timed;6;22;1;32;55;0;0;0.39000000000000001;0.60999999999999999;0.0;0.0;93;72;59;22;0.20000000000000001;0.11;0.14000000000000001;0.55000000000000004;0;2.8333548216196505;66;12;21;2;
2019_03_04 11:47;23;4;0;timed;7;103;0;38;49;89;50;0.89000000000000001;0.070000000000000007;0.01;0.029999999999999999;6;64;99;27;0.70999999999999996;0.17999999999999999;0.059999999999999998;0.050000000000000003;0;1.9498649445249612;66;12;21;2;
2019_03_04 11:47;23;4;0;timed;8;60;1;64;59;57;96;0.83999999999999997;0.13;0.02;0.01;83;6;0;0;0.54000000000000004;0.46000000000000002;0.0;0.0;0;2.716684979815909;66;12;21;2;
2019_03_04 11:47;23;4;0;timed;9;69;0;54;34;64;49;0.34000000000000002;0.25;0.20999999999999999;0.20000000000000001;14;98;0;0;0.62;0.38;0.0;0.0;0;2.4666335041492857;66;12;21;2;
2019_03_04 11:47;23;4;0;timed;10;18;1;68;50;0;0;0.029999999999999999;0.96999999999999997;0.0;0.0;34;64;15;89;0.65000000000000002;0.029999999999999999;0.050000000000000003;0.27000000000000002;0;1.8998751755134435;66;12;21;2;
2019_03_04 11:47;23;4;0;timed;11;56;1;28;84;37;41;0.68000000000000005;0.28000000000000003;0.02;0.0199999999999999;6;95;0;0;0.72999999999999998;0.27000000000000002;0.0;0.0;0;2.2498612883100577;66;12;21;2;
2019_03_04 11:47;23;4;0;timed;12;33;1;27;70;0;0;0.88;0.12;0.0;0.0;93;3;77;16;0.080000000000000002;0.40000000000000002;0.5;0.02;0;3.9664532591305033;66;12;21;2;
2019_03_04 11:47;23;4;0;timed;13;107;0;52;48;13;63;0.68000000000000005;0.19;0.050000000000000003;0.079999999999999905;54;91;33;3;0.19;0.17999999999999999;0.33000000000000002;0.29999999999999999;0;3.6331744483122748;66;12;21;2;
2019_03_04 11:47;23;4;0;timed;14;90;1;27;44;50;72;0.68000000000000005;0.28999999999999998;0.02;0.0099999999999999707;6;96;0;0;0.46999999999999997;0.53000000000000003;0.0;0.0;0;2.599840665970987;66;12;21;2;
2019_03_04 11:47;23;4;0;timed;15;53;1;26;70;50;80;0.29999999999999999;0.59999999999999998;0.040000000000000001;0.059999999999999998;89;1;0;0;0.40999999999999998;0.58999999999999997;0.0;0.0;0;2.299891147404196;66;12;21;2;
2019_03_04 11:47;23;4;0;timed;16;34;1;32;48;0;0;0.28000000000000003;0.71999999999999997;0.0;0.0;97;83;7;62;0.040000000000000001;0.54000000000000004;0.35999999999999999;0.059999999999999901;0;2.3998447070516704;66;12;21;2;
2019_03_04 11:47;23;4;0;timed;17;121;0;42;51;47;70;0.41999999999999998;0.17000000000000001;0.23999999999999999;0.17000000000000001;21;76;48;9;0.14999999999999999;0.34000000000000002;0.40999999999999998;0.10000000000000001;1;4.366438441835271;66;12;21;2;
2019_03_04 11:47;23;4;0;timed;18;32;1;19;81;0;0;0.93000000000000005;0.070000000000000007;0.0;0.0;1;65;41;68;0.45000000000000001;0.050000000000000003;0.059999999999999998;0.44;0;2.4831201503020566;66;12;21;2;
2019_03_04 11:47;23;4;0;timed;19;67;1;44;42;8;89;0.88;0.070000000000000007;0.029999999999999999;0.02;10;63;0;0;0.39000000000000001;0.60999999999999999;0.0;0.0;0;3.3998084656141145;66;12;21;2;
2019_03_04 11:47;23;4;0;timed;20;25;1;50;53;0;0;0.82999999999999996;0.17000000000000001;0.0;0.0;83;16;97;4;0.45000000000000001;0.29999999999999999;0.11;0.14000000000000001;0;2.3666639084694907;66;12;21;2;
2019_03_04 11:47;23;4;0;timed;21;12;0;53;68;0;0;0.31;0.68999999999999995;0.0;0.0;69;54;97;29;0.25;0.20999999999999999;0.20000000000000001;0.34000000000000002;0;3.4664429960685084;66;12;21;2;
2019_03_04 11:47;23;4;0;timed;22;139;1;44;31;16;8;0.79000000000000004;0.070000000000000007;0.13;0.0099999999999999499;92;58;2;88;0.55000000000000004;0.070000000000000007;0.34000000000000002;0.039999999999999897;1;2.5498557077698933;66;12;21;2;
2019_03_04 11:47;23;4;0;timed;23;88;1;77;13;12;7;0.12;0.19;0.66000000000000003;0.029999999999999898;94;2;0;0;0.40999999999999998;0.58999999999999997;0.0;0.0;0;2.8331918955173023;66;12;21;2;
2019_03_04 11:47;23;4;0;timed;24;59;1;56;47;83;90;0.31;0.12;0.54000000000000004;0.029999999999999898;10;98;0;0;0.46999999999999997;0.53000000000000003;0.0;0.0;0;2.733166173718928;66;12;21;2;
2019_03_04 11:47;23;4;0;timed;25;44;1;79;74;0;0;0.71999999999999997;0.28000000000000003;0.0;0.0;3;67;15;36;0.41999999999999998;0.53000000000000003;0.02;0.029999999999999999;0;1.5999202046969003;66;12;21;2;
2019_03_04 11:47;23;4;0;timed;26;2;1;59;32;0;0;0.080000000000000002;0.92000000000000004;0.0;0.0;33;38;85;1;0.28999999999999998;0.050000000000000003;0.070000000000000007;0.58999999999999997;0;2.6164976147993;66;12;21;2;
2019_03_04 11:47;23;4;0;timed;27;19;0;22;53;0;0;0.13;0.87;0.0;0.0;4;93;96;65;0.46999999999999997;0.059999999999999998;0.26000000000000001;0.20999999999999999;0;3.333272075684363;66;12;21;2;
2019_03_04 11:47;23;4;0;timed;28;35;0;33;37;0;0;0.88;0.12;0.0;0.0;63;4;79;98;0.16;0.46000000000000002;0.17000000000000001;0.20999999999999999;0;4.0331022220161685;66;12;21;2;
2019_03_04 11:47;23;4;0;timed;29;83;1;17;12;7;41;0.65000000000000002;0.19;0.089999999999999997;0.070000000000000007;6;84;0;0;0.72999999999999998;0.27000000000000002;0.0;0.0;0;2.8332768864966056;66;12;21;2;
2019_03_04 11:47;23;4;0;timed;30;24;1;35;27;0;0;0.070000000000000007;0.93000000000000005;0.0;0.0;62;3;81;95;0.35999999999999999;0.55000000000000004;0.01;0.080000000000000002;0;2.0998865290257527;66;12;21;2;
2019_03_04 11:47;23;4;0;timed;31;147;1;39;43;76;28;0.14000000000000001;0.10000000000000001;0.10000000000000001;0.66000000000000003;6;31;68;85;0.27000000000000002;0.20000000000000001;0.22;0.31;0;3.466463522192498;66;12;21;2;
2019_03_04 11:47;23;4;0;timed;32;76;1;39;62;9;28;0.01;0.51000000000000001;0.26000000000000001;0.22;77;7;0;0;0.57999999999999996;0.41999999999999998;0.0;0.0;1;3.933111779493629;66;12;21;2;
2019_03_04 11:47;23;4;0;timed;33;30;1;33;30;0;0;0.71999999999999997;0.28000000000000003;0.0;0.0;9;88;1;14;0.55000000000000004;0.39000000000000001;0.01;0.049999999999999899;0;2.0998329686735815;66;12;21;2;
2019_03_04 11:47;23;4;0;timed;34;72;1;63;82;51;61;0.01;0.96999999999999997;0.01;0.01;92;12;0;0;0.89000000000000001;0.11;0.0;0.0;0;3.6330654032844905;66;12;21;2;
2019_03_04 11:47;23;4;0;timed;35;112;0;70;44;98;64;0.02;0.75;0.12;0.11;33;2;63;85;0.23999999999999999;0.31;0.080000000000000002;0.37;0;3.599802820930563;66;12;21;2;
2019_03_04 11:47;23;4;0;timed;36;55;1;74;55;47;48;0.60999999999999999;0.31;0.070000000000000007;0.01;97;6;0;0;0.42999999999999999;0.56999999999999995;0.0;0.0;0;3.2998177023691824;66;12;21;2;
2019_03_04 11:47;23;4;0;timed;37;143;0;88;44;56;73;0.95999999999999996;0.02;0.01;0.01;20;3;87;32;0.19;0.40000000000000002;0.28000000000000003;0.13;0;2.3498498065091553;66;12;21;2;
2019_03_04 11:47;23;4;0;timed;38;113;0;85;65;39;64;0.44;0.34000000000000002;0.13;0.089999999999999997;87;2;4;35;0.67000000000000004;0.17000000000000001;0.11;0.049999999999999899;0;1.616696140896238;66;12;21;2;
2019_03_04 11:47;23;4;0;timed;39;37;1;14;98;0;0;0.93000000000000005;0.070000000000000007;0.0;0.0;41;2;87;66;0.17999999999999999;0.48999999999999999;0.32000000000000001;0.010000000000000101;1;2.3999899935151916;66;12;21;2;
2019_03_04 11:47;23;4;0;timed;40;98;0;27;10;31;79;0.23000000000000001;0.67000000000000004;0.070000000000000007;0.029999999999999999;25;99;0;0;0.38;0.62;0.0;0.0;1;3.5831234216548182;66;12;21;2;
2019_03_04 11:47;23;4;0;timed;41;93;0;87;81;73;98;0.80000000000000004;0.040000000000000001;0.14999999999999999;0.0099999999999999499;5;71;0;0;0.51000000000000001;0.48999999999999999;0.0;0.0;0;3.033102863457316;66;12;21;2;
2019_03_04 11:47;23;4;0;timed;42;95;0;93;88;68;85;0.83999999999999997;0.14000000000000001;0.01;0.01;2;82;0;0;0.41999999999999998;0.57999999999999996;0.0;0.0;0;3.2666423560403928;66;12;21;2;
2019_03_04 11:47;23;4;0;timed;43;100;1;27;14;59;52;0.02;0.95999999999999996;0.01;0.01;17;98;0;0;0.48999999999999999;0.51000000000000001;0.0;0.0;1;3.0664376079621434;66;12;21;2;
2019_03_04 11:47;23;4;0;timed;44;51;0;52;23;43;16;0.60999999999999999;0.20999999999999999;0.01;0.17000000000000001;92;7;0;0;0.14999999999999999;0.84999999999999998;0.0;0.0;0;3.449856926508801;66;12;21;2;
2019_03_04 11:47;23;4;0;timed;45;39;1;14;33;0;0;0.78000000000000003;0.22;0.0;0.0;93;84;1;25;0.14000000000000001;0.23999999999999999;0.39000000000000001;0.23000000000000001;0;3.0331763084923296;66;12;21;2;
2019_03_04 11:47;23;4;0;timed;46;9;1;61;69;0;0;0.93999999999999995;0.060000000000000102;0.0;0.0;18;93;72;16;0.40999999999999998;0.34999999999999998;0.089999999999999997;0.14999999999999999;1;3.0666922601758415;66;12;21;2;
2019_03_04 11:47;23;4;0;timed;47;3;0;53;40;0;0;0.31;0.68999999999999995;0.0;0.0;96;24;7;88;0.11;0.27000000000000002;0.58999999999999997;0.029999999999999999;0;3.666479686515231;66;12;21;2;
2019_03_04 11:47;23;4;0;timed;48;21;0;64;28;0;0;0.080000000000000002;0.92000000000000004;0.0;0.0;50;1;88;13;0.57999999999999996;0.13;0.02;0.27000000000000002;1;3.7664964281339053;66;12;21;2;
2019_03_04 11:47;23;4;0;timed;49;101;0;30;96;61;45;0.65000000000000002;0.14000000000000001;0.11;0.10000000000000001;3;98;63;89;0.75;0.19;0.040000000000000001;0.02;0;1.8831281041748298;66;12;21;2;
2019_03_04 11:47;23;4;0;timed;50;7;0;49;29;0;0;0.95999999999999996;0.040000000000000001;0.0;0.0;23;99;64;25;0.68999999999999995;0.12;0.059999999999999998;0.13;0;2.3997991647156596;66;12;21;2;
2019_03_04 11:47;23;4;0;timed;51;57;1;52;35;23;47;0.22;0.68000000000000005;0.040000000000000001;0.059999999999999998;71;7;0;0;0.28999999999999998;0.70999999999999996;0.0;0.0;0;3.399855290834239;66;12;21;2;
2019_03_04 11:47;23;4;0;timed;52;78;1;74;36;34;3;0.14999999999999999;0.64000000000000001;0.13;0.080000000000000002;1;83;0;0;0.41999999999999998;0.57999999999999996;0.0;0.0;0;2.999780627060318;66;12;21;2;
2019_03_04 11:47;23;4;0;timed;53;85;1;31;22;82;50;0.11;0.69999999999999996;0.01;0.17999999999999999;3;99;0;0;0.62;0.38;0.0;0.0;0;3.1831436911998026;66;12;21;2;
2019_03_04 11:47;23;4;0;timed;54;15;0;77;81;0;0;0.28000000000000003;0.71999999999999997;0.0;0.0;98;14;87;18;0.55000000000000004;0.23000000000000001;0.16;0.059999999999999901;0;2.3998103899375565;66;12;21;2;
2019_03_04 11:47;23;4;0;timed;55;82;1;78;66;30;27;0.28999999999999998;0.58999999999999997;0.080000000000000002;0.040000000000000001;90;6;0;0;0.82999999999999996;0.17000000000000001;0.0;0.0;1;2.8331261477796943;66;12;21;2;
2019_03_04 11:47;23;4;0;timed;56;6;0;9;51;0;0;0.14999999999999999;0.84999999999999998;0.0;0.0;6;40;50;73;0.42999999999999999;0.26000000000000001;0.059999999999999998;0.25;1;4.816866251141619;66;12;21;2;
2019_03_04 11:47;23;4;0;timed;57;140;1;36;32;26;27;0.39000000000000001;0.14999999999999999;0.19;0.27000000000000002;44;3;99;25;0.29999999999999999;0.34000000000000002;0.34000000000000002;0.0199999999999999;0;3.1664902702977997;66;12;21;2;
2019_03_04 11:47;23;4;0;timed;58;73;0;65;68;70;47;0.25;0.23000000000000001;0.20999999999999999;0.31;27;95;0;0;0.45000000000000001;0.55000000000000004;0.0;0.0;0;3.6998330328187876;66;12;21;2;
2019_03_04 11:47;23;4;0;timed;59;104;1;55;85;93;3;0.87;0.02;0.089999999999999997;0.02;1;2;90;8;0.35999999999999999;0.070000000000000007;0.40000000000000002;0.17000000000000001;0;2.2499937459469947;66;12;21;2;
2019_03_04 11:47;23;4;0;timed;60;117;0;65;85;92;41;0.23000000000000001;0.17999999999999999;0.54000000000000004;0.050000000000000003;99;93;10;13;0.64000000000000001;0.16;0.01;0.19;1;2.7165310338950803;66;12;21;2;
2019_03_04 11:47;23;4;0;timed;61;40;0;45;49;0;0;0.68999999999999995;0.31;0.0;0.0;2;92;65;73;0.23999999999999999;0.59999999999999998;0.11;0.050000000000000003;0;3.9497106778817397;66;12;21;2;
2019_03_04 11:47;23;4;0;timed;62;68;1;84;27;55;62;0.01;0.050000000000000003;0.40999999999999998;0.53000000000000003;9;82;0;0;0.37;0.63;0.0;0.0;0;3.216503451916651;66;12;21;2;
2019_03_04 11:47;23;4;0;timed;63;63;0;56;78;42;36;0.93000000000000005;0.040000000000000001;0.01;0.0199999999999999;2;72;0;0;0.32000000000000001;0.68000000000000005;0.0;0.0;0;2.699801922914048;66;12;21;2;
2019_03_04 11:47;23;4;0;timed;64;36;0;70;17;0;0;0.33000000000000002;0.67000000000000004;0.0;0.0;84;1;12;88;0.22;0.27000000000000002;0.14000000000000001;0.37;1;3.166459481111815;66;12;21;2;
2019_03_04 11:47;23;4;0;timed;65;128;1;70;49;27;54;0.27000000000000002;0.53000000000000003;0.02;0.17999999999999999;72;97;6;20;0.29999999999999999;0.39000000000000001;0.22;0.0899999999999999;1;4.766406626344178;66;12;21;2;
2019_03_04 11:47;23;4;0;timed;66;137;1;71;22;28;17;0.25;0.46000000000000002;0.050000000000000003;0.23999999999999999;3;98;92;69;0.42999999999999999;0.23999999999999999;0.20000000000000001;0.13;1;3.566636134059081;66;12;21;2;
2019_03_04 11:47;23;4;0;timed;67;8;1;50;36;0;0;0.080000000000000002;0.92000000000000004;0.0;0.0;6;19;84;29;0.54000000000000004;0.070000000000000007;0.17000000000000001;0.22;0;2.533294333699814;66;12;21;2;
2019_03_04 11:47;23;4;0;timed;68;49;1;21;30;0;0;0.53000000000000003;0.46999999999999997;0.0;0.0;93;99;89;25;0.44;0.02;0.11;0.42999999999999999;1;3.5997941614732554;66;12;21;2;
2019_03_04 11:47;23;4;0;timed;69;28;1;47;30;0;0;0.97999999999999998;0.02;0.0;0.0;55;48;77;13;0.070000000000000007;0.26000000000000001;0.42999999999999999;0.23999999999999999;0;5.533082337335145;66;12;21;2;
2019_03_04 11:47;23;4;0;timed;70;75;0;67;80;36;81;0.81999999999999995;0.080000000000000002;0.059999999999999998;0.040000000000000001;3;97;0;0;0.32000000000000001;0.68000000000000005;0.0;0.0;0;3.2664842407484684;66;12;21;2;
2019_03_04 11:47;23;4;0;timed;71;130;1;37;79;23;95;0.94999999999999996;0.029999999999999999;0.01;0.01;94;4;58;49;0.46000000000000002;0.5;0.029999999999999999;0.01;0;3.166443765800068;66;12;21;2;
2019_03_04 11:47;23;4;0;timed;72;123;0;26;24;51;92;0.72999999999999998;0.16;0.070000000000000007;0.040000000000000001;6;90;82;49;0.64000000000000001;0.25;0.050000000000000003;0.059999999999999998;0;3.2165133942580724;66;12;21;2;
2019_03_04 11:47;23;4;0;timed;73;43;0;60;83;0;0;0.23000000000000001;0.77000000000000002;0.0;0.0;72;5;70;12;0.29999999999999999;0.40999999999999998;0.12;0.17000000000000001;0;2.699838164347966;66;12;21;2;
2019_03_04 11:47;23;4;0;timed;74;50;1;15;20;0;0;0.82999999999999996;0.17000000000000001;0.0;0.0;97;18;88;87;0.56999999999999995;0.39000000000000001;0.01;0.029999999999999999;1;2.733164249395486;66;12;21;2;
2019_03_04 11:47;23;4;0;timed;75;145;0;91;89;90;74;0.57999999999999996;0.29999999999999999;0.11;0.010000000000000101;2;75;84;39;0.32000000000000001;0.27000000000000002;0.39000000000000001;0.0199999999999999;0;3.016439179495137;66;12;21;2;
