date;id;block;order;cond;trial;gameid;leftright;oa1;oa2;oa3;oa4;pa1;pa2;pa3;pa4;ob1;ob2;ob3;ob4;pb1;pb2;pb3;pb4;choice;rt;paytrial;payout;alter;geschlecht;comment
2019_03_04 10:34;20;0;1;practice;1;30;1;54;78;85;25;0.20999999999999999;0.60999999999999999;0.089999999999999997;0.090000000000000094;87;20;0;0;0.58999999999999997;0.40999999999999998;0.0;0.0;1;8.96365858680565;46;44;21;2; 
2019_03_04 10:34;20;0;1;practice;2;34;1;57;23;66;79;0.56000000000000005;0.23000000000000001;0.13;0.079999999999999905;85;9;0;0;0.56000000000000005;0.44;0.0;0.0;1;5.566549645633131;46;44;21;2; 
2019_03_04 10:34;20;0;1;practice;3;38;0;51;89;10;60;0.57999999999999996;0.029999999999999999;0.080000000000000002;0.31;8;84;0;0;0.33000000000000002;0.67000000000000004;0.0;0.0;1;4.116477515091901;46;44;21;2; 
2019_03_04 10:34;20;0;1;practice;4;61;1;51;48;56;88;0.91000000000000003;0.02;0.01;0.059999999999999998;78;21;14;82;0.55000000000000004;0.29999999999999999;0.070000000000000007;0.080000000000000002;0;9.149801889569972;46;44;21;2; 
2019_03_04 10:34;20;0;1;practice;5;44;0;69;48;22;63;0.39000000000000001;0.40999999999999998;0.19;0.01;1;94;0;0;0.22;0.78000000000000003;0.0;0.0;1;7.0831428774863525;46;44;21;2; 
2019_03_04 10:34;20;0;1;practice;6;11;1;10;44;0;0;0.48999999999999999;0.51000000000000001;0.0;0.0;88;12;54;50;0.17000000000000001;0.75;0.02;0.059999999999999998;1;11.349956285491317;46;44;21;2; 
2019_03_04 10:34;20;0;1;practice;7;59;0;13;27;48;51;0.56999999999999995;0.13;0.13;0.17000000000000001;8;37;97;1;0.65000000000000002;0.16;0.14999999999999999;0.040000000000000001;1;7.766638934841467;46;44;21;2; 
2019_03_04 10:34;20;0;1;practice;8;71;1;94;87;26;75;0.71999999999999997;0.23999999999999999;0.02;0.02;90;27;12;83;0.16;0.73999999999999999;0.02;0.080000000000000002;0;5.0833622518321135;46;44;21;2; 
2019_03_04 10:34;20;0;1;practice;9;25;0;7;18;0;0;0.20999999999999999;0.79000000000000004;0.0;0.0;92;45;33;13;0.41999999999999998;0.17999999999999999;0.22;0.17999999999999999;1;3.9832136930644992;46;44;21;2; 
2019_03_04 10:34;20;0;1;practice;10;22;1;84;87;0;0;0.17000000000000001;0.82999999999999996;0.0;0.0;3;24;41;83;0.68000000000000005;0.11;0.10000000000000001;0.11;0;4.850081046633022;46;44;21;2; 
2019_03_04 10:34;20;0;1;practice;11;67;0;74;31;10;77;0.11;0.070000000000000007;0.77000000000000002;0.050000000000000003;2;23;8;97;0.56999999999999995;0.01;0.059999999999999998;0.35999999999999999;0;8.583124917013265;46;44;21;2; 
2019_03_04 10:34;20;0;1;practice;12;33;1;54;82;55;71;0.56000000000000005;0.20999999999999999;0.02;0.20999999999999999;13;99;0;0;0.5;0.5;0.0;0.0;1;5.083226586118144;46;44;21;2; 
2019_03_04 10:34;20;0;1;practice;13;19;0;25;73;0;0;0.69999999999999996;0.29999999999999999;0.0;0.0;87;84;1;86;0.040000000000000001;0.59999999999999998;0.28000000000000003;0.080000000000000002;1;4.666667415020129;46;44;21;2; 
2019_03_04 10:34;20;0;1;practice;14;24;0;19;38;0;0;0.89000000000000001;0.11;0.0;0.0;45;76;95;57;0.29999999999999999;0.22;0.40000000000000002;0.080000000000000002;1;3.883391630035476;46;44;21;2; 
2019_03_04 10:34;20;0;1;practice;15;20;1;32;11;0;0;0.40999999999999998;0.58999999999999997;0.0;0.0;1;86;42;65;0.45000000000000001;0.38;0.050000000000000003;0.12;1;4.166722900052264;46;44;21;2; 
2019_03_04 10:34;20;0;1;practice;16;1;1;67;36;0;0;0.14999999999999999;0.84999999999999998;0.0;0.0;1;4;81;77;0.25;0.54000000000000004;0.14000000000000001;0.070000000000000007;0;4.349842428922784;46;44;21;2; 
2019_03_04 10:34;20;0;1;practice;17;26;1;24;46;74;59;0.29999999999999999;0.11;0.25;0.34000000000000002;91;6;0;0;0.28999999999999998;0.70999999999999996;0.0;0.0;0;2.933265297350772;46;44;21;2; 
2019_03_04 10:34;20;0;1;practice;18;46;1;79;57;98;81;0.67000000000000004;0.070000000000000007;0.20999999999999999;0.050000000000000003;1;76;0;0;0.56000000000000005;0.44;0.0;0.0;0;3.3165571826175437;46;44;21;2; 
2019_03_04 10:34;20;0;1;practice;19;51;0;38;13;51;84;0.91000000000000003;0.070000000000000007;0.01;0.0099999999999999603;4;89;35;16;0.80000000000000004;0.089999999999999997;0.059999999999999998;0.050000000000000003;0;3.3499117050332643;46;44;21;2; 
2019_03_04 10:34;20;0;1;practice;20;52;0;17;61;57;59;0.070000000000000007;0.050000000000000003;0.33000000000000002;0.55000000000000004;12;93;94;62;0.71999999999999997;0.16;0.080000000000000002;0.040000000000000001;0;4.216543648118204;46;44;21;2; 
2019_03_04 10:34;20;0;1;practice;21;57;0;39;68;59;91;0.73999999999999999;0.040000000000000001;0.14999999999999999;0.070000000000000007;9;22;40;84;0.29999999999999999;0.32000000000000001;0.040000000000000001;0.34000000000000002;1;5.566543231178912;46;44;21;2; 
2019_03_04 10:34;20;0;1;practice;22;14;0;92;56;0;0;0.11;0.89000000000000001;0.0;0.0;97;31;51;4;0.58999999999999997;0.22;0.080000000000000002;0.11;1;4.299693581503561;46;44;21;2; 
2019_03_04 10:34;20;0;1;practice;23;3;1;20;70;0;0;0.13;0.87;0.0;0.0;95;19;80;73;0.31;0.57999999999999996;0.029999999999999999;0.080000000000000002;0;3.2998587537094863;46;44;21;2; 
2019_03_04 10:34;20;0;1;practice;24;23;0;99;93;0;0;0.57999999999999996;0.41999999999999998;0.0;0.0;64;10;80;81;0.13;0.55000000000000004;0.02;0.29999999999999999;0;2.0833885510965047;46;44;21;2; 
2019_03_04 10:34;20;0;1;practice;25;55;1;53;11;80;74;0.31;0.37;0.28000000000000003;0.039999999999999897;6;93;98;96;0.69999999999999996;0.22;0.050000000000000003;0.029999999999999999;0;3.316865717883047;46;44;21;2; 
2019_03_04 10:34;20;0;1;practice;26;40;1;29;65;30;41;0.70999999999999996;0.01;0.14999999999999999;0.13;2;59;0;0;0.32000000000000001;0.68000000000000005;0.0;0.0;0;7.716632167592252;46;44;21;2; 
2019_03_04 10:34;20;0;1;practice;27;64;1;44;60;96;45;0.53000000000000003;0.10000000000000001;0.029999999999999999;0.34000000000000002;88;20;43;31;0.47999999999999998;0.38;0.050000000000000003;0.089999999999999997;1;3.8833371071705187;46;44;21;2; 
2019_03_04 10:34;20;0;1;practice;28;12;0;45;86;0;0;0.97999999999999998;0.02;0.0;0.0;6;23;95;81;0.14999999999999999;0.40999999999999998;0.050000000000000003;0.39000000000000001;0;4.066767416366929;46;44;21;2; 
2019_03_04 10:34;20;0;1;practice;29;18;1;47;36;0;0;0.089999999999999997;0.91000000000000003;0.0;0.0;2;44;81;9;0.20000000000000001;0.25;0.51000000000000001;0.040000000000000001;1;4.316528959016978;46;44;21;2; 
2019_03_04 10:34;20;0;1;practice;30;35;1;84;95;4;35;0.89000000000000001;0.050000000000000003;0.01;0.050000000000000003;5;98;0;0;0.19;0.81000000000000005;0.0;0.0;1;2.6665949316829938;46;44;21;2; 
2019_03_04 10:34;20;0;1;practice;31;70;0;21;42;14;63;0.96999999999999997;0.01;0.01;0.01;70;2;6;76;0.23999999999999999;0.42999999999999999;0.01;0.32000000000000001;1;5.566524949983432;46;44;21;2; 
2019_03_04 10:34;20;0;1;practice;32;58;0;44;50;85;42;0.38;0.57999999999999996;0.02;0.02;37;88;19;12;0.20000000000000001;0.29999999999999999;0.46000000000000002;0.040000000000000001;1;3.4832338985970637;46;44;21;2; 
2019_03_04 10:34;20;0;1;practice;33;10;0;34;59;0;0;0.16;0.83999999999999997;0.0;0.0;21;61;96;7;0.19;0.01;0.5;0.29999999999999999;0;0.6332618976903177;46;44;21;2; 
2019_03_04 10:34;20;0;1;practice;34;72;1;86;85;97;43;0.51000000000000001;0.14999999999999999;0.33000000000000002;0.0099999999999999499;72;29;10;90;0.01;0.11;0.65000000000000002;0.23000000000000001;0;1.0334164219011654;46;44;21;2; 
2019_03_04 10:34;20;0;1;practice;35;6;1;42;59;0;0;0.35999999999999999;0.64000000000000001;0.0;0.0;77;19;6;7;0.44;0.14999999999999999;0.17999999999999999;0.23000000000000001;0;1.1500652029308185;46;44;21;2; 
2019_03_04 10:34;20;0;1;practice;36;9;1;57;44;0;0;0.14999999999999999;0.84999999999999998;0.0;0.0;38;35;64;95;0.34000000000000002;0.45000000000000001;0.089999999999999997;0.12;0;1.6833703340453212;46;44;21;2; 
2019_03_04 10:34;20;0;1;practice;37;13;1;15;25;0;0;0.29999999999999999;0.69999999999999996;0.0;0.0;3;43;35;73;0.44;0.40000000000000002;0.01;0.14999999999999999;0;4.016480337451867;46;44;21;2; 
2019_03_04 10:34;20;0;1;practice;38;73;1;99;88;95;28;0.83999999999999997;0.14000000000000001;0.01;0.01;90;93;10;74;0.080000000000000002;0.46000000000000002;0.34999999999999998;0.11;0;1.7500848311619848;46;44;21;2; 
2019_03_04 10:34;20;0;1;practice;39;4;1;40;59;0;0;0.19;0.81000000000000005;0.0;0.0;10;88;13;45;0.56000000000000005;0.28999999999999998;0.01;0.14000000000000001;1;4.166550351223123;46;44;21;2; 
2019_03_04 10:34;20;0;1;practice;40;60;0;39;93;27;78;0.85999999999999999;0.02;0.11;0.01;22;5;62;95;0.059999999999999998;0.56999999999999995;0.14000000000000001;0.23000000000000001;0;1.7666126355770757;46;44;21;2; 
2019_03_04 10:34;20;0;1;practice;41;28;0;37;83;75;8;0.83999999999999997;0.070000000000000007;0.01;0.080000000000000002;94;2;0;0;0.19;0.81000000000000005;0.0;0.0;1;1.4500862423419676;46;44;21;2; 
2019_03_04 10:34;20;0;1;practice;42;49;0;14;31;42;22;0.77000000000000002;0.089999999999999997;0.02;0.12;87;28;0;0;0.68000000000000005;0.32000000000000001;0.0;0.0;1;1.3498959896187444;46;44;21;2; 
2019_03_04 10:34;20;0;1;practice;43;31;1;72;59;40;92;0.59999999999999998;0.34999999999999998;0.02;0.029999999999999999;97;29;0;0;0.38;0.62;0.0;0.0;0;2.6166526297020027;46;44;21;2; 
2019_03_04 10:34;20;0;1;practice;44;39;1;53;65;48;75;0.92000000000000004;0.029999999999999999;0.01;0.040000000000000001;16;83;0;0;0.31;0.68999999999999995;0.0;0.0;1;1.8665206522982771;46;44;21;2; 
2019_03_04 10:34;20;0;1;practice;45;54;0;69;80;22;55;0.27000000000000002;0.31;0.059999999999999998;0.35999999999999999;52;2;49;90;0.059999999999999998;0.33000000000000002;0.20000000000000001;0.40999999999999998;0;2.5832243410595765;46;44;21;2; 
2019_03_04 10:34;20;0;1;practice;46;42;0;23;45;91;22;0.72999999999999998;0.02;0.20000000000000001;0.050000000000000003;2;86;0;0;0.40999999999999998;0.58999999999999997;0.0;0.0;1;1.7999318784923162;46;44;21;2; 
2019_03_04 10:34;20;0;1;practice;47;66;0;44;18;63;36;0.47999999999999998;0.10000000000000001;0.029999999999999999;0.39000000000000001;13;93;61;53;0.52000000000000002;0.45000000000000001;0.02;0.0099999999999999707;1;1.166597497463954;46;44;21;2; 
2019_03_04 10:34;20;0;1;practice;48;74;0;36;46;10;12;0.11;0.19;0.65000000000000002;0.049999999999999899;92;24;79;19;0.51000000000000001;0.40999999999999998;0.02;0.059999999999999998;0;0.5832227374457943;46;44;21;2; 
2019_03_04 10:34;20;0;1;practice;49;75;0;21;86;27;62;0.88;0.040000000000000001;0.070000000000000007;0.0099999999999999794;13;3;49;87;0.28999999999999998;0.39000000000000001;0.070000000000000007;0.25;0;1.0669159109911561;46;44;21;2; 
2019_03_04 10:34;20;0;1;practice;50;7;1;13;31;0;0;0.51000000000000001;0.48999999999999999;0.0;0.0;8;79;42;18;0.85999999999999999;0.089999999999999997;0.02;0.029999999999999999;1;1.8000220015792365;46;44;21;2; 
2019_03_04 10:34;20;0;1;practice;51;17;0;27;61;0;0;0.68999999999999995;0.31;0.0;0.0;3;91;69;43;0.29999999999999999;0.33000000000000002;0.27000000000000002;0.099999999999999895;1;2.899965297800918;46;44;21;2; 
2019_03_04 10:34;20;0;1;practice;52;37;1;50;66;99;12;0.26000000000000001;0.71999999999999997;0.01;0.01;22;90;0;0;0.37;0.63;0.0;0.0;1;1.5504564205157294;46;44;21;2; 
2019_03_04 10:34;20;0;1;practice;53;45;0;37;40;75;23;0.54000000000000004;0.38;0.059999999999999998;0.02;1;90;0;0;0.28000000000000003;0.71999999999999997;0.0;0.0;1;1.6332404092681827;46;44;21;2; 
2019_03_04 10:34;20;0;1;practice;54;2;1;41;60;0;0;0.97999999999999998;0.02;0.0;0.0;10;14;97;6;0.54000000000000004;0.17000000000000001;0.12;0.17000000000000001;0;1.7334441323455394;46;44;21;2; 
2019_03_04 10:34;20;0;1;practice;55;47;1;91;99;90;78;0.93000000000000005;0.040000000000000001;0.02;0.0099999999999999499;10;87;0;0;0.23000000000000001;0.77000000000000002;0.0;0.0;0;1.4332806920419898;46;44;21;2; 
2019_03_04 10:34;20;0;1;practice;56;43;0;11;17;21;44;0.16;0.46000000000000002;0.25;0.13;2;66;0;0;0.44;0.56000000000000005;0.0;0.0;1;1.5001276476468774;46;44;21;2; 
2019_03_04 10:34;20;0;1;practice;57;15;1;24;59;0;0;0.56999999999999995;0.42999999999999999;0.0;0.0;9;8;80;22;0.31;0.10000000000000001;0.55000000000000004;0.039999999999999897;0;1.8334403478174863;46;44;21;2; 
2019_03_04 10:34;20;0;1;practice;58;32;0;21;86;16;78;0.45000000000000001;0.41999999999999998;0.050000000000000003;0.080000000000000099;95;9;0;0;0.42999999999999999;0.56999999999999995;0.0;0.0;1;1.6667398983572639;46;44;21;2; 
2019_03_04 10:34;20;0;1;practice;59;27;0;68;43;98;36;0.54000000000000004;0.44;0.01;0.0099999999999999603;97;13;0;0;0.27000000000000002;0.72999999999999998;0.0;0.0;1;1.233101921193338;46;44;21;2; 
2019_03_04 10:34;20;0;1;practice;60;21;1;59;69;0;0;0.34000000000000002;0.66000000000000003;0.0;0.0;64;18;5;24;0.14999999999999999;0.040000000000000001;0.51000000000000001;0.29999999999999999;1;1.533299037382676;46;44;21;2; 
2019_03_04 10:34;20;0;1;practice;61;50;0;17;12;21;14;0.55000000000000004;0.34000000000000002;0.059999999999999998;0.049999999999999899;13;93;0;0;0.28999999999999998;0.70999999999999996;0.0;0.0;0;0.9166409553945414;46;44;21;2; 
2019_03_04 10:34;20;0;1;practice;62;41;1;19;54;51;8;0.76000000000000001;0.070000000000000007;0.16;0.0099999999999999794;2;77;0;0;0.54000000000000004;0.46000000000000002;0.0;0.0;0;0.46646843863891263;46;44;21;2; 
2019_03_04 10:34;20;0;1;practice;63;65;0;35;15;77;1;0.62;0.33000000000000002;0.029999999999999999;0.02;68;3;25;96;0.38;0.28000000000000003;0.28000000000000003;0.059999999999999901;1;1.1167135670202697;46;44;21;2; 
2019_03_04 10:34;20;0;1;practice;64;8;0;20;44;0;0;0.26000000000000001;0.73999999999999999;0.0;0.0;99;3;69;24;0.20999999999999999;0.60999999999999999;0.12;0.060000000000000102;0;0.5999458620035512;46;44;21;2; 
2019_03_04 10:34;20;0;1;practice;65;5;0;23;58;0;0;0.71999999999999997;0.28000000000000003;0.0;0.0;94;12;52;3;0.11;0.84999999999999998;0.029999999999999999;0.01;1;0.5166477547163595;46;44;21;2; 
2019_03_04 10:34;20;0;1;practice;66;63;0;24;82;6;96;0.91000000000000003;0.070000000000000007;0.01;0.0099999999999999603;73;10;71;22;0.31;0.51000000000000001;0.050000000000000003;0.13;0;0.4834301809069075;46;44;21;2; 
2019_03_04 10:34;20;0;1;practice;67;29;0;66;40;92;49;0.46999999999999997;0.10000000000000001;0.34000000000000002;0.089999999999999997;8;94;0;0;0.44;0.56000000000000005;0.0;0.0;1;0.46674009079015377;46;44;21;2; 
2019_03_04 10:34;20;0;1;practice;68;69;0;38;74;27;73;0.22;0.19;0.45000000000000001;0.14000000000000001;1;97;79;84;0.28000000000000003;0.45000000000000001;0.17000000000000001;0.10000000000000001;0;0.5500786091406553;46;44;21;2; 
2019_03_04 10:34;20;0;1;practice;69;16;1;50;42;0;0;0.32000000000000001;0.68000000000000005;0.0;0.0;97;2;56;31;0.35999999999999999;0.16;0.16;0.32000000000000001;1;2.1667161648747424;46;44;21;2; 
2019_03_04 10:34;20;0;1;practice;70;36;0;56;89;86;77;0.66000000000000003;0.080000000000000002;0.14999999999999999;0.11;29;91;0;0;0.40999999999999998;0.58999999999999997;0.0;0.0;1;1.2999578570334052;46;44;21;2; 
2019_03_04 10:34;20;0;1;practice;71;48;0;20;25;24;35;0.32000000000000001;0.13;0.48999999999999999;0.059999999999999901;44;76;0;0;0.29999999999999999;0.69999999999999996;0.0;0.0;1;2.166560293627299;46;44;21;2; 
2019_03_04 10:34;20;0;1;practice;72;68;1;39;58;40;8;0.48999999999999999;0.44;0.02;0.050000000000000003;92;83;51;2;0.57999999999999996;0.13;0.02;0.27000000000000002;1;1.9000660047377096;46;44;21;2; 
2019_03_04 10:34;20;0;1;practice;73;56;1;47;52;64;10;0.77000000000000002;0.040000000000000001;0.11;0.080000000000000002;1;5;12;99;0.14000000000000001;0.28999999999999998;0.27000000000000002;0.29999999999999999;0;1.8833980444887857;46;44;21;2; 
2019_03_04 10:34;20;0;1;practice;74;53;1;47;24;95;38;0.57999999999999996;0.28000000000000003;0.02;0.12;8;22;93;96;0.54000000000000004;0.34000000000000002;0.10000000000000001;0.0199999999999999;0;2.416592205539928;46;44;21;2; 
2019_03_04 10:34;20;0;1;practice;75;62;0;65;52;74;55;0.16;0.12;0.14999999999999999;0.56999999999999995;72;86;2;68;0.12;0.53000000000000003;0.22;0.13;1;1.0166381330345757;46;44;21;2; 
2019_03_04 10:34;20;1;1;timed;1;135;0;48;60;41;51;0.14000000000000001;0.40000000000000002;0.089999999999999997;0.37;94;1;85;65;0.64000000000000001;0.29999999999999999;0.01;0.050000000000000003;1;1.2809287360514645;46;44;21;2; 
2019_03_04 10:34;20;1;1;timed;2;123;0;26;24;51;92;0.72999999999999998;0.16;0.070000000000000007;0.040000000000000001;6;90;82;49;0.64000000000000001;0.25;0.050000000000000003;0.059999999999999998;NA;1.4332524684423333;46;44;21;2; 
2019_03_04 10:34;20;1;1;timed;3;20;0;44;40;0;0;0.91000000000000003;0.089999999999999997;0.0;0.0;29;5;80;99;0.25;0.40000000000000002;0.26000000000000001;0.089999999999999997;0;0.8832825843064711;46;44;21;2; 
2019_03_04 10:34;20;1;1;timed;4;55;1;74;55;47;48;0.60999999999999999;0.31;0.070000000000000007;0.01;97;6;0;0;0.42999999999999999;0.56999999999999995;0.0;0.0;0;1.133219562290833;46;44;21;2; 
2019_03_04 10:34;20;1;1;timed;5;12;1;53;68;0;0;0.31;0.68999999999999995;0.0;0.0;69;54;97;29;0.25;0.20999999999999999;0.20000000000000001;0.34000000000000002;0;0.9332527891656355;46;44;21;2; 
2019_03_04 10:34;20;1;1;timed;6;150;0;25;21;78;38;0.84999999999999998;0.059999999999999998;0.050000000000000003;0.040000000000000001;31;43;64;95;0.059999999999999998;0.45000000000000001;0.13;0.35999999999999999;0;0.7833004806352619;46;44;21;2; 
2019_03_04 10:34;20;1;1;timed;7;131;1;83;41;81;88;0.23999999999999999;0.58999999999999997;0.10000000000000001;0.070000000000000007;82;97;4;17;0.26000000000000001;0.46999999999999997;0.11;0.16;0;0.8832585301024665;46;44;21;2; 
2019_03_04 10:34;20;1;1;timed;8;84;1;43;10;5;45;0.78000000000000003;0.13;0.059999999999999998;0.029999999999999999;87;1;0;0;0.57999999999999996;0.41999999999999998;0.0;0.0;1;1.1001880076637462;46;44;21;2; 
2019_03_04 10:34;20;1;1;timed;9;10;1;45;62;0;0;0.059999999999999998;0.93999999999999995;0.0;0.0;17;99;28;67;0.58999999999999997;0.34000000000000002;0.01;0.059999999999999998;0;0.9999156499225137;46;44;21;2; 
2019_03_04 10:34;20;1;1;timed;10;93;0;87;81;73;98;0.80000000000000004;0.040000000000000001;0.14999999999999999;0.0099999999999999499;5;71;0;0;0.51000000000000001;0.48999999999999999;0.0;0.0;0;0.8999377156460469;46;44;21;2; 
2019_03_04 10:34;20;1;1;timed;11;140;0;36;32;26;27;0.39000000000000001;0.14999999999999999;0.19;0.27000000000000002;44;3;99;25;0.29999999999999999;0.34000000000000002;0.34000000000000002;0.0199999999999999;1;1.0165787993291815;46;44;21;2; 
2019_03_04 10:34;20;1;1;timed;12;11;1;17;36;0;0;0.14000000000000001;0.85999999999999999;0.0;0.0;19;41;34;95;0.88;0.02;0.050000000000000003;0.050000000000000003;1;0.9500686025921823;46;44;21;2; 
2019_03_04 10:34;20;1;1;timed;13;149;0;14;89;73;53;0.93999999999999995;0.01;0.01;0.040000000000000001;97;45;6;13;0.34000000000000002;0.01;0.40999999999999998;0.23999999999999999;1;0.9832592356915484;46;44;21;2; 
2019_03_04 10:34;20;1;1;timed;14;100;1;27;14;59;52;0.02;0.95999999999999996;0.01;0.01;17;98;0;0;0.48999999999999999;0.51000000000000001;0.0;0.0;0;0.9832682159285469;46;44;21;2; 
2019_03_04 10:34;20;1;1;timed;15;59;1;56;47;83;90;0.31;0.12;0.54000000000000004;0.029999999999999898;10;98;0;0;0.46999999999999997;0.53000000000000003;0.0;0.0;1;1.1499276128806741;46;44;21;2; 
2019_03_04 10:34;20;1;1;timed;16;54;1;44;79;78;52;0.79000000000000004;0.19;0.01;0.0099999999999999603;96;1;0;0;0.28000000000000003;0.71999999999999997;0.0;0.0;0;0.7834371085173188;46;44;21;2; 
2019_03_04 10:34;20;1;1;timed;17;136;0;29;67;14;75;0.46000000000000002;0.29999999999999999;0.20999999999999999;0.0300000000000001;70;86;1;85;0.31;0.39000000000000001;0.27000000000000002;0.029999999999999898;0;0.8499229303279208;46;44;21;2; 
2019_03_04 10:34;20;1;1;timed;18;21;1;64;28;0;0;0.080000000000000002;0.92000000000000004;0.0;0.0;50;1;88;13;0.57999999999999996;0.13;0.02;0.27000000000000002;0;0.9832890629058966;46;44;21;2; 
2019_03_04 10:34;20;1;1;timed;19;118;0;62;52;65;68;0.40999999999999998;0.44;0.10000000000000001;0.0500000000000001;79;20;14;37;0.56999999999999995;0.23999999999999999;0.14000000000000001;0.050000000000000003;1;0.9499393513315226;46;44;21;2; 
2019_03_04 10:34;20;1;1;timed;20;46;0;5;19;0;0;0.32000000000000001;0.68000000000000005;0.0;0.0;88;38;97;66;0.60999999999999999;0.20000000000000001;0.040000000000000001;0.14999999999999999;0;1.3332841558485597;46;44;21;2; 
2019_03_04 10:34;20;1;1;timed;21;58;0;37;58;76;34;0.20999999999999999;0.57999999999999996;0.19;0.020000000000000101;86;5;0;0;0.47999999999999998;0.52000000000000002;0.0;0.0;0;1.2666280302682935;46;44;21;2; 
2019_03_04 10:34;20;1;1;timed;22;39;0;14;33;0;0;0.78000000000000003;0.22;0.0;0.0;93;84;1;25;0.14000000000000001;0.23999999999999999;0.39000000000000001;0.23000000000000001;1;1.1667604246113115;46;44;21;2; 
2019_03_04 10:34;20;1;1;timed;23;42;1;70;48;0;0;0.79000000000000004;0.20999999999999999;0.0;0.0;51;8;12;67;0.19;0.26000000000000001;0.28999999999999998;0.26000000000000001;0;0.8500941962656725;46;44;21;2; 
2019_03_04 10:34;20;1;1;timed;24;36;0;70;17;0;0;0.33000000000000002;0.67000000000000004;0.0;0.0;84;1;12;88;0.22;0.27000000000000002;0.14000000000000001;0.37;0;1.000094933928267;46;44;21;2; 
2019_03_04 10:34;20;1;1;timed;25;75;1;67;80;36;81;0.81999999999999995;0.080000000000000002;0.059999999999999998;0.040000000000000001;3;97;0;0;0.32000000000000001;0.68000000000000005;0.0;0.0;0;0.8998787026639548;46;44;21;2; 
2019_03_04 10:34;20;1;1;timed;26;7;0;49;29;0;0;0.95999999999999996;0.040000000000000001;0.0;0.0;23;99;64;25;0.68999999999999995;0.12;0.059999999999999998;0.13;0;1.233289223267093;46;44;21;2; 
2019_03_04 10:34;20;1;1;timed;27;37;0;14;98;0;0;0.93000000000000005;0.070000000000000007;0.0;0.0;41;2;87;66;0.17999999999999999;0.48999999999999999;0.32000000000000001;0.010000000000000101;0;1.0165662911431355;46;44;21;2; 
2019_03_04 10:34;20;1;1;timed;28;45;1;97;87;0;0;0.71999999999999997;0.28000000000000003;0.0;0.0;96;11;14;4;0.25;0.029999999999999999;0.14000000000000001;0.57999999999999996;0;0.8665979464767588;46;44;21;2; 
2019_03_04 10:34;20;1;1;timed;29;137;0;71;22;28;17;0.25;0.46000000000000002;0.050000000000000003;0.23999999999999999;3;98;92;69;0.42999999999999999;0.23999999999999999;0.20000000000000001;0.13;0;1.1167475636293602;46;44;21;2; 
2019_03_04 10:34;20;1;1;timed;30;26;1;76;41;0;0;0.57999999999999996;0.41999999999999998;0.0;0.0;61;79;84;2;0.13;0.029999999999999999;0.67000000000000004;0.17000000000000001;0;0.9667352799488071;46;44;21;2; 
2019_03_04 10:34;20;1;1;timed;31;24;0;35;27;0;0;0.070000000000000007;0.93000000000000005;0.0;0.0;62;3;81;95;0.35999999999999999;0.55000000000000004;0.01;0.080000000000000002;1;0.9667468259676752;46;44;21;2; 
2019_03_04 10:34;20;1;1;timed;32;9;0;61;69;0;0;0.93999999999999995;0.060000000000000102;0.0;0.0;18;93;72;16;0.40999999999999998;0.34999999999999998;0.089999999999999997;0.14999999999999999;0;0.9666169332622303;46;44;21;2; 
2019_03_04 10:34;20;1;1;timed;33;72;0;63;82;51;61;0.01;0.96999999999999997;0.01;0.01;92;12;0;0;0.89000000000000001;0.11;0.0;0.0;1;1.0666381651062693;46;44;21;2; 
2019_03_04 10:34;20;1;1;timed;34;25;1;50;53;0;0;0.82999999999999996;0.17000000000000001;0.0;0.0;83;16;97;4;0.45000000000000001;0.29999999999999999;0.11;0.14000000000000001;0;1.1499224813160254;46;44;21;2; 
2019_03_04 10:34;20;1;1;timed;35;57;1;52;35;23;47;0.22;0.68000000000000005;0.040000000000000001;0.059999999999999998;71;7;0;0;0.28999999999999998;0.70999999999999996;0.0;0.0;1;1.1332586904636628;46;44;21;2; 
2019_03_04 10:34;20;1;1;timed;36;1;0;22;51;0;0;0.26000000000000001;0.73999999999999999;0.0;0.0;14;11;92;31;0.29999999999999999;0.40999999999999998;0.14999999999999999;0.14000000000000001;0;1.033438231047512;46;44;21;2; 
2019_03_04 10:34;20;1;1;timed;37;49;1;21;30;0;0;0.53000000000000003;0.46999999999999997;0.0;0.0;93;99;89;25;0.44;0.02;0.11;0.42999999999999999;1;1.0999150726211155;46;44;21;2; 
2019_03_04 10:34;20;1;1;timed;38;79;0;52;46;29;22;0.17999999999999999;0.51000000000000001;0.23999999999999999;0.070000000000000104;93;14;0;0;0.45000000000000001;0.55000000000000004;0.0;0.0;1;0.9000217450011405;46;44;21;2; 
2019_03_04 10:34;20;1;1;timed;39;52;0;71;51;10;54;0.22;0.12;0.19;0.46999999999999997;91;1;0;0;0.29999999999999999;0.69999999999999996;0.0;0.0;1;0.933416678480171;46;44;21;2; 
2019_03_04 10:34;20;1;1;timed;40;145;1;91;89;90;74;0.57999999999999996;0.29999999999999999;0.11;0.010000000000000101;2;75;84;39;0.32000000000000001;0.27000000000000002;0.39000000000000001;0.0199999999999999;0;0.8833932336483485;46;44;21;2; 
2019_03_04 10:34;20;1;1;timed;41;148;1;37;63;55;10;0.72999999999999998;0.070000000000000007;0.029999999999999999;0.17000000000000001;80;14;23;70;0.46999999999999997;0.10000000000000001;0.23000000000000001;0.20000000000000001;1;1.0832516024911456;46;44;21;2; 
2019_03_04 10:34;20;1;1;timed;42;106;1;85;69;22;61;0.10000000000000001;0.58999999999999997;0.17999999999999999;0.13;20;79;91;84;0.55000000000000004;0.14999999999999999;0.26000000000000001;0.039999999999999897;0;0.7834290904502268;46;44;21;2; 
2019_03_04 10:34;20;1;1;timed;43;19;0;22;53;0;0;0.13;0.87;0.0;0.0;4;93;96;65;0.46999999999999997;0.059999999999999998;0.26000000000000001;0.20999999999999999;0;1.0166326807484438;46;44;21;2; 
2019_03_04 10:34;20;1;1;timed;44;142;1;98;65;64;84;0.88;0.070000000000000007;0.01;0.040000000000000001;5;68;60;16;0.46000000000000002;0.080000000000000002;0.27000000000000002;0.19;0;0.9834147862165992;46;44;21;2; 
2019_03_04 10:34;20;1;1;timed;45;35;1;33;37;0;0;0.88;0.12;0.0;0.0;63;4;79;98;0.16;0.46000000000000002;0.17000000000000001;0.20999999999999999;1;0.9501491039973189;46;44;21;2; 
2019_03_04 10:34;20;1;1;timed;46;76;1;39;62;9;28;0.01;0.51000000000000001;0.26000000000000001;0.22;77;7;0;0;0.57999999999999996;0.41999999999999998;0.0;0.0;0;1.3000649784253255;46;44;21;2; 
2019_03_04 10:34;20;1;1;timed;47;85;1;31;22;82;50;0.11;0.69999999999999996;0.01;0.17999999999999999;3;99;0;0;0.62;0.38;0.0;0.0;0;1.2502577007135187;46;44;21;2; 
2019_03_04 10:34;20;1;1;timed;48;128;0;70;49;27;54;0.27000000000000002;0.53000000000000003;0.02;0.17999999999999999;72;97;6;20;0.29999999999999999;0.39000000000000001;0.22;0.0899999999999999;0;1.3666781271585933;46;44;21;2; 
2019_03_04 10:34;20;1;1;timed;49;15;1;77;81;0;0;0.28000000000000003;0.71999999999999997;0.0;0.0;98;14;87;18;0.55000000000000004;0.23000000000000001;0.16;0.059999999999999901;1;0.9332665802430711;46;44;21;2; 
2019_03_04 10:34;20;1;1;timed;50;134;0;57;48;50;55;0.02;0.62;0.17999999999999999;0.17999999999999999;80;96;15;18;0.23999999999999999;0.35999999999999999;0.33000000000000002;0.070000000000000007;1;1.316597272958461;46;44;21;2; 
2019_03_04 10:34;20;1;1;timed;51;89;0;26;41;13;56;0.059999999999999998;0.40999999999999998;0.050000000000000003;0.47999999999999998;5;97;0;0;0.37;0.63;0.0;0.0;1;1.18328405963166;46;44;21;2; 
2019_03_04 10:34;20;1;1;timed;52;146;1;25;5;64;35;0.94999999999999996;0.02;0.01;0.02;47;97;12;79;0.20999999999999999;0.029999999999999999;0.02;0.73999999999999999;1;1.0668248257352388;46;44;21;2; 
2019_03_04 10:34;20;1;1;timed;53;77;0;24;17;99;41;0.17999999999999999;0.13;0.10000000000000001;0.58999999999999997;12;97;0;0;0.59999999999999998;0.40000000000000002;0.0;0.0;1;1.2333546507043138;46;44;21;2; 
2019_03_04 10:34;20;1;1;timed;54;30;0;33;30;0;0;0.71999999999999997;0.28000000000000003;0.0;0.0;9;88;1;14;0.55000000000000004;0.39000000000000001;0.01;0.049999999999999899;1;1.2998407932373084;46;44;21;2; 
2019_03_04 10:34;20;1;1;timed;55;96;1;51;54;39;7;0.17000000000000001;0.26000000000000001;0.10000000000000001;0.46999999999999997;24;96;0;0;0.28000000000000003;0.71999999999999997;0.0;0.0;1;1.2995120524392405;46;44;21;2; 
2019_03_04 10:34;20;1;1;timed;56;99;0;8;24;15;73;0.56000000000000005;0.35999999999999999;0.070000000000000007;0.0099999999999999499;88;12;0;0;0.52000000000000002;0.47999999999999998;0.0;0.0;1;1.0999766513850773;46;44;21;2; 
2019_03_04 10:34;20;1;1;timed;57;34;0;32;48;0;0;0.28000000000000003;0.71999999999999997;0.0;0.0;97;83;7;62;0.040000000000000001;0.54000000000000004;0.35999999999999999;0.059999999999999901;0;1.3999386778141343;46;44;21;2; 
2019_03_04 10:34;20;1;1;timed;58;144;1;99;93;90;71;0.65000000000000002;0.32000000000000001;0.01;0.02;97;14;48;73;0.23000000000000001;0.46000000000000002;0.13;0.17999999999999999;0;1.1167122841297896;46;44;21;2; 
2019_03_04 10:34;20;1;1;timed;59;6;0;9;51;0;0;0.14999999999999999;0.84999999999999998;0.0;0.0;6;40;50;73;0.42999999999999999;0.26000000000000001;0.059999999999999998;0.25;0;1.2667027586649056;46;44;21;2; 
2019_03_04 10:34;20;1;1;timed;60;28;0;47;30;0;0;0.97999999999999998;0.02;0.0;0.0;55;48;77;13;0.070000000000000007;0.26000000000000001;0.42999999999999999;0.23999999999999999;0;1.1000356643671694;46;44;21;2; 
2019_03_04 10:34;20;1;1;timed;61;4;0;40;43;0;0;0.58999999999999997;0.40999999999999998;0.0;0.0;2;33;88;81;0.69999999999999996;0.14000000000000001;0.13;0.029999999999999999;0;1.26656228210868;46;44;21;2; 
2019_03_04 10:34;20;1;1;timed;62;33;1;27;70;0;0;0.88;0.12;0.0;0.0;93;3;77;16;0.080000000000000002;0.40000000000000002;0.5;0.02;1;1.1333292494637135;46;44;21;2; 
2019_03_04 10:34;20;1;1;timed;63;91;0;74;81;86;48;0.93000000000000005;0.02;0.01;0.039999999999999897;7;64;0;0;0.13;0.87;0.0;0.0;1;1.1332429750500523;46;44;21;2; 
2019_03_04 10:34;20;1;1;timed;64;2;0;59;32;0;0;0.080000000000000002;0.92000000000000004;0.0;0.0;33;38;85;1;0.28999999999999998;0.050000000000000003;0.070000000000000007;0.58999999999999997;0;1.3165979144041557;46;44;21;2; 
2019_03_04 10:34;20;1;1;timed;65;130;1;37;79;23;95;0.94999999999999996;0.029999999999999999;0.01;0.01;94;4;58;49;0.46000000000000002;0.5;0.029999999999999999;0.01;0;1.083456223592293;46;44;21;2; 
2019_03_04 10:34;20;1;1;timed;66;56;1;28;84;37;41;0.68000000000000005;0.28000000000000003;0.02;0.0199999999999999;6;95;0;0;0.72999999999999998;0.27000000000000002;0.0;0.0;NA;1.4332720325282935;46;44;21;2; 
2019_03_04 10:34;20;1;1;timed;67;98;1;27;10;31;79;0.23000000000000001;0.67000000000000004;0.070000000000000007;0.029999999999999999;25;99;0;0;0.38;0.62;0.0;0.0;1;0.9668144984634637;46;44;21;2; 
2019_03_04 10:34;20;1;1;timed;68;61;0;43;18;39;70;0.75;0.089999999999999997;0.089999999999999997;0.070000000000000007;16;66;0;0;0.64000000000000001;0.35999999999999999;0.0;0.0;1;0.8666059645447604;46;44;21;2; 
2019_03_04 10:34;20;1;1;timed;69;66;1;89;23;27;15;0.070000000000000007;0.54000000000000004;0.17000000000000001;0.22;9;73;0;0;0.72999999999999998;0.27000000000000002;0.0;0.0;1;0.8332402168334738;46;44;21;2; 
2019_03_04 10:34;20;1;1;timed;70;38;0;40;70;0;0;0.53000000000000003;0.46999999999999997;0.0;0.0;97;90;6;96;0.56999999999999995;0.070000000000000007;0.27000000000000002;0.089999999999999997;1;0.7667787699519977;46;44;21;2; 
2019_03_04 10:34;20;1;1;timed;71;87;1;10;30;63;4;0.56999999999999995;0.12;0.16;0.14999999999999999;86;2;0;0;0.42999999999999999;0.56999999999999995;0.0;0.0;1;0.8666056438223677;46;44;21;2; 
2019_03_04 10:34;20;1;1;timed;72;101;1;30;96;61;45;0.65000000000000002;0.14000000000000001;0.11;0.10000000000000001;3;98;63;89;0.75;0.19;0.040000000000000001;0.02;0;0.949988742631831;46;44;21;2; 
2019_03_04 10:34;20;1;1;timed;73;14;0;36;40;0;0;0.54000000000000004;0.46000000000000002;0.0;0.0;99;70;1;11;0.16;0.089999999999999997;0.080000000000000002;0.67000000000000004;1;0.9665226407796581;46;44;21;2; 
2019_03_04 10:34;20;1;1;timed;74;117;1;65;85;92;41;0.23000000000000001;0.17999999999999999;0.54000000000000004;0.050000000000000003;99;93;10;13;0.64000000000000001;0.16;0.01;0.19;0;0.8500547473704501;46;44;21;2; 
2019_03_04 10:34;20;1;1;timed;75;32;0;19;81;0;0;0.93000000000000005;0.070000000000000007;0.0;0.0;1;65;41;68;0.45000000000000001;0.050000000000000003;0.059999999999999998;0.44;0;0.8998831927819992;46;44;21;2; 
2019_03_04 10:34;20;2;1;control;1;96;0;51;54;39;7;0.17000000000000001;0.26000000000000001;0.10000000000000001;0.46999999999999997;24;96;0;0;0.28000000000000003;0.71999999999999997;0.0;0.0;1;2.183346279840407;46;44;21;2; 
2019_03_04 10:34;20;2;1;control;2;75;0;67;80;36;81;0.81999999999999995;0.080000000000000002;0.059999999999999998;0.040000000000000001;3;97;0;0;0.32000000000000001;0.68000000000000005;0.0;0.0;0;11.23306022723773;46;44;21;2; 
2019_03_04 10:34;20;2;1;control;3;57;0;52;35;23;47;0.22;0.68000000000000005;0.040000000000000001;0.059999999999999998;71;7;0;0;0.28999999999999998;0.70999999999999996;0.0;0.0;0;7.2165083686186335;46;44;21;2; 
2019_03_04 10:34;20;2;1;control;4;18;0;68;50;0;0;0.029999999999999999;0.96999999999999997;0.0;0.0;34;64;15;89;0.65000000000000002;0.029999999999999999;0.050000000000000003;0.27000000000000002;1;9.466628158557796;46;44;21;2; 
2019_03_04 10:34;20;2;1;control;5;101;0;30;96;61;45;0.65000000000000002;0.14000000000000001;0.11;0.10000000000000001;3;98;63;89;0.75;0.19;0.040000000000000001;0.02;0;3.2500922077842915;46;44;21;2; 
2019_03_04 10:34;20;2;1;control;6;69;1;54;34;64;49;0.34000000000000002;0.25;0.20999999999999999;0.20000000000000001;14;98;0;0;0.62;0.38;0.0;0.0;0;3.96658165376175;46;44;21;2; 
2019_03_04 10:34;20;2;1;control;7;121;0;42;51;47;70;0.41999999999999998;0.17000000000000001;0.23999999999999999;0.17000000000000001;21;76;48;9;0.14999999999999999;0.34000000000000002;0.40999999999999998;0.10000000000000001;0;10.466500510910919;46;44;21;2; 
2019_03_04 10:34;20;2;1;control;8;54;1;44;79;78;52;0.79000000000000004;0.19;0.01;0.0099999999999999603;96;1;0;0;0.28000000000000003;0.71999999999999997;0.0;0.0;0;5.333140792788072;46;44;21;2; 
2019_03_04 10:34;20;2;1;control;9;150;1;25;21;78;38;0.84999999999999998;0.059999999999999998;0.050000000000000003;0.040000000000000001;31;43;64;95;0.059999999999999998;0.45000000000000001;0.13;0.35999999999999999;1;6.033242269459151;46;44;21;2; 
2019_03_04 10:34;20;2;1;control;10;79;0;52;46;29;22;0.17999999999999999;0.51000000000000001;0.23999999999999999;0.070000000000000104;93;14;0;0;0.45000000000000001;0.55000000000000004;0.0;0.0;0;5.816562634903676;46;44;21;2; 
2019_03_04 10:34;20;2;1;control;11;28;1;47;30;0;0;0.97999999999999998;0.02;0.0;0.0;55;48;77;13;0.070000000000000007;0.26000000000000001;0.42999999999999999;0.23999999999999999;0;11.133089028139693;46;44;21;2; 
2019_03_04 10:34;20;2;1;control;12;27;1;44;26;0;0;0.35999999999999999;0.64000000000000001;0.0;0.0;63;10;3;5;0.58999999999999997;0.19;0.14999999999999999;0.070000000000000007;0;6.4332303385745035;46;44;21;2; 
2019_03_04 10:34;20;2;1;control;13;62;1;12;45;16;50;0.20999999999999999;0.76000000000000001;0.02;0.01;92;15;0;0;0.20999999999999999;0.79000000000000004;0.0;0.0;0;7.733127899734427;46;44;21;2; 
2019_03_04 10:34;20;2;1;control;14;97;0;17;33;32;74;0.94999999999999996;0.01;0.029999999999999999;0.01;76;23;0;0;0.33000000000000002;0.67000000000000004;0.0;0.0;1;9.399769015491074;46;44;21;2; 
2019_03_04 10:34;20;2;1;control;15;129;0;12;29;81;36;0.17999999999999999;0.79000000000000004;0.01;0.02;5;19;95;92;0.47999999999999998;0.26000000000000001;0.13;0.13;1;10.083090599680872;46;44;21;2; 
2019_03_04 10:34;20;2;1;control;16;2;1;59;32;0;0;0.080000000000000002;0.92000000000000004;0.0;0.0;33;38;85;1;0.28999999999999998;0.050000000000000003;0.070000000000000007;0.58999999999999997;0;5.316531524798847;46;44;21;2; 
2019_03_04 10:34;20;2;1;control;17;83;1;17;12;7;41;0.65000000000000002;0.19;0.089999999999999997;0.070000000000000007;6;84;0;0;0.72999999999999998;0.27000000000000002;0.0;0.0;0;5.9832278048643275;46;44;21;2; 
2019_03_04 10:34;20;2;1;control;18;44;0;79;74;0;0;0.71999999999999997;0.28000000000000003;0.0;0.0;3;67;15;36;0.41999999999999998;0.53000000000000003;0.02;0.029999999999999999;0;4.933319178770034;46;44;21;2; 
2019_03_04 10:34;20;2;1;control;19;15;0;77;81;0;0;0.28000000000000003;0.71999999999999997;0.0;0.0;98;14;87;18;0.55000000000000004;0.23000000000000001;0.16;0.059999999999999901;0;2.5331989718915793;46;44;21;2; 
2019_03_04 10:34;20;2;1;control;20;38;0;40;70;0;0;0.53000000000000003;0.46999999999999997;0.0;0.0;97;90;6;96;0.56999999999999995;0.070000000000000007;0.27000000000000002;0.089999999999999997;1;4.7831660978117725;46;44;21;2; 
2019_03_04 10:34;20;2;1;control;21;43;0;60;83;0;0;0.23000000000000001;0.77000000000000002;0.0;0.0;72;5;70;12;0.29999999999999999;0.40999999999999998;0.12;0.17000000000000001;0;4.049864687081026;46;44;21;2; 
2019_03_04 10:34;20;2;1;control;22;74;1;66;47;52;44;0.41999999999999998;0.26000000000000001;0.17999999999999999;0.14000000000000001;17;99;0;0;0.47999999999999998;0.52000000000000002;0.0;0.0;1;3.633363246072804;46;44;21;2; 
2019_03_04 10:34;20;2;1;control;23;49;1;21;30;0;0;0.53000000000000003;0.46999999999999997;0.0;0.0;93;99;89;25;0.44;0.02;0.11;0.42999999999999999;1;5.533254136200412;46;44;21;2; 
2019_03_04 10:34;20;2;1;control;24;80;0;47;39;45;10;0.13;0.76000000000000001;0.059999999999999998;0.050000000000000003;2;87;0;0;0.48999999999999999;0.51000000000000001;0.0;0.0;0;6.233195251507823;46;44;21;2; 
2019_03_04 10:34;20;2;1;control;25;63;1;56;78;42;36;0.93000000000000005;0.040000000000000001;0.01;0.0199999999999999;2;72;0;0;0.32000000000000001;0.68000000000000005;0.0;0.0;1;4.649849356534105;46;44;21;2; 
2019_03_04 10:34;20;2;1;control;26;64;0;48;39;34;19;0.46000000000000002;0.5;0.02;0.02;13;92;0;0;0.68999999999999995;0.31;0.0;0.0;0;7.699976074084589;46;44;21;2; 
2019_03_04 10:34;20;2;1;control;27;143;0;88;44;56;73;0.95999999999999996;0.02;0.01;0.01;20;3;87;32;0.19;0.40000000000000002;0.28000000000000003;0.13;0;2.616755902420664;46;44;21;2; 
2019_03_04 10:34;20;2;1;control;28;130;0;37;79;23;95;0.94999999999999996;0.029999999999999999;0.01;0.01;94;4;58;49;0.46000000000000002;0.5;0.029999999999999999;0.01;0;4.283115744342467;46;44;21;2; 
2019_03_04 10:34;20;2;1;control;29;10;0;45;62;0;0;0.059999999999999998;0.93999999999999995;0.0;0.0;17;99;28;67;0.58999999999999997;0.34000000000000002;0.01;0.059999999999999998;0;3.6666266832326073;46;44;21;2; 
2019_03_04 10:34;20;2;1;control;30;100;0;27;14;59;52;0.02;0.95999999999999996;0.01;0.01;17;98;0;0;0.48999999999999999;0.51000000000000001;0.0;0.0;1;4.399912699273045;46;44;21;2; 
2019_03_04 10:34;20;2;1;control;31;37;1;14;98;0;0;0.93000000000000005;0.070000000000000007;0.0;0.0;41;2;87;66;0.17999999999999999;0.48999999999999999;0.32000000000000001;0.010000000000000101;1;3.4666688903444083;46;44;21;2; 
2019_03_04 10:34;20;2;1;control;32;120;0;64;40;48;51;0.19;0.02;0.070000000000000007;0.71999999999999997;97;9;79;94;0.23000000000000001;0.54000000000000004;0.01;0.22;0;9.483060708323137;46;44;21;2; 
2019_03_04 10:34;20;2;1;control;33;31;1;10;59;0;0;0.23999999999999999;0.76000000000000001;0.0;0.0;1;79;53;73;0.23000000000000001;0.58999999999999997;0.050000000000000003;0.13;1;4.300048942288413;46;44;21;2; 
2019_03_04 10:34;20;2;1;control;34;9;1;61;69;0;0;0.93999999999999995;0.060000000000000102;0.0;0.0;18;93;72;16;0.40999999999999998;0.34999999999999998;0.089999999999999997;0.14999999999999999;0;5.08319868324088;46;44;21;2; 
2019_03_04 10:34;20;2;1;control;35;103;0;38;49;89;50;0.89000000000000001;0.070000000000000007;0.01;0.029999999999999999;6;64;99;27;0.70999999999999996;0.17999999999999999;0.059999999999999998;0.050000000000000003;0;5.7166915012967365;46;44;21;2; 
2019_03_04 10:34;20;2;1;control;36;23;1;54;40;0;0;0.93000000000000005;0.070000000000000007;0.0;0.0;36;23;71;86;0.02;0.41999999999999998;0.19;0.37;1;4.266764016705565;46;44;21;2; 
2019_03_04 10:34;20;2;1;control;37;36;1;70;17;0;0;0.33000000000000002;0.67000000000000004;0.0;0.0;84;1;12;88;0.22;0.27000000000000002;0.14000000000000001;0.37;1;9.783123441688076;46;44;21;2; 
2019_03_04 10:34;20;2;1;control;38;125;1;37;41;10;35;0.91000000000000003;0.040000000000000001;0.029999999999999999;0.02;7;13;91;93;0.26000000000000001;0.39000000000000001;0.16;0.19;1;13.566421035819076;46;44;21;2; 
2019_03_04 10:34;20;2;1;control;39;85;0;31;22;82;50;0.11;0.69999999999999996;0.01;0.17999999999999999;3;99;0;0;0.62;0.38;0.0;0.0;0;9.0331717104591;46;44;21;2; 
2019_03_04 10:34;20;2;1;control;40;1;1;22;51;0;0;0.26000000000000001;0.73999999999999999;0.0;0.0;14;11;92;31;0.29999999999999999;0.40999999999999998;0.14999999999999999;0.14000000000000001;0;9.649816322093102;46;44;21;2; 
2019_03_04 10:34;20;2;1;control;41;93;1;87;81;73;98;0.80000000000000004;0.040000000000000001;0.14999999999999999;0.0099999999999999499;5;71;0;0;0.51000000000000001;0.48999999999999999;0.0;0.0;0;3.6665622179643833;46;44;21;2; 
2019_03_04 10:34;20;2;1;control;42;137;1;71;22;28;17;0.25;0.46000000000000002;0.050000000000000003;0.23999999999999999;3;98;92;69;0.42999999999999999;0.23999999999999999;0.20000000000000001;0.13;1;13.516615040997749;46;44;21;2; 
2019_03_04 10:34;20;2;1;control;43;139;0;44;31;16;8;0.79000000000000004;0.070000000000000007;0.13;0.0099999999999999499;92;58;2;88;0.55000000000000004;0.070000000000000007;0.34000000000000002;0.039999999999999897;1;7.433301539020249;46;44;21;2; 
2019_03_04 10:34;20;2;1;control;44;17;1;81;52;0;0;0.059999999999999998;0.93999999999999995;0.0;0.0;34;3;69;41;0.01;0.22;0.75;0.02;1;5.399965618523311;46;44;21;2; 
2019_03_04 10:34;20;2;1;control;45;60;0;64;59;57;96;0.83999999999999997;0.13;0.02;0.01;83;6;0;0;0.54000000000000004;0.46000000000000002;0.0;0.0;0;3.249867381151489;46;44;21;2; 
2019_03_04 10:34;20;2;1;control;46;20;0;44;40;0;0;0.91000000000000003;0.089999999999999997;0.0;0.0;29;5;80;99;0.25;0.40000000000000002;0.26000000000000001;0.089999999999999997;0;4.950039096101136;46;44;21;2; 
2019_03_04 10:34;20;2;1;control;47;30;1;33;30;0;0;0.71999999999999997;0.28000000000000003;0.0;0.0;9;88;1;14;0.55000000000000004;0.39000000000000001;0.01;0.049999999999999899;0;7.699980564202633;46;44;21;2; 
2019_03_04 10:34;20;2;1;control;48;65;0;75;64;59;52;0.59999999999999998;0.22;0.14000000000000001;0.040000000000000001;1;99;0;0;0.35999999999999999;0.64000000000000001;0.0;0.0;0;6.083219209495837;46;44;21;2; 
2019_03_04 10:34;20;2;1;control;49;76;1;39;62;9;28;0.01;0.51000000000000001;0.26000000000000001;0.22;77;7;0;0;0.57999999999999996;0.41999999999999998;0.0;0.0;1;6.066548042020258;46;44;21;2; 
2019_03_04 10:34;20;2;1;control;50;98;1;27;10;31;79;0.23000000000000001;0.67000000000000004;0.070000000000000007;0.029999999999999999;25;99;0;0;0.38;0.62;0.0;0.0;1;3.7498863037917545;46;44;21;2; 
2019_03_04 10:34;20;2;1;control;51;102;1;40;56;53;17;0.28000000000000003;0.26000000000000001;0.14999999999999999;0.31;1;76;29;62;0.68000000000000005;0.23000000000000001;0.050000000000000003;0.039999999999999897;0;7.383317543083649;46;44;21;2; 
2019_03_04 10:34;20;2;1;control;52;104;1;55;85;93;3;0.87;0.02;0.089999999999999997;0.02;1;2;90;8;0.35999999999999999;0.070000000000000007;0.40000000000000002;0.17000000000000001;0;3.0166288320751846;46;44;21;2; 
2019_03_04 10:34;20;2;1;control;53;115;0;50;28;61;79;0.83999999999999997;0.040000000000000001;0.059999999999999998;0.059999999999999998;1;26;97;55;0.45000000000000001;0.080000000000000002;0.40999999999999998;0.060000000000000102;1;2.7832424298212572;46;44;21;2; 
2019_03_04 10:34;20;2;1;control;54;78;0;74;36;34;3;0.14999999999999999;0.64000000000000001;0.13;0.080000000000000002;1;83;0;0;0.41999999999999998;0.57999999999999996;0.0;0.0;0;5.0998653605984146;46;44;21;2; 
2019_03_04 10:34;20;2;1;control;55;47;1;2;40;0;0;0.45000000000000001;0.55000000000000004;0.0;0.0;93;89;11;56;0.58999999999999997;0.070000000000000007;0.28000000000000003;0.059999999999999998;1;4.333256252970386;46;44;21;2; 
2019_03_04 10:34;20;2;1;control;56;144;0;99;93;90;71;0.65000000000000002;0.32000000000000001;0.01;0.02;97;14;48;73;0.23000000000000001;0.46000000000000002;0.13;0.17999999999999999;0;4.016540954046832;46;44;21;2; 
2019_03_04 10:34;20;2;1;control;57;138;1;8;20;43;51;0.38;0.5;0.02;0.10000000000000001;72;82;70;1;0.39000000000000001;0.050000000000000003;0.070000000000000007;0.48999999999999999;1;14.41660022360793;46;44;21;2; 
2019_03_04 10:34;20;2;1;control;58;110;0;47;44;23;52;0.13;0.27000000000000002;0.040000000000000001;0.56000000000000005;99;2;30;22;0.28999999999999998;0.5;0.11;0.10000000000000001;0;5.866489542193449;46;44;21;2; 
2019_03_04 10:34;20;2;1;control;59;89;0;26;41;13;56;0.059999999999999998;0.40999999999999998;0.050000000000000003;0.47999999999999998;5;97;0;0;0.37;0.63;0.0;0.0;1;8.78335243771744;46;44;21;2; 
2019_03_04 10:34;20;2;1;control;60;14;1;36;40;0;0;0.54000000000000004;0.46000000000000002;0.0;0.0;99;70;1;11;0.16;0.089999999999999997;0.080000000000000002;0.67000000000000004;0;4.400019820664966;46;44;21;2; 
2019_03_04 10:34;20;2;1;control;61;29;1;44;51;0;0;0.78000000000000003;0.22;0.0;0.0;74;1;68;82;0.69999999999999996;0.28000000000000003;0.01;0.01;1;6.133227901082137;46;44;21;2; 
2019_03_04 10:34;20;2;1;control;62;72;0;63;82;51;61;0.01;0.96999999999999997;0.01;0.01;92;12;0;0;0.89000000000000001;0.11;0.0;0.0;1;1.5501068327412213;46;44;21;2; 
2019_03_04 10:34;20;2;1;control;63;131;0;83;41;81;88;0.23999999999999999;0.58999999999999997;0.10000000000000001;0.070000000000000007;82;97;4;17;0.26000000000000001;0.46999999999999997;0.11;0.16;1;7.283271615589911;46;44;21;2; 
2019_03_04 10:34;20;2;1;control;64;146;1;25;5;64;35;0.94999999999999996;0.02;0.01;0.02;47;97;12;79;0.20999999999999999;0.029999999999999999;0.02;0.73999999999999999;1;5.766789353801869;46;44;21;2; 
2019_03_04 10:34;20;2;1;control;65;5;1;70;5;0;0;0.98999999999999999;0.01;0.0;0.0;92;87;47;1;0.44;0.02;0.16;0.38;0;2.84989021661022;46;44;21;2; 
2019_03_04 10:34;20;2;1;control;66;116;0;53;65;43;99;0.56999999999999995;0.37;0.050000000000000003;0.010000000000000101;57;72;11;87;0.67000000000000004;0.13;0.14999999999999999;0.050000000000000003;0;12.649812794143145;46;44;21;2; 
2019_03_04 10:34;20;2;1;control;67;12;1;53;68;0;0;0.31;0.68999999999999995;0.0;0.0;69;54;97;29;0.25;0.20999999999999999;0.20000000000000001;0.34000000000000002;0;7.399776712835774;46;44;21;2; 
2019_03_04 10:34;20;2;1;control;68;114;1;57;39;79;97;0.77000000000000002;0.02;0.13;0.080000000000000002;92;36;6;1;0.54000000000000004;0.12;0.13;0.20999999999999999;0;11.483231653537587;46;44;21;2; 
2019_03_04 10:34;20;2;1;control;69;53;0;26;70;50;80;0.29999999999999999;0.59999999999999998;0.040000000000000001;0.059999999999999998;89;1;0;0;0.40999999999999998;0.58999999999999997;0.0;0.0;0;3.2833944523954415;46;44;21;2; 
2019_03_04 10:34;20;2;1;control;70;99;1;8;24;15;73;0.56000000000000005;0.35999999999999999;0.070000000000000007;0.0099999999999999499;88;12;0;0;0.52000000000000002;0.47999999999999998;0.0;0.0;1;2.933353816825729;46;44;21;2; 
2019_03_04 10:34;20;2;1;control;71;59;1;56;47;83;90;0.31;0.12;0.54000000000000004;0.029999999999999898;10;98;0;0;0.46999999999999997;0.53000000000000003;0.0;0.0;0;4.783246278493607;46;44;21;2; 
2019_03_04 10:34;20;2;1;control;72;66;0;89;23;27;15;0.070000000000000007;0.54000000000000004;0.17000000000000001;0.22;9;73;0;0;0.72999999999999998;0.27000000000000002;0.0;0.0;0;4.233329955053705;46;44;21;2; 
2019_03_04 10:34;20;2;1;control;73;16;0;64;53;0;0;0.65000000000000002;0.34999999999999998;0.0;0.0;29;17;81;46;0.10000000000000001;0.01;0.44;0.45000000000000001;1;7.866629698027282;46;44;21;2; 
2019_03_04 10:34;20;2;1;control;74;147;0;39;43;76;28;0.14000000000000001;0.10000000000000001;0.10000000000000001;0.66000000000000003;6;31;68;85;0.27000000000000002;0.20000000000000001;0.22;0.31;1;5.883336786448126;46;44;21;2; 
2019_03_04 10:34;20;2;1;control;75;94;0;84;86;93;39;0.78000000000000003;0.20000000000000001;0.01;0.0099999999999999603;9;83;0;0;0.46999999999999997;0.53000000000000003;0.0;0.0;0;5.6663354669944965;46;44;21;2; 
2019_03_04 10:34;20;3;1;timed;1;27;0;44;26;0;0;0.35999999999999999;0.64000000000000001;0.0;0.0;63;10;3;5;0.58999999999999997;0.19;0.14999999999999999;0.070000000000000007;0;1.3322857459916122;46;44;21;2; 
2019_03_04 10:34;20;3;1;timed;2;74;1;66;47;52;44;0.41999999999999998;0.26000000000000001;0.17999999999999999;0.14000000000000001;17;99;0;0;0.47999999999999998;0.52000000000000002;0.0;0.0;NA;1.4332489404923763;46;44;21;2; 
2019_03_04 10:34;20;3;1;timed;3;108;1;48;72;39;70;0.14000000000000001;0.66000000000000003;0.02;0.17999999999999999;81;44;98;8;0.59999999999999998;0.029999999999999999;0.050000000000000003;0.32000000000000001;1;1.150087974244343;46;44;21;2; 
2019_03_04 10:34;20;3;1;timed;4;94;1;84;86;93;39;0.78000000000000003;0.20000000000000001;0.01;0.0099999999999999603;9;83;0;0;0.46999999999999997;0.53000000000000003;0.0;0.0;0;0.9999698520641687;46;44;21;2; 
2019_03_04 10:34;20;3;1;timed;5;141;0;93;28;60;91;0.81999999999999995;0.10000000000000001;0.01;0.070000000000000007;14;85;7;89;0.45000000000000001;0.070000000000000007;0.23999999999999999;0.23999999999999999;0;0.9167028548808958;46;44;21;2; 
2019_03_04 10:34;20;3;1;timed;6;114;1;57;39;79;97;0.77000000000000002;0.02;0.13;0.080000000000000002;92;36;6;1;0.54000000000000004;0.12;0.13;0.20999999999999999;1;1.0500321043446093;46;44;21;2; 
2019_03_04 10:34;20;3;1;timed;7;92;1;90;86;65;94;0.16;0.34000000000000002;0.28000000000000003;0.22;79;22;0;0;0.35999999999999999;0.64000000000000001;0.0;0.0;0;1.3498475604865234;46;44;21;2; 
2019_03_04 10:34;20;3;1;timed;8;133;1;59;88;60;36;0.67000000000000004;0.070000000000000007;0.12;0.14000000000000001;7;91;66;61;0.25;0.68999999999999995;0.01;0.0500000000000001;0;1.0500856650405694;46;44;21;2; 
2019_03_04 10:34;20;3;1;timed;9;88;1;77;13;12;7;0.12;0.19;0.66000000000000003;0.029999999999999898;94;2;0;0;0.40999999999999998;0.58999999999999997;0.0;0.0;0;1.1999414360298033;46;44;21;2; 
2019_03_04 10:34;20;3;1;timed;10;22;0;32;55;0;0;0.39000000000000001;0.60999999999999999;0.0;0.0;93;72;59;22;0.20000000000000001;0.11;0.14000000000000001;0.55000000000000004;0;1.066592301755918;46;44;21;2; 
2019_03_04 10:34;20;3;1;timed;11;129;0;12;29;81;36;0.17999999999999999;0.79000000000000004;0.01;0.02;5;19;95;92;0.47999999999999998;0.26000000000000001;0.13;0.13;0;1.0998939049213732;46;44;21;2; 
2019_03_04 10:34;20;3;1;timed;12;112;0;70;44;98;64;0.02;0.75;0.12;0.11;33;2;63;85;0.23999999999999999;0.31;0.080000000000000002;0.37;0;1.2666389348414668;46;44;21;2; 
2019_03_04 10:34;20;3;1;timed;13;86;1;56;30;57;88;0.20000000000000001;0.35999999999999999;0.080000000000000002;0.35999999999999999;98;2;0;0;0.77000000000000002;0.23000000000000001;0.0;0.0;1;1.233245284253826;46;44;21;2; 
2019_03_04 10:34;20;3;1;timed;14;78;1;74;36;34;3;0.14999999999999999;0.64000000000000001;0.13;0.080000000000000002;1;83;0;0;0.41999999999999998;0.57999999999999996;0.0;0.0;0;1.199932776516107;46;44;21;2; 
2019_03_04 10:34;20;3;1;timed;15;70;1;66;55;69;50;0.22;0.29999999999999999;0.29999999999999999;0.17999999999999999;2;90;0;0;0.34000000000000002;0.66000000000000003;0.0;0.0;1;1.0665967918739625;46;44;21;2; 
2019_03_04 10:34;20;3;1;timed;16;5;0;70;5;0;0;0.98999999999999999;0.01;0.0;0.0;92;87;47;1;0.44;0.02;0.16;0.38;0;1.1665599729058158;46;44;21;2; 
2019_03_04 10:34;20;3;1;timed;17;82;1;78;66;30;27;0.28999999999999998;0.58999999999999997;0.080000000000000002;0.040000000000000001;90;6;0;0;0.82999999999999996;0.17000000000000001;0.0;0.0;1;1.1666308526282592;46;44;21;2; 
2019_03_04 10:34;20;3;1;timed;18;80;1;47;39;45;10;0.13;0.76000000000000001;0.059999999999999998;0.050000000000000003;2;87;0;0;0.48999999999999999;0.51000000000000001;0.0;0.0;0;1.316739994573254;46;44;21;2; 
2019_03_04 10:34;20;3;1;timed;19;111;1;51;36;48;27;0.93000000000000005;0.01;0.01;0.049999999999999899;31;78;30;53;0.55000000000000004;0.16;0.029999999999999999;0.26000000000000001;0;1.3165485231038474;46;44;21;2; 
2019_03_04 10:34;20;3;1;timed;20;126;1;16;55;51;42;0.68999999999999995;0.23999999999999999;0.01;0.060000000000000102;66;4;1;5;0.46999999999999997;0.38;0.089999999999999997;0.059999999999999998;1;1.100073188926217;46;44;21;2; 
2019_03_04 10:34;20;3;1;timed;21;16;0;64;53;0;0;0.65000000000000002;0.34999999999999998;0.0;0.0;29;17;81;46;0.10000000000000001;0.01;0.44;0.45000000000000001;0;1.0999109032254637;46;44;21;2; 
2019_03_04 10:34;20;3;1;timed;22;51;1;52;23;43;16;0.60999999999999999;0.20999999999999999;0.01;0.17000000000000001;92;7;0;0;0.14999999999999999;0.84999999999999998;0.0;0.0;0;1.2665802425817674;46;44;21;2; 
2019_03_04 10:34;20;3;1;timed;23;110;1;47;44;23;52;0.13;0.27000000000000002;0.040000000000000001;0.56000000000000005;99;2;30;22;0.28999999999999998;0.5;0.11;0.10000000000000001;0;1.1332721608177962;46;44;21;2; 
2019_03_04 10:34;20;3;1;timed;24;103;0;38;49;89;50;0.89000000000000001;0.070000000000000007;0.01;0.029999999999999999;6;64;99;27;0.70999999999999996;0.17999999999999999;0.059999999999999998;0.050000000000000003;1;1.299941820897402;46;44;21;2; 
2019_03_04 10:34;20;3;1;timed;25;132;1;27;70;21;19;0.64000000000000001;0.23000000000000001;0.029999999999999999;0.10000000000000001;11;85;55;6;0.39000000000000001;0.46999999999999997;0.029999999999999999;0.11;0;1.266623540150249;46;44;21;2; 
2019_03_04 10:34;20;3;1;timed;26;139;1;44;31;16;8;0.79000000000000004;0.070000000000000007;0.13;0.0099999999999999499;92;58;2;88;0.55000000000000004;0.070000000000000007;0.34000000000000002;0.039999999999999897;1;1.2834861790952345;46;44;21;2; 
2019_03_04 10:34;20;3;1;timed;27;8;0;50;36;0;0;0.080000000000000002;0.92000000000000004;0.0;0.0;6;19;84;29;0.54000000000000004;0.070000000000000007;0.17000000000000001;0.22;0;1.399934829140875;46;44;21;2; 
2019_03_04 10:34;20;3;1;timed;28;147;1;39;43;76;28;0.14000000000000001;0.10000000000000001;0.10000000000000001;0.66000000000000003;6;31;68;85;0.27000000000000002;0.20000000000000001;0.22;0.31;NA;1.4165662269988388;46;44;21;2; 
2019_03_04 10:34;20;3;1;timed;29;29;0;44;51;0;0;0.78000000000000003;0.22;0.0;0.0;74;1;68;82;0.69999999999999996;0.28000000000000003;0.01;0.01;0;1.1334722918008993;46;44;21;2; 
2019_03_04 10:34;20;3;1;timed;30;143;0;88;44;56;73;0.95999999999999996;0.02;0.01;0.01;20;3;87;32;0.19;0.40000000000000002;0.28000000000000003;0.13;0;1.016593552575614;46;44;21;2; 
2019_03_04 10:34;20;3;1;timed;31;43;1;60;83;0;0;0.23000000000000001;0.77000000000000002;0.0;0.0;72;5;70;12;0.29999999999999999;0.40999999999999998;0.12;0.17000000000000001;1;0.9333765881392537;46;44;21;2; 
2019_03_04 10:34;20;3;1;timed;32;67;1;44;42;8;89;0.88;0.070000000000000007;0.029999999999999999;0.02;10;63;0;0;0.39000000000000001;0.60999999999999999;0.0;0.0;0;1.0332502875280625;46;44;21;2; 
2019_03_04 10:34;20;3;1;timed;33;121;1;42;51;47;70;0.41999999999999998;0.17000000000000001;0.23999999999999999;0.17000000000000001;21;76;48;9;0.14999999999999999;0.34000000000000002;0.40999999999999998;0.10000000000000001;1;0.9167493596769418;46;44;21;2; 
2019_03_04 10:34;20;3;1;timed;34;125;1;37;41;10;35;0.91000000000000003;0.040000000000000001;0.029999999999999999;0.02;7;13;91;93;0.26000000000000001;0.39000000000000001;0.16;0.19;1;1.0000683139405737;46;44;21;2; 
2019_03_04 10:34;20;3;1;timed;35;95;1;93;88;68;85;0.83999999999999997;0.14000000000000001;0.01;0.01;2;82;0;0;0.41999999999999998;0.57999999999999996;0.0;0.0;0;0.8666046816533708;46;44;21;2; 
2019_03_04 10:34;20;3;1;timed;36;69;0;54;34;64;49;0.34000000000000002;0.25;0.20999999999999999;0.20000000000000001;14;98;0;0;0.62;0.38;0.0;0.0;1;1.2332314931754809;46;44;21;2; 
2019_03_04 10:34;20;3;1;timed;37;40;1;45;49;0;0;0.68999999999999995;0.31;0.0;0.0;2;92;65;73;0.23999999999999999;0.59999999999999998;0.11;0.050000000000000003;0;1.0000166775816979;46;44;21;2; 
2019_03_04 10:34;20;3;1;timed;38;53;0;26;70;50;80;0.29999999999999999;0.59999999999999998;0.040000000000000001;0.059999999999999998;89;1;0;0;0.40999999999999998;0.58999999999999997;0.0;0.0;1;1.0666333542658322;46;44;21;2; 
2019_03_04 10:34;20;3;1;timed;39;17;0;81;52;0;0;0.059999999999999998;0.93999999999999995;0.0;0.0;34;3;69;41;0.01;0.22;0.75;0.02;1;1.2165436481182041;46;44;21;2; 
2019_03_04 10:34;20;3;1;timed;40;50;1;15;20;0;0;0.82999999999999996;0.17000000000000001;0.0;0.0;97;18;88;87;0.56999999999999995;0.39000000000000001;0.01;0.029999999999999999;0;1.0833638554468052;46;44;21;2; 
2019_03_04 10:34;20;3;1;timed;41;122;1;35;58;25;31;0.81999999999999995;0.070000000000000007;0.080000000000000002;0.029999999999999999;18;64;68;89;0.63;0.17000000000000001;0.11;0.089999999999999997;0;1.333174147952377;46;44;21;2; 
2019_03_04 10:34;20;3;1;timed;42;104;1;55;85;93;3;0.87;0.02;0.089999999999999997;0.02;1;2;90;8;0.35999999999999999;0.070000000000000007;0.40000000000000002;0.17000000000000001;0;1.1834219704051065;46;44;21;2; 
2019_03_04 10:34;20;3;1;timed;43;31;1;10;59;0;0;0.23999999999999999;0.76000000000000001;0.0;0.0;1;79;53;73;0.23000000000000001;0.58999999999999997;0.050000000000000003;0.13;0;1.3332812693442975;46;44;21;2; 
2019_03_04 10:34;20;3;1;timed;44;138;1;8;20;43;51;0.38;0.5;0.02;0.10000000000000001;72;82;70;1;0.39000000000000001;0.050000000000000003;0.070000000000000007;0.48999999999999999;1;1.4332739568653778;46;44;21;2; 
2019_03_04 10:34;20;3;1;timed;45;81;1;67;38;52;65;0.27000000000000002;0.35999999999999999;0.01;0.35999999999999999;2;77;0;0;0.14000000000000001;0.85999999999999999;0.0;0.0;0;1.000139193664836;46;44;21;2; 
2019_03_04 10:34;20;3;1;timed;46;109;1;75;28;16;56;0.19;0.070000000000000007;0.059999999999999998;0.68000000000000005;3;50;98;44;0.5;0.02;0.34999999999999998;0.13;0;1.0832204923863173;46;44;21;2; 
2019_03_04 10:34;20;3;1;timed;47;127;1;89;26;62;79;0.02;0.28999999999999998;0.53000000000000003;0.16;96;6;60;13;0.53000000000000003;0.25;0.17000000000000001;0.050000000000000003;1;1.082876036174639;46;44;21;2; 
2019_03_04 10:34;20;3;1;timed;48;68;1;84;27;55;62;0.01;0.050000000000000003;0.40999999999999998;0.53000000000000003;9;82;0;0;0.37;0.63;0.0;0.0;0;1.0999721612670328;46;44;21;2; 
2019_03_04 10:34;20;3;1;timed;49;64;0;48;39;34;19;0.46000000000000002;0.5;0.02;0.02;13;92;0;0;0.68999999999999995;0.31;0.0;0.0;1;1.1665657459143404;46;44;21;2; 
2019_03_04 10:34;20;3;1;timed;50;124;1;37;65;15;41;0.17999999999999999;0.45000000000000001;0.02;0.34999999999999998;40;7;98;30;0.070000000000000007;0.45000000000000001;0.45000000000000001;0.029999999999999898;1;1.1996235998049087;46;44;21;2; 
2019_03_04 10:34;20;3;1;timed;51;90;1;27;44;50;72;0.68000000000000005;0.28999999999999998;0.02;0.0099999999999999707;6;96;0;0;0.46999999999999997;0.53000000000000003;0.0;0.0;0;1.1999125709835425;46;44;21;2; 
2019_03_04 10:34;20;3;1;timed;52;44;1;79;74;0;0;0.71999999999999997;0.28000000000000003;0.0;0.0;3;67;15;36;0.41999999999999998;0.53000000000000003;0.02;0.029999999999999999;0;1.0665467591288689;46;44;21;2; 
2019_03_04 10:34;20;3;1;timed;53;113;0;85;65;39;64;0.44;0.34000000000000002;0.13;0.089999999999999997;87;2;4;35;0.67000000000000004;0.17000000000000001;0.11;0.049999999999999899;1;1.1167562231430566;46;44;21;2; 
2019_03_04 10:34;20;3;1;timed;54;73;1;65;68;70;47;0.25;0.23000000000000001;0.20999999999999999;0.31;27;95;0;0;0.45000000000000001;0.55000000000000004;0.0;0.0;1;1.1499266507116772;46;44;21;2; 
2019_03_04 10:34;20;3;1;timed;55;60;0;64;59;57;96;0.83999999999999997;0.13;0.02;0.01;83;6;0;0;0.54000000000000004;0.46000000000000002;0.0;0.0;1;1.216572513164465;46;44;21;2; 
2019_03_04 10:34;20;3;1;timed;56;105;1;49;74;63;58;0.84999999999999998;0.080000000000000002;0.02;0.050000000000000003;97;5;86;8;0.25;0.52000000000000002;0.070000000000000007;0.16;1;1.116672514511265;46;44;21;2; 
2019_03_04 10:34;20;3;1;timed;57;18;0;68;50;0;0;0.029999999999999999;0.96999999999999997;0.0;0.0;34;64;15;89;0.65000000000000002;0.029999999999999999;0.050000000000000003;0.27000000000000002;0;1.0666028856066987;46;44;21;2; 
2019_03_04 10:34;20;3;1;timed;58;102;1;40;56;53;17;0.28000000000000003;0.26000000000000001;0.14999999999999999;0.31;1;76;29;62;0.68000000000000005;0.23000000000000001;0.050000000000000003;0.039999999999999897;1;0.9999140463087315;46;44;21;2; 
2019_03_04 10:34;20;3;1;timed;59;63;1;56;78;42;36;0.93000000000000005;0.040000000000000001;0.01;0.0199999999999999;2;72;0;0;0.32000000000000001;0.68000000000000005;0.0;0.0;1;1.1999318143480195;46;44;21;2; 
2019_03_04 10:34;20;3;1;timed;60;116;0;53;65;43;99;0.56999999999999995;0.37;0.050000000000000003;0.010000000000000101;57;72;11;87;0.67000000000000004;0.13;0.14999999999999999;0.050000000000000003;0;1.1332448993862272;46;44;21;2; 
2019_03_04 10:34;20;3;1;timed;61;23;0;54;40;0;0;0.93000000000000005;0.070000000000000007;0.0;0.0;36;23;71;86;0.02;0.41999999999999998;0.19;0.37;0;0.9501035613693602;46;44;21;2; 
2019_03_04 10:34;20;3;1;timed;62;47;1;2;40;0;0;0.45000000000000001;0.55000000000000004;0.0;0.0;93;89;11;56;0.58999999999999997;0.070000000000000007;0.28000000000000003;0.059999999999999998;1;1.0666234118616558;46;44;21;2; 
2019_03_04 10:34;20;3;1;timed;63;107;1;52;48;13;63;0.68000000000000005;0.19;0.050000000000000003;0.079999999999999905;54;91;33;3;0.19;0.17999999999999999;0.33000000000000002;0.29999999999999999;1;1.099891018417111;46;44;21;2; 
2019_03_04 10:34;20;3;1;timed;64;115;1;50;28;61;79;0.83999999999999997;0.040000000000000001;0.059999999999999998;0.059999999999999998;1;26;97;55;0.45000000000000001;0.080000000000000002;0.40999999999999998;0.060000000000000102;0;1.1165583372194305;46;44;21;2; 
2019_03_04 10:34;20;3;1;timed;65;65;0;75;64;59;52;0.59999999999999998;0.22;0.14000000000000001;0.040000000000000001;1;99;0;0;0.35999999999999999;0.64000000000000001;0.0;0.0;1;1.100065170859125;46;44;21;2; 
2019_03_04 10:34;20;3;1;timed;66;120;0;64;40;48;51;0.19;0.02;0.070000000000000007;0.71999999999999997;97;9;79;94;0.23000000000000001;0.54000000000000004;0.01;0.22;1;1.1166866263120028;46;44;21;2; 
2019_03_04 10:34;20;3;1;timed;67;97;1;17;33;32;74;0.94999999999999996;0.01;0.029999999999999999;0.01;76;23;0;0;0.33000000000000002;0.67000000000000004;0.0;0.0;1;0.9998864641538603;46;44;21;2; 
2019_03_04 10:34;20;3;1;timed;68;48;1;13;32;0;0;0.90000000000000002;0.10000000000000001;0.0;0.0;24;99;84;94;0.62;0.14999999999999999;0.20000000000000001;0.029999999999999999;1;1.2332478500356956;46;44;21;2; 
2019_03_04 10:34;20;3;1;timed;69;119;0;60;58;11;18;0.25;0.72999999999999998;0.01;0.01;96;23;42;85;0.44;0.48999999999999999;0.059999999999999998;0.010000000000000101;1;1.1832660991585726;46;44;21;2; 
2019_03_04 10:34;20;3;1;timed;70;41;1;99;40;0;0;0.89000000000000001;0.11;0.0;0.0;1;67;52;46;0.51000000000000001;0.38;0.029999999999999999;0.080000000000000002;0;0.8665989086448462;46;44;21;2; 
2019_03_04 10:34;20;3;1;timed;71;71;1;68;55;36;51;0.20000000000000001;0.75;0.02;0.029999999999999999;38;81;0;0;0.52000000000000002;0.47999999999999998;0.0;0.0;1;1.1333789614864145;46;44;21;2; 
2019_03_04 10:34;20;3;1;timed;72;13;0;52;56;0;0;0.46999999999999997;0.53000000000000003;0.0;0.0;94;71;27;2;0.089999999999999997;0.31;0.57999999999999996;0.020000000000000101;1;1.0165640460836585;46;44;21;2; 
2019_03_04 10:34;20;3;1;timed;73;3;1;53;40;0;0;0.31;0.68999999999999995;0.0;0.0;96;24;7;88;0.11;0.27000000000000002;0.58999999999999997;0.029999999999999999;1;1.0667173836209258;46;44;21;2; 
2019_03_04 10:34;20;3;1;timed;74;62;1;12;45;16;50;0.20999999999999999;0.76000000000000001;0.02;0.01;92;15;0;0;0.20999999999999999;0.79000000000000004;0.0;0.0;1;1.1166776460750043;46;44;21;2; 
2019_03_04 10:34;20;3;1;timed;75;83;1;17;12;7;41;0.65000000000000002;0.19;0.089999999999999997;0.070000000000000007;6;84;0;0;0.72999999999999998;0.27000000000000002;0.0;0.0;1;1.1665923659011241;46;44;21;2; 
2019_03_04 10:34;20;4;1;control;1;82;0;78;66;30;27;0.28999999999999998;0.58999999999999997;0.080000000000000002;0.040000000000000001;90;6;0;0;0.82999999999999996;0.17000000000000001;0.0;0.0;1;2.075355729615694;46;44;21;2; 
2019_03_04 10:34;20;4;1;control;2;145;1;91;89;90;74;0.57999999999999996;0.29999999999999999;0.11;0.010000000000000101;2;75;84;39;0.32000000000000001;0.27000000000000002;0.39000000000000001;0.0199999999999999;0;3.3500589167651924;46;44;21;2; 
2019_03_04 10:34;20;4;1;control;3;91;1;74;81;86;48;0.93000000000000005;0.02;0.01;0.039999999999999897;7;64;0;0;0.13;0.87;0.0;0.0;0;2.2998901845376167;46;44;21;2; 
2019_03_04 10:34;20;4;1;control;4;4;1;40;43;0;0;0.58999999999999997;0.40999999999999998;0.0;0.0;2;33;88;81;0.69999999999999996;0.14000000000000001;0.13;0.029999999999999999;0;2.9332348286916385;46;44;21;2; 
2019_03_04 10:34;20;4;1;control;5;45;0;97;87;0;0;0.71999999999999997;0.28000000000000003;0.0;0.0;96;11;14;4;0.25;0.029999999999999999;0.14000000000000001;0.57999999999999996;0;3.199886913164846;46;44;21;2; 
2019_03_04 10:34;20;4;1;control;6;123;1;26;24;51;92;0.72999999999999998;0.16;0.070000000000000007;0.040000000000000001;6;90;82;49;0.64000000000000001;0.25;0.050000000000000003;0.059999999999999998;1;9.666669339356304;46;44;21;2; 
2019_03_04 10:34;20;4;1;control;7;140;1;36;32;26;27;0.39000000000000001;0.14999999999999999;0.19;0.27000000000000002;44;3;99;25;0.29999999999999999;0.34000000000000002;0.34000000000000002;0.0199999999999999;1;6.200004618406638;46;44;21;2; 
2019_03_04 10:34;20;4;1;control;8;40;1;45;49;0;0;0.68999999999999995;0.31;0.0;0.0;2;92;65;73;0.23999999999999999;0.59999999999999998;0.11;0.050000000000000003;1;3.7332414355805668;46;44;21;2; 
2019_03_04 10:34;20;4;1;control;9;112;1;70;44;98;64;0.02;0.75;0.12;0.11;33;2;63;85;0.23999999999999999;0.31;0.080000000000000002;0.37;1;7.96650724608935;46;44;21;2; 
2019_03_04 10:34;20;4;1;control;10;133;1;59;88;60;36;0.67000000000000004;0.070000000000000007;0.12;0.14000000000000001;7;91;66;61;0.25;0.68999999999999995;0.01;0.0500000000000001;1;3.883233513729465;46;44;21;2; 
2019_03_04 10:34;20;4;1;control;11;58;1;37;58;76;34;0.20999999999999999;0.57999999999999996;0.19;0.020000000000000101;86;5;0;0;0.47999999999999998;0.52000000000000002;0.0;0.0;0;3.6831599399347397;46;44;21;2; 
2019_03_04 10:34;20;4;1;control;12;134;1;57;48;50;55;0.02;0.62;0.17999999999999999;0.17999999999999999;80;96;15;18;0.23999999999999999;0.35999999999999999;0.33000000000000002;0.070000000000000007;1;3.8332132761242974;46;44;21;2; 
2019_03_04 10:34;20;4;1;control;13;135;0;48;60;41;51;0.14000000000000001;0.40000000000000002;0.089999999999999997;0.37;94;1;85;65;0.64000000000000001;0.29999999999999999;0.01;0.050000000000000003;1;5.016710295648409;46;44;21;2; 
2019_03_04 10:34;20;4;1;control;14;68;0;84;27;55;62;0.01;0.050000000000000003;0.40999999999999998;0.53000000000000003;9;82;0;0;0.37;0.63;0.0;0.0;0;7.599744768852361;46;44;21;2; 
2019_03_04 10:34;20;4;1;control;15;22;1;32;55;0;0;0.39000000000000001;0.60999999999999999;0.0;0.0;93;72;59;22;0.20000000000000001;0.11;0.14000000000000001;0.55000000000000004;1;7.083154423503402;46;44;21;2; 
2019_03_04 10:34;20;4;1;control;16;90;0;27;44;50;72;0.68000000000000005;0.28999999999999998;0.02;0.0099999999999999707;6;96;0;0;0.46999999999999997;0.53000000000000003;0.0;0.0;1;15.799734634014385;46;44;21;2; 
2019_03_04 10:34;20;4;1;control;17;8;1;50;36;0;0;0.080000000000000002;0.92000000000000004;0.0;0.0;6;19;84;29;0.54000000000000004;0.070000000000000007;0.17000000000000001;0.22;0;6.533286849919023;46;44;21;2; 
2019_03_04 10:34;20;4;1;control;18;19;0;22;53;0;0;0.13;0.87;0.0;0.0;4;93;96;65;0.46999999999999997;0.059999999999999998;0.26000000000000001;0.20999999999999999;0;5.999999679277607;46;44;21;2; 
2019_03_04 10:34;20;4;1;control;19;111;0;51;36;48;27;0.93000000000000005;0.01;0.01;0.049999999999999899;31;78;30;53;0.55000000000000004;0.16;0.029999999999999999;0.26000000000000001;0;10.100103016140565;46;44;21;2; 
2019_03_04 10:34;20;4;1;control;20;126;1;16;55;51;42;0.68999999999999995;0.23999999999999999;0.01;0.060000000000000102;66;4;1;5;0.46999999999999997;0.38;0.089999999999999997;0.059999999999999998;1;10.099834250493586;46;44;21;2; 
2019_03_04 10:34;20;4;1;control;21;48;1;13;32;0;0;0.90000000000000002;0.10000000000000001;0.0;0.0;24;99;84;94;0.62;0.14999999999999999;0.20000000000000001;0.029999999999999999;1;3.983491759670869;46;44;21;2; 
2019_03_04 10:34;20;4;1;control;22;87;1;10;30;63;4;0.56999999999999995;0.12;0.16;0.14999999999999999;86;2;0;0;0.42999999999999999;0.56999999999999995;0.0;0.0;1;4.399869401704564;46;44;21;2; 
2019_03_04 10:34;20;4;1;control;23;95;0;93;88;68;85;0.83999999999999997;0.14000000000000001;0.01;0.01;2;82;0;0;0.41999999999999998;0.57999999999999996;0.0;0.0;0;2.6167619961524906;46;44;21;2; 
2019_03_04 10:34;20;4;1;control;24;26;1;76;41;0;0;0.57999999999999996;0.41999999999999998;0.0;0.0;61;79;84;2;0.13;0.029999999999999999;0.67000000000000004;0.17000000000000001;1;5.14988784326124;46;44;21;2; 
2019_03_04 10:34;20;4;1;control;25;6;1;9;51;0;0;0.14999999999999999;0.84999999999999998;0.0;0.0;6;40;50;73;0.42999999999999999;0.26000000000000001;0.059999999999999998;0.25;1;3.999877804640164;46;44;21;2; 
2019_03_04 10:34;20;4;1;control;26;34;1;32;48;0;0;0.28000000000000003;0.71999999999999997;0.0;0.0;97;83;7;62;0.040000000000000001;0.54000000000000004;0.35999999999999999;0.059999999999999901;1;7.416627805762801;46;44;21;2; 
2019_03_04 10:34;20;4;1;control;27;50;0;15;20;0;0;0.82999999999999996;0.17000000000000001;0.0;0.0;97;18;88;87;0.56999999999999995;0.39000000000000001;0.01;0.029999999999999999;1;2.633352020777238;46;44;21;2; 
2019_03_04 10:34;20;4;1;control;28;25;1;50;53;0;0;0.82999999999999996;0.17000000000000001;0.0;0.0;83;16;97;4;0.45000000000000001;0.29999999999999999;0.11;0.14000000000000001;1;4.883391630034566;46;44;21;2; 
2019_03_04 10:34;20;4;1;control;29;77;0;24;17;99;41;0.17999999999999999;0.13;0.10000000000000001;0.58999999999999997;12;97;0;0;0.59999999999999998;0.40000000000000002;0.0;0.0;0;8.916508496907227;46;44;21;2; 
2019_03_04 10:34;20;4;1;control;30;46;1;5;19;0;0;0.32000000000000001;0.68000000000000005;0.0;0.0;88;38;97;66;0.60999999999999999;0.20000000000000001;0.040000000000000001;0.14999999999999999;1;3.149849356534105;46;44;21;2; 
2019_03_04 10:34;20;4;1;control;31;128;0;70;49;27;54;0.27000000000000002;0.53000000000000003;0.02;0.17999999999999999;72;97;6;20;0.29999999999999999;0.39000000000000001;0.22;0.0899999999999999;1;7.583285599100236;46;44;21;2; 
2019_03_04 10:34;20;4;1;control;32;132;1;27;70;21;19;0.64000000000000001;0.23000000000000001;0.029999999999999999;0.10000000000000001;11;85;55;6;0.39000000000000001;0.46999999999999997;0.029999999999999999;0.11;1;7.999927837386167;46;44;21;2; 
2019_03_04 10:34;20;4;1;control;33;70;0;66;55;69;50;0.22;0.29999999999999999;0.29999999999999999;0.17999999999999999;2;90;0;0;0.34000000000000002;0.66000000000000003;0.0;0.0;0;3.1165211333827756;46;44;21;2; 
2019_03_04 10:34;20;4;1;control;34;88;1;77;13;12;7;0.12;0.19;0.66000000000000003;0.029999999999999898;94;2;0;0;0.40999999999999998;0.58999999999999997;0.0;0.0;0;3.299861319491356;46;44;21;2; 
2019_03_04 10:34;20;4;1;control;35;109;0;75;28;16;56;0.19;0.070000000000000007;0.059999999999999998;0.68000000000000005;3;50;98;44;0.5;0.02;0.34999999999999998;0.13;0;8.633172416049092;46;44;21;2; 
2019_03_04 10:34;20;4;1;control;36;141;0;93;28;60;91;0.81999999999999995;0.10000000000000001;0.01;0.070000000000000007;14;85;7;89;0.45000000000000001;0.070000000000000007;0.23999999999999999;0.23999999999999999;0;4.966695510331192;46;44;21;2; 
2019_03_04 10:34;20;4;1;control;37;118;0;62;52;65;68;0.40999999999999998;0.44;0.10000000000000001;0.0500000000000001;79;20;14;37;0.56999999999999995;0.23999999999999999;0.14000000000000001;0.050000000000000003;0;6.899927131795266;46;44;21;2; 
2019_03_04 10:34;20;4;1;control;38;148;1;37;63;55;10;0.72999999999999998;0.070000000000000007;0.029999999999999999;0.17000000000000001;80;14;23;70;0.46999999999999997;0.10000000000000001;0.23000000000000001;0.20000000000000001;1;5.666544578214598;46;44;21;2; 
2019_03_04 10:34;20;4;1;control;39;24;1;35;27;0;0;0.070000000000000007;0.93000000000000005;0.0;0.0;62;3;81;95;0.35999999999999999;0.55000000000000004;0.01;0.080000000000000002;1;4.733361706604228;46;44;21;2; 
2019_03_04 10:34;20;4;1;control;40;33;1;27;70;0;0;0.88;0.12;0.0;0.0;93;3;77;16;0.080000000000000002;0.40000000000000002;0.5;0.02;1;6.166579216269383;46;44;21;2; 
2019_03_04 10:34;20;4;1;control;41;84;1;43;10;5;45;0.78000000000000003;0.13;0.059999999999999998;0.029999999999999999;87;1;0;0;0.57999999999999996;0.41999999999999998;0.0;0.0;1;6.883115167041979;46;44;21;2; 
2019_03_04 10:34;20;4;1;control;42;105;0;49;74;63;58;0.84999999999999998;0.080000000000000002;0.02;0.050000000000000003;97;5;86;8;0.25;0.52000000000000002;0.070000000000000007;0.16;0;5.583195796735708;46;44;21;2; 
2019_03_04 10:34;20;4;1;control;43;113;0;85;65;39;64;0.44;0.34000000000000002;0.13;0.089999999999999997;87;2;4;35;0.67000000000000004;0.17000000000000001;0.11;0.049999999999999899;0;10.183514979997199;46;44;21;2; 
2019_03_04 10:34;20;4;1;control;44;32;1;19;81;0;0;0.93000000000000005;0.070000000000000007;0.0;0.0;1;65;41;68;0.45000000000000001;0.050000000000000003;0.059999999999999998;0.44;1;5.249842044056095;46;44;21;2; 
2019_03_04 10:34;20;4;1;control;45;3;0;53;40;0;0;0.31;0.68999999999999995;0.0;0.0;96;24;7;88;0.11;0.27000000000000002;0.58999999999999997;0.029999999999999999;0;5.249885983069362;46;44;21;2; 
2019_03_04 10:34;20;4;1;control;46;136;1;29;67;14;75;0.46000000000000002;0.29999999999999999;0.20999999999999999;0.0300000000000001;70;86;1;85;0.31;0.39000000000000001;0.27000000000000002;0.029999999999999898;1;5.183237875558007;46;44;21;2; 
2019_03_04 10:34;20;4;1;control;47;61;1;43;18;39;70;0.75;0.089999999999999997;0.089999999999999997;0.070000000000000007;16;66;0;0;0.64000000000000001;0.35999999999999999;0.0;0.0;0;16.466460741292394;46;44;21;2; 
2019_03_04 10:34;20;4;1;control;48;11;0;17;36;0;0;0.14000000000000001;0.85999999999999999;0.0;0.0;19;41;34;95;0.88;0.02;0.050000000000000003;0.050000000000000003;0;7.8498273549548685;46;44;21;2; 
2019_03_04 10:34;20;4;1;control;49;39;0;14;33;0;0;0.78000000000000003;0.22;0.0;0.0;93;84;1;25;0.14000000000000001;0.23999999999999999;0.39000000000000001;0.23000000000000001;1;5.699863179683234;46;44;21;2; 
2019_03_04 10:34;20;4;1;control;50;21;1;64;28;0;0;0.080000000000000002;0.92000000000000004;0.0;0.0;50;1;88;13;0.57999999999999996;0.13;0.02;0.27000000000000002;0;6.166532390750945;46;44;21;2; 
2019_03_04 10:34;20;4;1;control;51;127;1;89;26;62;79;0.02;0.28999999999999998;0.53000000000000003;0.16;96;6;60;13;0.53000000000000003;0.25;0.17000000000000001;0.050000000000000003;1;8.099830401820327;46;44;21;2; 
2019_03_04 10:34;20;4;1;control;52;117;1;65;85;92;41;0.23000000000000001;0.17999999999999999;0.54000000000000004;0.050000000000000003;99;93;10;13;0.64000000000000001;0.16;0.01;0.19;0;8.050220047864059;46;44;21;2; 
2019_03_04 10:34;20;4;1;control;53;51;1;52;23;43;16;0.60999999999999999;0.20999999999999999;0.01;0.17000000000000001;92;7;0;0;0.14999999999999999;0.84999999999999998;0.0;0.0;0;5.216564174373161;46;44;21;2; 
2019_03_04 10:34;20;4;1;control;54;106;0;85;69;22;61;0.10000000000000001;0.58999999999999997;0.17999999999999999;0.13;20;79;91;84;0.55000000000000004;0.14999999999999999;0.26000000000000001;0.039999999999999897;0;5.633225014576055;46;44;21;2; 
2019_03_04 10:34;20;4;1;control;55;122;1;35;58;25;31;0.81999999999999995;0.070000000000000007;0.080000000000000002;0.029999999999999999;18;64;68;89;0.63;0.17000000000000001;0.11;0.089999999999999997;0;3.8001028237067658;46;44;21;2; 
2019_03_04 10:34;20;4;1;control;56;35;0;33;37;0;0;0.88;0.12;0.0;0.0;63;4;79;98;0.16;0.46000000000000002;0.17000000000000001;0.20999999999999999;1;6.449934219768693;46;44;21;2; 
2019_03_04 10:34;20;4;1;control;57;124;0;37;65;15;41;0.17999999999999999;0.45000000000000001;0.02;0.34999999999999998;40;7;98;30;0.070000000000000007;0.45000000000000001;0.45000000000000001;0.029999999999999898;1;7.983293232300639;46;44;21;2; 
2019_03_04 10:34;20;4;1;control;58;142;0;98;65;64;84;0.88;0.070000000000000007;0.01;0.040000000000000001;5;68;60;16;0.46000000000000002;0.080000000000000002;0.27000000000000002;0.19;0;3.7665731866818533;46;44;21;2; 
2019_03_04 10:34;20;4;1;control;59;92;0;90;86;65;94;0.16;0.34000000000000002;0.28000000000000003;0.22;79;22;0;0;0.35999999999999999;0.64000000000000001;0.0;0.0;0;6.1998525958342725;46;44;21;2; 
2019_03_04 10:34;20;4;1;control;60;119;1;60;58;11;18;0.25;0.72999999999999998;0.01;0.01;96;23;42;85;0.44;0.48999999999999999;0.059999999999999998;0.010000000000000101;1;5.283331590739181;46;44;21;2; 
2019_03_04 10:34;20;4;1;control;61;41;1;99;40;0;0;0.89000000000000001;0.11;0.0;0.0;1;67;52;46;0.51000000000000001;0.38;0.029999999999999999;0.080000000000000002;0;4.533217573809452;46;44;21;2; 
2019_03_04 10:34;20;4;1;control;62;81;1;67;38;52;65;0.27000000000000002;0.35999999999999999;0.01;0.35999999999999999;2;77;0;0;0.14000000000000001;0.85999999999999999;0.0;0.0;0;6.86660468165428;46;44;21;2; 
2019_03_04 10:34;20;4;1;control;63;7;0;49;29;0;0;0.95999999999999996;0.040000000000000001;0.0;0.0;23;99;64;25;0.68999999999999995;0.12;0.059999999999999998;0.13;1;5.299881845746313;46;44;21;2; 
2019_03_04 10:34;20;4;1;control;64;42;0;70;48;0;0;0.79000000000000004;0.20999999999999999;0.0;0.0;51;8;12;67;0.19;0.26000000000000001;0.28999999999999998;0.26000000000000001;0;4.4164908571574415;46;44;21;2; 
2019_03_04 10:34;20;4;1;control;65;67;1;44;42;8;89;0.88;0.070000000000000007;0.029999999999999999;0.02;10;63;0;0;0.39000000000000001;0.60999999999999999;0.0;0.0;0;3.866515200012145;46;44;21;2; 
2019_03_04 10:34;20;4;1;control;66;108;1;48;72;39;70;0.14000000000000001;0.66000000000000003;0.02;0.17999999999999999;81;44;98;8;0.59999999999999998;0.029999999999999999;0.050000000000000003;0.32000000000000001;0;7.2831106127796374;46;44;21;2; 
2019_03_04 10:34;20;4;1;control;67;52;0;71;51;10;54;0.22;0.12;0.19;0.46999999999999997;91;1;0;0;0.29999999999999999;0.69999999999999996;0.0;0.0;0;4.500033034441003;46;44;21;2; 
2019_03_04 10:34;20;4;1;control;68;73;0;65;68;70;47;0.25;0.23000000000000001;0.20999999999999999;0.31;27;95;0;0;0.45000000000000001;0.55000000000000004;0.0;0.0;0;3.449837361504251;46;44;21;2; 
2019_03_04 10:34;20;4;1;control;69;86;0;56;30;57;88;0.20000000000000001;0.35999999999999999;0.080000000000000002;0.35999999999999999;98;2;0;0;0.77000000000000002;0.23000000000000001;0.0;0.0;0;5.349918760933178;46;44;21;2; 
2019_03_04 10:34;20;4;1;control;70;107;1;52;48;13;63;0.68000000000000005;0.19;0.050000000000000003;0.079999999999999905;54;91;33;3;0.19;0.17999999999999999;0.33000000000000002;0.29999999999999999;0;7.399781202953818;46;44;21;2; 
2019_03_04 10:34;20;4;1;control;71;55;1;74;55;47;48;0.60999999999999999;0.31;0.070000000000000007;0.01;97;6;0;0;0.42999999999999999;0.56999999999999995;0.0;0.0;0;3.366564591313363;46;44;21;2; 
2019_03_04 10:34;20;4;1;control;72;71;0;68;55;36;51;0.20000000000000001;0.75;0.02;0.029999999999999999;38;81;0;0;0.52000000000000002;0.47999999999999998;0.0;0.0;0;7.016522031406566;46;44;21;2; 
2019_03_04 10:34;20;4;1;control;73;56;0;28;84;37;41;0.68000000000000005;0.28000000000000003;0.02;0.0199999999999999;6;95;0;0;0.72999999999999998;0.27000000000000002;0.0;0.0;0;2.849908818527183;46;44;21;2; 
2019_03_04 10:34;20;4;1;control;74;13;1;52;56;0;0;0.46999999999999997;0.53000000000000003;0.0;0.0;94;71;27;2;0.089999999999999997;0.31;0.57999999999999996;0.020000000000000101;0;3.5998871697438517;46;44;21;2; 
2019_03_04 10:34;20;4;1;control;75;149;1;14;89;73;53;0.93999999999999995;0.01;0.01;0.040000000000000001;97;45;6;13;0.34000000000000002;0.01;0.40999999999999998;0.23999999999999999;1;4.2998885809238345;46;44;21;2; 
