date;id;block;order;cond;trial;gameid;leftright;oa1;oa2;oa3;oa4;pa1;pa2;pa3;pa4;ob1;ob2;ob3;ob4;pb1;pb2;pb3;pb4;choice;rt;paytrial;payout;alter;geschlecht;comment
2019_03_21 14:15;50;0;1;practice;1;47;0;91;99;90;78;0.93000000000000005;0.040000000000000001;0.02;0.0099999999999999499;10;87;0;0;0.23000000000000001;0.77000000000000002;0.0;0.0;0;15.881656776267846;22;69;21;2;
2019_03_21 14:15;50;0;1;practice;2;24;1;19;38;0;0;0.89000000000000001;0.11;0.0;0.0;45;76;95;57;0.29999999999999999;0.22;0.40000000000000002;0.080000000000000002;1;11.41599168956327;22;69;21;2;
2019_03_21 14:15;50;0;1;practice;3;44;1;69;48;22;63;0.39000000000000001;0.40999999999999998;0.19;0.01;1;94;0;0;0.22;0.78000000000000003;0.0;0.0;1;13.032611536792501;22;69;21;2;
2019_03_21 14:15;50;0;1;practice;4;37;1;50;66;99;12;0.26000000000000001;0.71999999999999997;0.01;0.01;22;90;0;0;0.37;0.63;0.0;0.0;0;17.49918778245228;22;69;21;2;
2019_03_21 14:15;50;0;1;practice;5;14;0;92;56;0;0;0.11;0.89000000000000001;0.0;0.0;97;31;51;4;0.58999999999999997;0.22;0.080000000000000002;0.11;0;7.416362439212207;22;69;21;2;
2019_03_21 14:15;50;0;1;practice;6;7;0;13;31;0;0;0.51000000000000001;0.48999999999999999;0.0;0.0;8;79;42;18;0.85999999999999999;0.089999999999999997;0.02;0.029999999999999999;0;6.799597306870055;22;69;21;2;
2019_03_21 14:15;50;0;1;practice;7;49;0;14;31;42;22;0.77000000000000002;0.089999999999999997;0.02;0.12;87;28;0;0;0.68000000000000005;0.32000000000000001;0.0;0.0;1;6.666316336044474;22;69;21;2;
2019_03_21 14:15;50;0;1;practice;8;35;1;84;95;4;35;0.89000000000000001;0.050000000000000003;0.01;0.050000000000000003;5;98;0;0;0.19;0.81000000000000005;0.0;0.0;0;10.849415026970746;22;69;21;2;
2019_03_21 14:15;50;0;1;practice;9;16;0;50;42;0;0;0.32000000000000001;0.68000000000000005;0.0;0.0;97;2;56;31;0.35999999999999999;0.16;0.16;0.32000000000000001;0;11.632691972789871;22;69;21;2;
2019_03_21 14:15;50;0;1;practice;10;38;1;51;89;10;60;0.57999999999999996;0.029999999999999999;0.080000000000000002;0.31;8;84;0;0;0.33000000000000002;0.67000000000000004;0.0;0.0;0;10.399368891730774;22;69;21;2;
2019_03_21 14:15;50;0;1;practice;11;3;1;20;70;0;0;0.13;0.87;0.0;0.0;95;19;80;73;0.31;0.57999999999999996;0.029999999999999999;0.080000000000000002;0;7.683040480666023;22;69;21;2;
2019_03_21 14:15;50;0;1;practice;12;29;0;66;40;92;49;0.46999999999999997;0.10000000000000001;0.34000000000000002;0.089999999999999997;8;94;0;0;0.44;0.56000000000000005;0.0;0.0;0;4.833164903093348;22;69;21;2;
2019_03_21 14:15;50;0;1;practice;13;21;1;59;69;0;0;0.34000000000000002;0.66000000000000003;0.0;0.0;64;18;5;24;0.14999999999999999;0.040000000000000001;0.51000000000000001;0.29999999999999999;0;11.03284566070488;22;69;21;2;
2019_03_21 14:15;50;0;1;practice;14;42;1;23;45;91;22;0.72999999999999998;0.02;0.20000000000000001;0.050000000000000003;2;86;0;0;0.40999999999999998;0.58999999999999997;0.0;0.0;0;9.116286781909366;22;69;21;2;
2019_03_21 14:15;50;0;1;practice;15;62;1;65;52;74;55;0.16;0.12;0.14999999999999999;0.56999999999999995;72;86;2;68;0.12;0.53000000000000003;0.22;0.13;0;16.03248709832951;22;69;21;2;
2019_03_21 14:15;50;0;1;practice;16;22;1;84;87;0;0;0.17000000000000001;0.82999999999999996;0.0;0.0;3;24;41;83;0.68000000000000005;0.11;0.10000000000000001;0.11;0;9.966126759817598;22;69;21;2;
2019_03_21 14:15;50;0;1;practice;17;46;0;79;57;98;81;0.67000000000000004;0.070000000000000007;0.20999999999999999;0.050000000000000003;1;76;0;0;0.56000000000000005;0.44;0.0;0.0;0;6.816475716699642;22;69;21;2;
2019_03_21 14:15;50;0;1;practice;18;63;1;24;82;6;96;0.91000000000000003;0.070000000000000007;0.01;0.0099999999999999603;73;10;71;22;0.31;0.51000000000000001;0.050000000000000003;0.13;0;19.26561678661983;22;69;21;2;
2019_03_21 14:15;50;0;1;practice;19;19;1;25;73;0;0;0.69999999999999996;0.29999999999999999;0.0;0.0;87;84;1;86;0.040000000000000001;0.59999999999999998;0.28000000000000003;0.080000000000000002;1;10.316082035736144;22;69;21;2;
2019_03_21 14:15;50;0;1;practice;20;23;0;99;93;0;0;0.57999999999999996;0.41999999999999998;0.0;0.0;64;10;80;81;0.13;0.55000000000000004;0.02;0.29999999999999999;0;8.383015496758162;22;69;21;2;
2019_03_21 14:15;50;0;1;practice;21;31;1;72;59;40;92;0.59999999999999998;0.34999999999999998;0.02;0.029999999999999999;97;29;0;0;0.38;0.62;0.0;0.0;0;5.599659333670388;22;69;21;2;
2019_03_21 14:15;50;0;1;practice;22;72;1;86;85;97;43;0.51000000000000001;0.14999999999999999;0.33000000000000002;0.0099999999999999499;72;29;10;90;0.01;0.11;0.65000000000000002;0.23000000000000001;0;11.099386242558467;22;69;21;2;
2019_03_21 14:15;50;0;1;practice;23;71;1;94;87;26;75;0.71999999999999997;0.23999999999999999;0.02;0.02;90;27;12;83;0.16;0.73999999999999999;0.02;0.080000000000000002;0;7.699578288310477;22;69;21;2;
2019_03_21 14:15;50;0;1;practice;24;4;1;40;59;0;0;0.19;0.81000000000000005;0.0;0.0;10;88;13;45;0.56000000000000005;0.28999999999999998;0.01;0.14000000000000001;0;8.499516197366574;22;69;21;2;
2019_03_21 14:15;50;0;1;practice;25;41;0;19;54;51;8;0.76000000000000001;0.070000000000000007;0.16;0.0099999999999999794;2;77;0;0;0.54000000000000004;0.46000000000000002;0.0;0.0;1;13.399293843792293;22;69;21;2;
2019_03_21 14:15;50;0;1;practice;26;33;0;54;82;55;71;0.56000000000000005;0.20999999999999999;0.02;0.20999999999999999;13;99;0;0;0.5;0.5;0.0;0.0;0;20.26570402183188;22;69;21;2;
2019_03_21 14:15;50;0;1;practice;27;15;1;24;59;0;0;0.56999999999999995;0.42999999999999999;0.0;0.0;9;8;80;22;0.31;0.10000000000000001;0.55000000000000004;0.039999999999999897;0;11.765973585050233;22;69;21;2;
2019_03_21 14:15;50;0;1;practice;28;13;0;15;25;0;0;0.29999999999999999;0.69999999999999996;0.0;0.0;3;43;35;73;0.44;0.40000000000000002;0.01;0.14999999999999999;1;11.166115085693491;22;69;21;2;
2019_03_21 14:15;50;0;1;practice;29;55;1;53;11;80;74;0.31;0.37;0.28000000000000003;0.039999999999999897;6;93;98;96;0.69999999999999996;0.22;0.050000000000000003;0.029999999999999999;0;18.53234325644553;22;69;21;2;
2019_03_21 14:15;50;0;1;practice;30;60;1;39;93;27;78;0.85999999999999999;0.02;0.11;0.01;22;5;62;95;0.059999999999999998;0.56999999999999995;0.14000000000000001;0.23000000000000001;0;18.682236441419263;22;69;21;2;
2019_03_21 14:15;50;0;1;practice;31;56;1;47;52;64;10;0.77000000000000002;0.040000000000000001;0.11;0.080000000000000002;1;5;12;99;0.14000000000000001;0.28999999999999998;0.27000000000000002;0.29999999999999999;0;8.832835205309493;22;69;21;2;
2019_03_21 14:15;50;0;1;practice;32;28;0;37;83;75;8;0.83999999999999997;0.070000000000000007;0.01;0.080000000000000002;94;2;0;0;0.19;0.81000000000000005;0.0;0.0;0;10.866019864612099;22;69;21;2;
2019_03_21 14:15;50;0;1;practice;33;43;1;11;17;21;44;0.16;0.46000000000000002;0.25;0.13;2;66;0;0;0.44;0.56000000000000005;0.0;0.0;0;11.099439802412235;22;69;21;2;
2019_03_21 14:15;50;0;1;practice;34;6;1;42;59;0;0;0.35999999999999999;0.64000000000000001;0.0;0.0;77;19;6;7;0.44;0.14999999999999999;0.17999999999999999;0.23000000000000001;0;8.182798499169621;22;69;21;2;
2019_03_21 14:15;50;0;1;practice;35;26;0;24;46;74;59;0.29999999999999999;0.11;0.25;0.34000000000000002;91;6;0;0;0.28999999999999998;0.70999999999999996;0.0;0.0;0;3.7997512513602487;22;69;21;2;
2019_03_21 14:15;50;0;1;practice;36;58;0;44;50;85;42;0.38;0.57999999999999996;0.02;0.02;37;88;19;12;0.20000000000000001;0.29999999999999999;0.46000000000000002;0.040000000000000001;0;13.59925683297024;22;69;21;2;
2019_03_21 14:15;50;0;1;practice;37;69;0;38;74;27;73;0.22;0.19;0.45000000000000001;0.14000000000000001;1;97;79;84;0.28000000000000003;0.45000000000000001;0.17000000000000001;0.10000000000000001;1;16.96589327734091;22;69;21;2;
2019_03_21 14:15;50;0;1;practice;38;50;1;17;12;21;14;0.55000000000000004;0.34000000000000002;0.059999999999999998;0.049999999999999899;13;93;0;0;0.28999999999999998;0.70999999999999996;0.0;0.0;1;8.482818030876842;22;69;21;2;
2019_03_21 14:15;50;0;1;practice;39;39;0;53;65;48;75;0.92000000000000004;0.029999999999999999;0.01;0.040000000000000001;16;83;0;0;0.31;0.68999999999999995;0.0;0.0;0;16.299135313038278;22;69;21;2;
2019_03_21 14:15;50;0;1;practice;40;18;1;47;36;0;0;0.089999999999999997;0.91000000000000003;0.0;0.0;2;44;81;9;0.20000000000000001;0.25;0.51000000000000001;0.040000000000000001;0;10.482773130400346;22;69;21;2;
2019_03_21 14:15;50;0;1;practice;41;74;0;36;46;10;12;0.11;0.19;0.65000000000000002;0.049999999999999899;92;24;79;19;0.51000000000000001;0.40999999999999998;0.02;0.059999999999999998;1;6.69958887199391;22;69;21;2;
2019_03_21 14:15;50;0;1;practice;42;1;1;67;36;0;0;0.14999999999999999;0.84999999999999998;0.0;0.0;1;4;81;77;0.25;0.54000000000000004;0.14000000000000001;0.070000000000000007;0;8.216207340137771;22;69;21;2;
2019_03_21 14:15;50;0;1;practice;43;2;1;41;60;0;0;0.97999999999999998;0.02;0.0;0.0;10;14;97;6;0.54000000000000004;0.17000000000000001;0.12;0.17000000000000001;0;8.032846622858415;22;69;21;2;
2019_03_21 14:15;50;0;1;practice;44;70;1;21;42;14;63;0.96999999999999997;0.01;0.01;0.01;70;2;6;76;0.23999999999999999;0.42999999999999999;0.01;0.32000000000000001;1;6.9828739961139945;22;69;21;2;
2019_03_21 14:15;50;0;1;practice;45;40;1;29;65;30;41;0.70999999999999996;0.01;0.14999999999999999;0.13;2;59;0;0;0.32000000000000001;0.68000000000000005;0.0;0.0;0;7.832841298944913;22;69;21;2;
2019_03_21 14:15;50;0;1;practice;46;54;1;69;80;22;55;0.27000000000000002;0.31;0.059999999999999998;0.35999999999999999;52;2;49;90;0.059999999999999998;0.33000000000000002;0.20000000000000001;0.40999999999999998;1;12.116000060294937;22;69;21;2;
2019_03_21 14:15;50;0;1;practice;47;68;1;39;58;40;8;0.48999999999999999;0.44;0.02;0.050000000000000003;92;83;51;2;0.57999999999999996;0.13;0.02;0.27000000000000002;1;27.24868032688846;22;69;21;2;
2019_03_21 14:15;50;0;1;practice;48;64;0;44;60;96;45;0.53000000000000003;0.10000000000000001;0.029999999999999999;0.34000000000000002;88;20;43;31;0.47999999999999998;0.38;0.050000000000000003;0.089999999999999997;0;13.365932148323736;22;69;21;2;
2019_03_21 14:15;50;0;1;practice;49;61;0;51;48;56;88;0.91000000000000003;0.02;0.01;0.059999999999999998;78;21;14;82;0.55000000000000004;0.29999999999999999;0.070000000000000007;0.080000000000000002;0;10.982713957987471;22;69;21;2;
2019_03_21 14:15;50;0;1;practice;50;65;0;35;15;77;1;0.62;0.33000000000000002;0.029999999999999999;0.02;68;3;25;96;0.38;0.28000000000000003;0.28000000000000003;0.059999999999999901;1;19.982251803797226;22;69;21;2;
2019_03_21 14:15;50;0;1;practice;51;9;1;57;44;0;0;0.14999999999999999;0.84999999999999998;0.0;0.0;38;35;64;95;0.34000000000000002;0.45000000000000001;0.089999999999999997;0.12;1;4.699690539501717;22;69;21;2;
2019_03_21 14:15;50;0;1;practice;52;75;0;21;86;27;62;0.88;0.040000000000000001;0.070000000000000007;0.0099999999999999794;13;3;49;87;0.28999999999999998;0.39000000000000001;0.070000000000000007;0.25;0;8.032825134773702;22;69;21;2;
2019_03_21 14:15;50;0;1;practice;53;48;1;20;25;24;35;0.32000000000000001;0.13;0.48999999999999999;0.059999999999999901;44;76;0;0;0.29999999999999999;0.69999999999999996;0.0;0.0;1;5.833074460704665;22;69;21;2;
2019_03_21 14:15;50;0;1;practice;54;34;1;57;23;66;79;0.56000000000000005;0.23000000000000001;0.13;0.079999999999999905;85;9;0;0;0.56000000000000005;0.44;0.0;0.0;0;8.266344495057638;22;69;21;2;
2019_03_21 14:15;50;0;1;practice;55;25;1;7;18;0;0;0.20999999999999999;0.79000000000000004;0.0;0.0;92;45;33;13;0.41999999999999998;0.17999999999999999;0.22;0.17999999999999999;1;7.216246788412718;22;69;21;2;
2019_03_21 14:15;50;0;1;practice;56;20;1;32;11;0;0;0.40999999999999998;0.58999999999999997;0.0;0.0;1;86;42;65;0.45000000000000001;0.38;0.050000000000000003;0.12;1;14.032565032727689;22;69;21;2;
2019_03_21 14:15;50;0;1;practice;57;32;1;21;86;16;78;0.45000000000000001;0.41999999999999998;0.050000000000000003;0.080000000000000099;95;9;0;0;0.42999999999999999;0.56999999999999995;0.0;0.0;0;7.899582970788288;22;69;21;2;
2019_03_21 14:15;50;0;1;practice;58;36;0;56;89;86;77;0.66000000000000003;0.080000000000000002;0.14999999999999999;0.11;29;91;0;0;0.40999999999999998;0.58999999999999997;0.0;0.0;0;7.433057077806552;22;69;21;2;
2019_03_21 14:15;50;0;1;practice;59;17;1;27;61;0;0;0.68999999999999995;0.31;0.0;0.0;3;91;69;43;0.29999999999999999;0.33000000000000002;0.27000000000000002;0.099999999999999895;1;19.465731475265784;22;69;21;2;
2019_03_21 14:15;50;0;1;practice;60;73;0;99;88;95;28;0.83999999999999997;0.14000000000000001;0.01;0.01;90;93;10;74;0.080000000000000002;0.46000000000000002;0.34999999999999998;0.11;0;10.74951082534426;22;69;21;2;
2019_03_21 14:15;50;0;1;practice;61;57;0;39;68;59;91;0.73999999999999999;0.040000000000000001;0.14999999999999999;0.070000000000000007;9;22;40;84;0.29999999999999999;0.32000000000000001;0.040000000000000001;0.34000000000000002;0;8.049689753744133;22;69;21;2;
2019_03_21 14:15;50;0;1;practice;62;45;1;37;40;75;23;0.54000000000000004;0.38;0.059999999999999998;0.02;1;90;0;0;0.28000000000000003;0.71999999999999997;0.0;0.0;1;6.43297946412531;22;69;21;2;
2019_03_21 14:15;50;0;1;practice;63;12;0;45;86;0;0;0.97999999999999998;0.02;0.0;0.0;6;23;95;81;0.14999999999999999;0.40999999999999998;0.050000000000000003;0.39000000000000001;0;18.265798954267666;22;69;21;2;
2019_03_21 14:15;50;0;1;practice;64;5;0;23;58;0;0;0.71999999999999997;0.28000000000000003;0.0;0.0;94;12;52;3;0.11;0.84999999999999998;0.029999999999999999;0.01;1;11.866150717430173;22;69;21;2;
2019_03_21 14:15;50;0;1;practice;65;30;1;54;78;85;25;0.20999999999999999;0.60999999999999999;0.089999999999999997;0.090000000000000094;87;20;0;0;0.58999999999999997;0.40999999999999998;0.0;0.0;0;10.566101038259148;22;69;21;2;
2019_03_21 14:15;50;0;1;practice;66;27;0;68;43;98;36;0.54000000000000004;0.44;0.01;0.0099999999999999603;97;13;0;0;0.27000000000000002;0.72999999999999998;0.0;0.0;0;11.999453817775247;22;69;21;2;
2019_03_21 14:15;50;0;1;practice;67;52;1;17;61;57;59;0.070000000000000007;0.050000000000000003;0.33000000000000002;0.55000000000000004;12;93;94;62;0.71999999999999997;0.16;0.080000000000000002;0.040000000000000001;0;12.382774317055919;22;69;21;2;
2019_03_21 14:15;50;0;1;practice;68;11;1;10;44;0;0;0.48999999999999999;0.51000000000000001;0.0;0.0;88;12;54;50;0.17000000000000001;0.75;0.02;0.059999999999999998;1;5.032976192805108;22;69;21;2;
2019_03_21 14:15;50;0;1;practice;69;51;1;38;13;51;84;0.91000000000000003;0.070000000000000007;0.01;0.0099999999999999603;4;89;35;16;0.80000000000000004;0.089999999999999997;0.059999999999999998;0.050000000000000003;0;13.732583345707098;22;69;21;2;
2019_03_21 14:15;50;0;1;practice;70;8;0;20;44;0;0;0.26000000000000001;0.73999999999999999;0.0;0.0;99;3;69;24;0.20999999999999999;0.60999999999999999;0.12;0.060000000000000102;1;12.66596162227961;22;69;21;2;
2019_03_21 14:15;50;0;1;practice;71;10;0;34;59;0;0;0.16;0.83999999999999997;0.0;0.0;21;61;96;7;0.19;0.01;0.5;0.29999999999999999;0;11.816133831643128;22;69;21;2;
2019_03_21 14:15;50;0;1;practice;72;66;1;44;18;63;36;0.47999999999999998;0.10000000000000001;0.029999999999999999;0.39000000000000001;13;93;61;53;0.52000000000000002;0.45000000000000001;0.02;0.0099999999999999707;1;22.215453974285992;22;69;21;2;
2019_03_21 14:15;50;0;1;practice;73;53;0;47;24;95;38;0.57999999999999996;0.28000000000000003;0.02;0.12;8;22;93;96;0.54000000000000004;0.34000000000000002;0.10000000000000001;0.0199999999999999;0;10.782727235698985;22;69;21;2;
2019_03_21 14:15;50;0;1;practice;74;59;1;13;27;48;51;0.56999999999999995;0.13;0.13;0.17000000000000001;8;37;97;1;0.65000000000000002;0.16;0.14999999999999999;0.040000000000000001;0;9.716253363125361;22;69;21;2;
2019_03_21 14:15;50;0;1;practice;75;67;1;74;31;10;77;0.11;0.070000000000000007;0.77000000000000002;0.050000000000000003;2;23;8;97;0.56999999999999995;0.01;0.059999999999999998;0.35999999999999999;0;20.13223029967594;22;69;21;2;
2019_03_21 14:15;50;1;1;timed;1;139;1;44;31;16;8;0.79000000000000004;0.070000000000000007;0.13;0.0099999999999999499;92;58;2;88;0.55000000000000004;0.070000000000000007;0.34000000000000002;0.039999999999999897;1;4.675735493859065;22;69;21;2;
2019_03_21 14:15;50;1;1;timed;2;44;0;79;74;0;0;0.71999999999999997;0.28000000000000003;0.0;0.0;3;67;15;36;0.41999999999999998;0.53000000000000003;0.02;0.029999999999999999;0;4.833123209793484;22;69;21;2;
2019_03_21 14:15;50;1;1;timed;3;23;0;54;40;0;0;0.93000000000000005;0.070000000000000007;0.0;0.0;36;23;71;86;0.02;0.41999999999999998;0.19;0.37;0;5.466511139969043;22;69;21;2;
2019_03_21 14:15;50;1;1;timed;4;6;1;9;51;0;0;0.14999999999999999;0.84999999999999998;0.0;0.0;6;40;50;73;0.42999999999999999;0.26000000000000001;0.059999999999999998;0.25;1;6.833077026446517;22;69;21;2;
2019_03_21 14:15;50;1;1;timed;5;137;0;71;22;28;17;0.25;0.46000000000000002;0.050000000000000003;0.23999999999999999;3;98;92;69;0.42999999999999999;0.23999999999999999;0.20000000000000001;0.13;0;5.366323744622605;22;69;21;2;
2019_03_21 14:15;50;1;1;timed;6;148;1;37;63;55;10;0.72999999999999998;0.070000000000000007;0.029999999999999999;0.17000000000000001;80;14;23;70;0.46999999999999997;0.10000000000000001;0.23000000000000001;0.20000000000000001;0;5.299671232296532;22;69;21;2;
2019_03_21 14:15;50;1;1;timed;7;118;1;62;52;65;68;0.40999999999999998;0.44;0.10000000000000001;0.0500000000000001;79;20;14;37;0.56999999999999995;0.23999999999999999;0.14000000000000001;0.050000000000000003;0;6.532987257564855;22;69;21;2;
2019_03_21 14:15;50;1;1;timed;8;43;0;60;83;0;0;0.23000000000000001;0.77000000000000002;0.0;0.0;72;5;70;12;0.29999999999999999;0.40999999999999998;0.12;0.17000000000000001;0;5.233011664182413;22;69;21;2;
2019_03_21 14:15;50;1;1;timed;9;41;1;99;40;0;0;0.89000000000000001;0.11;0.0;0.0;1;67;52;46;0.51000000000000001;0.38;0.029999999999999999;0.080000000000000002;0;3.933249027342754;22;69;21;2;
2019_03_21 14:15;50;1;1;timed;10;64;1;48;39;34;19;0.46000000000000002;0.5;0.02;0.02;13;92;0;0;0.68999999999999995;0.31;0.0;0.0;0;3.9331130430437042;22;69;21;2;
2019_03_21 14:15;50;1;1;timed;11;93;1;87;81;73;98;0.80000000000000004;0.040000000000000001;0.14999999999999999;0.0099999999999999499;5;71;0;0;0.51000000000000001;0.48999999999999999;0.0;0.0;0;4.566331954994894;22;69;21;2;
2019_03_21 14:15;50;1;1;timed;12;19;0;22;53;0;0;0.13;0.87;0.0;0.0;4;93;96;65;0.46999999999999997;0.059999999999999998;0.26000000000000001;0.20999999999999999;0;6.916247782638493;22;69;21;2;
2019_03_21 14:15;50;1;1;timed;13;39;0;14;33;0;0;0.78000000000000003;0.22;0.0;0.0;93;84;1;25;0.14000000000000001;0.23999999999999999;0.39000000000000001;0.23000000000000001;1;5.366345232708227;22;69;21;2;
2019_03_21 14:15;50;1;1;timed;14;8;0;50;36;0;0;0.080000000000000002;0.92000000000000004;0.0;0.0;6;19;84;29;0.54000000000000004;0.070000000000000007;0.17000000000000001;0.22;0;5.2330174370999885;22;69;21;2;
2019_03_21 14:15;50;1;1;timed;15;141;1;93;28;60;91;0.81999999999999995;0.10000000000000001;0.01;0.070000000000000007;14;85;7;89;0.45000000000000001;0.070000000000000007;0.23999999999999999;0.23999999999999999;0;5.266576694663854;22;69;21;2;
2019_03_21 14:15;50;1;1;timed;16;119;0;60;58;11;18;0.25;0.72999999999999998;0.01;0.01;96;23;42;85;0.44;0.48999999999999999;0.059999999999999998;0.010000000000000101;0;6.266482082945913;22;69;21;2;
2019_03_21 14:15;50;1;1;timed;17;87;0;10;30;63;4;0.56999999999999995;0.12;0.16;0.14999999999999999;86;2;0;0;0.42999999999999999;0.56999999999999995;0.0;0.0;1;7.933072632614312;22;69;21;2;
2019_03_21 14:15;50;1;1;timed;18;36;1;70;17;0;0;0.33000000000000002;0.67000000000000004;0.0;0.0;84;1;12;88;0.22;0.27000000000000002;0.14000000000000001;0.37;1;6.766424514120445;22;69;21;2;
2019_03_21 14:15;50;1;1;timed;19;142;1;98;65;64;84;0.88;0.070000000000000007;0.01;0.040000000000000001;5;68;60;16;0.46000000000000002;0.080000000000000002;0.27000000000000002;0.19;0;3.1997721621537494;22;69;21;2;
2019_03_21 14:15;50;1;1;timed;20;147;1;39;43;76;28;0.14000000000000001;0.10000000000000001;0.10000000000000001;0.66000000000000003;6;31;68;85;0.27000000000000002;0.20000000000000001;0.22;0.31;0;6.949721408579535;22;69;21;2;
2019_03_21 14:15;50;1;1;timed;21;129;1;12;29;81;36;0.17999999999999999;0.79000000000000004;0.01;0.02;5;19;95;92;0.47999999999999998;0.26000000000000001;0.13;0.13;1;6.316301085917985;22;69;21;2;
2019_03_21 14:15;50;1;1;timed;22;85;1;31;22;82;50;0.11;0.69999999999999996;0.01;0.17999999999999999;3;99;0;0;0.62;0.38;0.0;0.0;0;3.7331106055889904;22;69;21;2;
2019_03_21 14:15;50;1;1;timed;23;52;1;71;51;10;54;0.22;0.12;0.19;0.46999999999999997;91;1;0;0;0.29999999999999999;0.69999999999999996;0.0;0.0;0;3.4997788651526207;22;69;21;2;
2019_03_21 14:15;50;1;1;timed;24;84;0;43;10;5;45;0.78000000000000003;0.13;0.059999999999999998;0.029999999999999999;87;1;0;0;0.57999999999999996;0.41999999999999998;0.0;0.0;1;5.71645830172929;22;69;21;2;
2019_03_21 14:15;50;1;1;timed;25;116;0;53;65;43;99;0.56999999999999995;0.37;0.050000000000000003;0.010000000000000101;57;72;11;87;0.67000000000000004;0.13;0.14999999999999999;0.050000000000000003;0;6.849595911747201;22;69;21;2;
2019_03_21 14:15;50;1;1;timed;26;34;0;32;48;0;0;0.28000000000000003;0.71999999999999997;0.0;0.0;97;83;7;62;0.040000000000000001;0.54000000000000004;0.35999999999999999;0.059999999999999901;1;5.4831227126815065;22;69;21;2;
2019_03_21 14:15;50;1;1;timed;27;72;0;63;82;51;61;0.01;0.96999999999999997;0.01;0.01;92;12;0;0;0.89000000000000001;0.11;0.0;0.0;1;5.433033023979988;22;69;21;2;
2019_03_21 14:15;50;1;1;timed;28;5;1;70;5;0;0;0.98999999999999999;0.01;0.0;0.0;92;87;47;1;0.44;0.02;0.16;0.38;1;7.61648867369513;22;69;21;2;
2019_03_21 14:15;50;1;1;timed;29;18;0;68;50;0;0;0.029999999999999999;0.96999999999999997;0.0;0.0;34;64;15;89;0.65000000000000002;0.029999999999999999;0.050000000000000003;0.27000000000000002;0;5.733121509990269;22;69;21;2;
2019_03_21 14:15;50;1;1;timed;30;37;0;14;98;0;0;0.93000000000000005;0.070000000000000007;0.0;0.0;41;2;87;66;0.17999999999999999;0.48999999999999999;0.32000000000000001;0.010000000000000101;1;5.416516383703311;22;69;21;2;
2019_03_21 14:15;50;1;1;timed;31;89;0;26;41;13;56;0.059999999999999998;0.40999999999999998;0.050000000000000003;0.47999999999999998;5;97;0;0;0.37;0.63;0.0;0.0;1;5.216520039884017;22;69;21;2;
2019_03_21 14:15;50;1;1;timed;32;102;0;40;56;53;17;0.28000000000000003;0.26000000000000001;0.14999999999999999;0.31;1;76;29;62;0.68000000000000005;0.23000000000000001;0.050000000000000003;0.039999999999999897;0;7.382891379012108;22;69;21;2;
2019_03_21 14:15;50;1;1;timed;33;50;1;15;20;0;0;0.82999999999999996;0.17000000000000001;0.0;0.0;97;18;88;87;0.56999999999999995;0.39000000000000001;0.01;0.029999999999999999;1;4.749791453323269;22;69;21;2;
2019_03_21 14:15;50;1;1;timed;34;32;0;19;81;0;0;0.93000000000000005;0.070000000000000007;0.0;0.0;1;65;41;68;0.45000000000000001;0.050000000000000003;0.059999999999999998;0.44;0;5.832989470517532;22;69;21;2;
2019_03_21 14:15;50;1;1;timed;35;145;1;91;89;90;74;0.57999999999999996;0.29999999999999999;0.11;0.010000000000000101;2;75;84;39;0.32000000000000001;0.27000000000000002;0.39000000000000001;0.0199999999999999;0;4.766442795029434;22;69;21;2;
2019_03_21 14:15;50;1;1;timed;36;13;1;52;56;0;0;0.46999999999999997;0.53000000000000003;0.0;0.0;94;71;27;2;0.089999999999999997;0.31;0.57999999999999996;0.020000000000000101;0;5.833047841137159;22;69;21;2;
2019_03_21 14:15;50;1;1;timed;37;27;1;44;26;0;0;0.35999999999999999;0.64000000000000001;0.0;0.0;63;10;3;5;0.58999999999999997;0.19;0.14999999999999999;0.070000000000000007;0;5.849764929969751;22;69;21;2;
2019_03_21 14:15;50;1;1;timed;38;132;0;27;70;21;19;0.64000000000000001;0.23000000000000001;0.029999999999999999;0.10000000000000001;11;85;55;6;0.39000000000000001;0.46999999999999997;0.029999999999999999;0.11;0;7.2828912827962995;22;69;21;2;
2019_03_21 14:15;50;1;1;timed;39;77;0;24;17;99;41;0.17999999999999999;0.13;0.10000000000000001;0.58999999999999997;12;97;0;0;0.59999999999999998;0.40000000000000002;0.0;0.0;0;4.649710536249586;22;69;21;2;
2019_03_21 14:15;50;1;1;timed;40;81;1;67;38;52;65;0.27000000000000002;0.35999999999999999;0.01;0.35999999999999999;2;77;0;0;0.14000000000000001;0.85999999999999999;0.0;0.0;1;6.832883954398312;22;69;21;2;
2019_03_21 14:15;50;1;1;timed;41;90;1;27;44;50;72;0.68000000000000005;0.28999999999999998;0.02;0.0099999999999999707;6;96;0;0;0.46999999999999997;0.53000000000000003;0.0;0.0;0;5.499669821138923;22;69;21;2;
2019_03_21 14:15;50;1;1;timed;42;94;0;84;86;93;39;0.78000000000000003;0.20000000000000001;0.01;0.0099999999999999603;9;83;0;0;0.46999999999999997;0.53000000000000003;0.0;0.0;0;5.333022985516436;22;69;21;2;
2019_03_21 14:15;50;1;1;timed;43;92;0;90;86;65;94;0.16;0.34000000000000002;0.28000000000000003;0.22;79;22;0;0;0.35999999999999999;0.64000000000000001;0.0;0.0;0;6.632993768134838;22;69;21;2;
2019_03_21 14:15;50;1;1;timed;44;35;0;33;37;0;0;0.88;0.12;0.0;0.0;63;4;79;98;0.16;0.46000000000000002;0.17000000000000001;0.20999999999999999;1;5.733107719129293;22;69;21;2;
2019_03_21 14:15;50;1;1;timed;45;128;0;70;49;27;54;0.27000000000000002;0.53000000000000003;0.02;0.17999999999999999;72;97;6;20;0.29999999999999999;0.39000000000000001;0.22;0.0899999999999999;1;6.182945387870859;22;69;21;2;
2019_03_21 14:15;50;1;1;timed;46;111;1;51;36;48;27;0.93000000000000005;0.01;0.01;0.049999999999999899;31;78;30;53;0.55000000000000004;0.16;0.029999999999999999;0.26000000000000001;0;6.399608788562546;22;69;21;2;
2019_03_21 14:15;50;1;1;timed;47;61;1;43;18;39;70;0.75;0.089999999999999997;0.089999999999999997;0.070000000000000007;16;66;0;0;0.64000000000000001;0.35999999999999999;0.0;0.0;0;5.299740507317438;22;69;21;2;
2019_03_21 14:15;50;1;1;timed;48;55;0;74;55;47;48;0.60999999999999999;0.31;0.070000000000000007;0.01;97;6;0;0;0.42999999999999999;0.56999999999999995;0.0;0.0;0;6.066269575405386;22;69;21;2;
2019_03_21 14:15;50;1;1;timed;49;16;0;64;53;0;0;0.65000000000000002;0.34999999999999998;0.0;0.0;29;17;81;46;0.10000000000000001;0.01;0.44;0.45000000000000001;0;5.2499019405659055;22;69;21;2;
2019_03_21 14:15;50;1;1;timed;50;73;1;65;68;70;47;0.25;0.23000000000000001;0.20999999999999999;0.31;27;95;0;0;0.45000000000000001;0.55000000000000004;0.0;0.0;0;4.733032029754213;22;69;21;2;
2019_03_21 14:15;50;1;1;timed;51;117;1;65;85;92;41;0.23000000000000001;0.17999999999999999;0.54000000000000004;0.050000000000000003;99;93;10;13;0.64000000000000001;0.16;0.01;0.19;1;6.966256971199982;22;69;21;2;
2019_03_21 14:15;50;1;1;timed;52;48;1;13;32;0;0;0.90000000000000002;0.10000000000000001;0.0;0.0;24;99;84;94;0.62;0.14999999999999999;0.20000000000000001;0.029999999999999999;1;5.299652630671517;22;69;21;2;
2019_03_21 14:15;50;1;1;timed;53;3;0;53;40;0;0;0.31;0.68999999999999995;0.0;0.0;96;24;7;88;0.11;0.27000000000000002;0.58999999999999997;0.029999999999999999;0;6.766259985946817;22;69;21;2;
2019_03_21 14:15;50;1;1;timed;54;20;1;44;40;0;0;0.91000000000000003;0.089999999999999997;0.0;0.0;29;5;80;99;0.25;0.40000000000000002;0.26000000000000001;0.089999999999999997;0;5.93312009883266;22;69;21;2;
2019_03_21 14:15;50;1;1;timed;55;114;0;57;39;79;97;0.77000000000000002;0.02;0.13;0.080000000000000002;92;36;6;1;0.54000000000000004;0.12;0.13;0.20999999999999999;1;6.966494623007748;22;69;21;2;
2019_03_21 14:15;50;1;1;timed;56;26;1;76;41;0;0;0.57999999999999996;0.41999999999999998;0.0;0.0;61;79;84;2;0.13;0.029999999999999999;0.67000000000000004;0.17000000000000001;1;5.966321756172874;22;69;21;2;
2019_03_21 14:15;50;1;1;timed;57;140;1;36;32;26;27;0.39000000000000001;0.14999999999999999;0.19;0.27000000000000002;44;3;99;25;0.29999999999999999;0.34000000000000002;0.34000000000000002;0.0199999999999999;0;7.066270858275857;22;69;21;2;
2019_03_21 14:15;50;1;1;timed;58;104;1;55;85;93;3;0.87;0.02;0.089999999999999997;0.02;1;2;90;8;0.35999999999999999;0.070000000000000007;0.40000000000000002;0.17000000000000001;0;6.416437487150688;22;69;21;2;
2019_03_21 14:15;50;1;1;timed;59;25;1;50;53;0;0;0.82999999999999996;0.17000000000000001;0.0;0.0;83;16;97;4;0.45000000000000001;0.29999999999999999;0.11;0.14000000000000001;0;5.883207767012209;22;69;21;2;
2019_03_21 14:15;50;1;1;timed;60;101;0;30;96;61;45;0.65000000000000002;0.14000000000000001;0.11;0.10000000000000001;3;98;63;89;0.75;0.19;0.040000000000000001;0.02;NA;8.032893768358917;22;69;21;2;
2019_03_21 14:15;50;1;1;timed;61;107;1;52;48;13;63;0.68000000000000005;0.19;0.050000000000000003;0.079999999999999905;54;91;33;3;0.19;0.17999999999999999;0.33000000000000002;0.29999999999999999;1;6.732992260761421;22;69;21;2;
2019_03_21 14:15;50;1;1;timed;62;121;0;42;51;47;70;0.41999999999999998;0.17000000000000001;0.23999999999999999;0.17000000000000001;21;76;48;9;0.14999999999999999;0.34000000000000002;0.40999999999999998;0.10000000000000001;0;4.149660664649673;22;69;21;2;
2019_03_21 14:15;50;1;1;timed;63;9;1;61;69;0;0;0.93999999999999995;0.060000000000000102;0.0;0.0;18;93;72;16;0.40999999999999998;0.34999999999999998;0.089999999999999997;0.14999999999999999;0;5.899651283656567;22;69;21;2;
2019_03_21 14:15;50;1;1;timed;64;53;0;26;70;50;80;0.29999999999999999;0.59999999999999998;0.040000000000000001;0.059999999999999998;89;1;0;0;0.40999999999999998;0.58999999999999997;0.0;0.0;0;4.2665689974401175;22;69;21;2;
2019_03_21 14:15;50;1;1;timed;65;146;0;25;5;64;35;0.94999999999999996;0.02;0.01;0.02;47;97;12;79;0.20999999999999999;0.029999999999999999;0.02;0.73999999999999999;1;6.49968553630606;22;69;21;2;
2019_03_21 14:15;50;1;1;timed;66;10;0;45;62;0;0;0.059999999999999998;0.93999999999999995;0.0;0.0;17;99;28;67;0.58999999999999997;0.34000000000000002;0.01;0.059999999999999998;0;4.966313096795602;22;69;21;2;
2019_03_21 14:15;50;1;1;timed;67;15;1;77;81;0;0;0.28000000000000003;0.71999999999999997;0.0;0.0;98;14;87;18;0.55000000000000004;0.23000000000000001;0.16;0.059999999999999901;0;5.49967880123404;22;69;21;2;
2019_03_21 14:15;50;1;1;timed;68;71;1;68;55;36;51;0.20000000000000001;0.75;0.02;0.029999999999999999;38;81;0;0;0.52000000000000002;0.47999999999999998;0.0;0.0;0;6.81625474221164;22;69;21;2;
2019_03_21 14:15;50;1;1;timed;69;88;1;77;13;12;7;0.12;0.19;0.66000000000000003;0.029999999999999898;94;2;0;0;0.40999999999999998;0.58999999999999997;0.0;0.0;1;7.9330011125703095;22;69;21;2;
2019_03_21 14:15;50;1;1;timed;70;109;1;75;28;16;56;0.19;0.070000000000000007;0.059999999999999998;0.68000000000000005;3;50;98;44;0.5;0.02;0.34999999999999998;0.13;0;6.633103132866381;22;69;21;2;
2019_03_21 14:15;50;1;1;timed;71;45;1;97;87;0;0;0.71999999999999997;0.28000000000000003;0.0;0.0;96;11;14;4;0.25;0.029999999999999999;0.14000000000000001;0.57999999999999996;0;3.499717608075116;22;69;21;2;
2019_03_21 14:15;50;1;1;timed;72;31;0;10;59;0;0;0.23999999999999999;0.76000000000000001;0.0;0.0;1;79;53;73;0.23000000000000001;0.58999999999999997;0.050000000000000003;0.13;1;5.932958777834756;22;69;21;2;
2019_03_21 14:15;50;1;1;timed;73;30;1;33;30;0;0;0.71999999999999997;0.28000000000000003;0.0;0.0;9;88;1;14;0.55000000000000004;0.39000000000000001;0.01;0.049999999999999899;1;4.499917735913186;22;69;21;2;
2019_03_21 14:15;50;1;1;timed;74;1;0;22;51;0;0;0.26000000000000001;0.73999999999999999;0.0;0.0;14;11;92;31;0.29999999999999999;0.40999999999999998;0.14999999999999999;0.14000000000000001;0;5.566343821549708;22;69;21;2;
2019_03_21 14:15;50;1;1;timed;75;22;1;32;55;0;0;0.39000000000000001;0.60999999999999999;0.0;0.0;93;72;59;22;0.20000000000000001;0.11;0.14000000000000001;0.55000000000000004;0;6.666399722643291;22;69;21;2;
2019_03_21 14:15;50;2;1;control;1;56;0;28;84;37;41;0.68000000000000005;0.28000000000000003;0.02;0.0199999999999999;6;95;0;0;0.72999999999999998;0.27000000000000002;0.0;0.0;1;8.096167840547423;22;69;21;2;
2019_03_21 14:15;50;2;1;control;2;69;0;54;34;64;49;0.34000000000000002;0.25;0.20999999999999999;0.20000000000000001;14;98;0;0;0.62;0.38;0.0;0.0;0;4.083249011307998;22;69;21;2;
2019_03_21 14:15;50;2;1;control;3;138;0;8;20;43;51;0.38;0.5;0.02;0.10000000000000001;72;82;70;1;0.39000000000000001;0.050000000000000003;0.070000000000000007;0.48999999999999999;1;9.999382939166026;22;69;21;2;
2019_03_21 14:15;50;2;1;control;4;150;1;25;21;78;38;0.84999999999999998;0.059999999999999998;0.050000000000000003;0.040000000000000001;31;43;64;95;0.059999999999999998;0.45000000000000001;0.13;0.35999999999999999;1;7.766340165369911;22;69;21;2;
2019_03_21 14:15;50;2;1;control;5;52;0;71;51;10;54;0.22;0.12;0.19;0.46999999999999997;91;1;0;0;0.29999999999999999;0.69999999999999996;0.0;0.0;0;4.733027539707109;22;69;21;2;
2019_03_21 14:15;50;2;1;control;6;130;1;37;79;23;95;0.94999999999999996;0.029999999999999999;0.01;0.01;94;4;58;49;0.46000000000000002;0.5;0.029999999999999999;0.01;1;16.632561761407487;22;69;21;2;
2019_03_21 14:15;50;2;1;control;7;65;0;75;64;59;52;0.59999999999999998;0.22;0.14000000000000001;0.040000000000000001;1;99;0;0;0.35999999999999999;0.64000000000000001;0.0;0.0;0;4.366560434276835;22;69;21;2;
2019_03_21 14:15;50;2;1;control;8;95;0;93;88;68;85;0.83999999999999997;0.14000000000000001;0.01;0.01;2;82;0;0;0.41999999999999998;0.57999999999999996;0.0;0.0;0;6.74976034370593;22;69;21;2;
2019_03_21 14:15;50;2;1;control;9;96;1;51;54;39;7;0.17000000000000001;0.26000000000000001;0.10000000000000001;0.46999999999999997;24;96;0;0;0.28000000000000003;0.71999999999999997;0.0;0.0;1;7.766320922306477;22;69;21;2;
2019_03_21 14:15;50;2;1;control;10;98;1;27;10;31;79;0.23000000000000001;0.67000000000000004;0.070000000000000007;0.029999999999999999;25;99;0;0;0.38;0.62;0.0;0.0;1;8.716440341539055;22;69;21;2;
2019_03_21 14:15;50;2;1;control;11;49;0;21;30;0;0;0.53000000000000003;0.46999999999999997;0.0;0.0;93;99;89;25;0.44;0.02;0.11;0.42999999999999999;1;4.949653737146946;22;69;21;2;
2019_03_21 14:15;50;2;1;control;12;124;1;37;65;15;41;0.17999999999999999;0.45000000000000001;0.02;0.34999999999999998;40;7;98;30;0.070000000000000007;0.45000000000000001;0.45000000000000001;0.029999999999999898;0;19.898871939672972;22;69;21;2;
2019_03_21 14:15;50;2;1;control;13;59;1;56;47;83;90;0.31;0.12;0.54000000000000004;0.029999999999999898;10;98;0;0;0.46999999999999997;0.53000000000000003;0.0;0.0;0;3.166589747874241;22;69;21;2;
2019_03_21 14:15;50;2;1;control;14;86;1;56;30;57;88;0.20000000000000001;0.35999999999999999;0.080000000000000002;0.35999999999999999;98;2;0;0;0.77000000000000002;0.23000000000000001;0.0;0.0;1;6.84999360168149;22;69;21;2;
2019_03_21 14:15;50;2;1;control;15;36;0;70;17;0;0;0.33000000000000002;0.67000000000000004;0.0;0.0;84;1;12;88;0.22;0.27000000000000002;0.14000000000000001;0.37;1;9.5661042454376;22;69;21;2;
2019_03_21 14:15;50;2;1;control;16;144;0;99;93;90;71;0.65000000000000002;0.32000000000000001;0.01;0.02;97;14;48;73;0.23000000000000001;0.46000000000000002;0.13;0.17999999999999999;0;10.399410585030637;22;69;21;2;
2019_03_21 14:15;50;2;1;control;17;18;1;68;50;0;0;0.029999999999999999;0.96999999999999997;0.0;0.0;34;64;15;89;0.65000000000000002;0.029999999999999999;0.050000000000000003;0.27000000000000002;1;14.199319950212157;22;69;21;2;
2019_03_21 14:15;50;2;1;control;18;76;0;39;62;9;28;0.01;0.51000000000000001;0.26000000000000001;0.22;77;7;0;0;0.57999999999999996;0.41999999999999998;0.0;0.0;0;7.732898611195196;22;69;21;2;
2019_03_21 14:15;50;2;1;control;19;112;0;70;44;98;64;0.02;0.75;0.12;0.11;33;2;63;85;0.23999999999999999;0.31;0.080000000000000002;0.37;0;9.016151663545315;22;69;21;2;
2019_03_21 14:15;50;2;1;control;20;53;1;26;70;50;80;0.29999999999999999;0.59999999999999998;0.040000000000000001;0.059999999999999998;89;1;0;0;0.40999999999999998;0.58999999999999997;0.0;0.0;0;3.3666120698253508;22;69;21;2;
2019_03_21 14:15;50;2;1;control;21;111;0;51;36;48;27;0.93000000000000005;0.01;0.01;0.049999999999999899;31;78;30;53;0.55000000000000004;0.16;0.029999999999999999;0.26000000000000001;1;18.082284933932897;22;69;21;2;
2019_03_21 14:15;50;2;1;control;22;118;0;62;52;65;68;0.40999999999999998;0.44;0.10000000000000001;0.0500000000000001;79;20;14;37;0.56999999999999995;0.23999999999999999;0.14000000000000001;0.050000000000000003;0;8.549582152958465;22;69;21;2;
2019_03_21 14:15;50;2;1;control;23;16;0;64;53;0;0;0.65000000000000002;0.34999999999999998;0.0;0.0;29;17;81;46;0.10000000000000001;0.01;0.44;0.45000000000000001;1;14.132706565444096;22;69;21;2;
2019_03_21 14:15;50;2;1;control;24;25;0;50;53;0;0;0.82999999999999996;0.17000000000000001;0.0;0.0;83;16;97;4;0.45000000000000001;0.29999999999999999;0.11;0.14000000000000001;0;5.766476149668961;22;69;21;2;
2019_03_21 14:15;50;2;1;control;25;134;0;57;48;50;55;0.02;0.62;0.17999999999999999;0.17999999999999999;80;96;15;18;0.23999999999999999;0.35999999999999999;0.33000000000000002;0.070000000000000007;0;8.499497275022804;22;69;21;2;
2019_03_21 14:15;50;2;1;control;26;14;1;36;40;0;0;0.54000000000000004;0.46000000000000002;0.0;0.0;99;70;1;11;0.16;0.089999999999999997;0.080000000000000002;0.67000000000000004;0;21.36567557417402;22;69;21;2;
2019_03_21 14:15;50;2;1;control;27;92;0;90;86;65;94;0.16;0.34000000000000002;0.28000000000000003;0.22;79;22;0;0;0.35999999999999999;0.64000000000000001;0.0;0.0;0;3.466361685525044;22;69;21;2;
2019_03_21 14:15;50;2;1;control;28;31;0;10;59;0;0;0.23999999999999999;0.76000000000000001;0.0;0.0;1;79;53;73;0.23000000000000001;0.58999999999999997;0.050000000000000003;0.13;1;9.532786167575978;22;69;21;2;
2019_03_21 14:15;50;2;1;control;29;41;0;99;40;0;0;0.89000000000000001;0.11;0.0;0.0;1;67;52;46;0.51000000000000001;0.38;0.029999999999999999;0.080000000000000002;0;12.732754608954565;22;69;21;2;
2019_03_21 14:15;50;2;1;control;30;61;0;43;18;39;70;0.75;0.089999999999999997;0.089999999999999997;0.070000000000000007;16;66;0;0;0.64000000000000001;0.35999999999999999;0.0;0.0;0;4.199646761537224;22;69;21;2;
2019_03_21 14:15;50;2;1;control;31;146;0;25;5;64;35;0.94999999999999996;0.02;0.01;0.02;47;97;12;79;0.20999999999999999;0.029999999999999999;0.02;0.73999999999999999;1;10.132889695243648;22;69;21;2;
2019_03_21 14:15;50;2;1;control;32;131;1;83;41;81;88;0.23999999999999999;0.58999999999999997;0.10000000000000001;0.070000000000000007;82;97;4;17;0.26000000000000001;0.46999999999999997;0.11;0.16;1;11.449484558565018;22;69;21;2;
2019_03_21 14:15;50;2;1;control;33;109;1;75;28;16;56;0.19;0.070000000000000007;0.059999999999999998;0.68000000000000005;3;50;98;44;0.5;0.02;0.34999999999999998;0.13;0;7.166415918885832;22;69;21;2;
2019_03_21 14:15;50;2;1;control;34;19;1;22;53;0;0;0.13;0.87;0.0;0.0;4;93;96;65;0.46999999999999997;0.059999999999999998;0.26000000000000001;0.20999999999999999;1;15.26596636890099;22;69;21;2;
2019_03_21 14:15;50;2;1;control;35;82;1;78;66;30;27;0.28999999999999998;0.58999999999999997;0.080000000000000002;0.040000000000000001;90;6;0;0;0.82999999999999996;0.17000000000000001;0.0;0.0;1;6.082943046632863;22;69;21;2;
2019_03_21 14:15;50;2;1;control;36;133;0;59;88;60;36;0.67000000000000004;0.070000000000000007;0.12;0.14000000000000001;7;91;66;61;0.25;0.68999999999999995;0.01;0.0500000000000001;1;12.666071628445934;22;69;21;2;
2019_03_21 14:15;50;2;1;control;37;54;0;44;79;78;52;0.79000000000000004;0.19;0.01;0.0099999999999999603;96;1;0;0;0.28000000000000003;0.71999999999999997;0.0;0.0;0;11.2326771556327;22;69;21;2;
2019_03_21 14:15;50;2;1;control;38;128;1;70;49;27;54;0.27000000000000002;0.53000000000000003;0.02;0.17999999999999999;72;97;6;20;0.29999999999999999;0.39000000000000001;0.22;0.0899999999999999;0;13.24930861284156;22;69;21;2;
2019_03_21 14:15;50;2;1;control;39;13;0;52;56;0;0;0.46999999999999997;0.53000000000000003;0.0;0.0;94;71;27;2;0.089999999999999997;0.31;0.57999999999999996;0.020000000000000101;0;7.999551636670731;22;69;21;2;
2019_03_21 14:15;50;2;1;control;40;6;1;9;51;0;0;0.14999999999999999;0.84999999999999998;0.0;0.0;6;40;50;73;0.42999999999999999;0.26000000000000001;0.059999999999999998;0.25;0;8.732978469901354;22;69;21;2;
2019_03_21 14:15;50;2;1;control;41;11;0;17;36;0;0;0.14000000000000001;0.85999999999999999;0.0;0.0;19;41;34;95;0.88;0.02;0.050000000000000003;0.050000000000000003;0;10.14941948494743;22;69;21;2;
2019_03_21 14:15;50;2;1;control;42;21;1;64;28;0;0;0.080000000000000002;0.92000000000000004;0.0;0.0;50;1;88;13;0.57999999999999996;0.13;0.02;0.27000000000000002;1;11.632683954845561;22;69;21;2;
2019_03_21 14:15;50;2;1;control;43;60;0;64;59;57;96;0.83999999999999997;0.13;0.02;0.01;83;6;0;0;0.54000000000000004;0.46000000000000002;0.0;0.0;0;4.8998215847495885;22;69;21;2;
2019_03_21 14:15;50;2;1;control;44;55;1;74;55;47;48;0.60999999999999999;0.31;0.070000000000000007;0.01;97;6;0;0;0.42999999999999999;0.56999999999999995;0.0;0.0;0;4.233317949574484;22;69;21;2;
2019_03_21 14:15;50;2;1;control;45;26;0;76;41;0;0;0.57999999999999996;0.41999999999999998;0.0;0.0;61;79;84;2;0.13;0.029999999999999999;0.67000000000000004;0.17000000000000001;0;9.549623204822637;22;69;21;2;
2019_03_21 14:15;50;2;1;control;46;83;1;17;12;7;41;0.65000000000000002;0.19;0.089999999999999997;0.070000000000000007;6;84;0;0;0.72999999999999998;0.27000000000000002;0.0;0.0;1;13.96576755600654;22;69;21;2;
2019_03_21 14:15;50;2;1;control;47;2;0;59;32;0;0;0.080000000000000002;0.92000000000000004;0.0;0.0;33;38;85;1;0.28999999999999998;0.050000000000000003;0.070000000000000007;0.58999999999999997;0;7.33290977217257;22;69;21;2;
2019_03_21 14:15;50;2;1;control;48;46;0;5;19;0;0;0.32000000000000001;0.68000000000000005;0.0;0.0;88;38;97;66;0.60999999999999999;0.20000000000000001;0.040000000000000001;0.14999999999999999;1;12.19939339456323;22;69;21;2;
2019_03_21 14:15;50;2;1;control;49;85;0;31;22;82;50;0.11;0.69999999999999996;0.01;0.17999999999999999;3;99;0;0;0.62;0.38;0.0;0.0;0;3.3331435753661935;22;69;21;2;
2019_03_21 14:15;50;2;1;control;50;125;0;37;41;10;35;0.91000000000000003;0.040000000000000001;0.029999999999999999;0.02;7;13;91;93;0.26000000000000001;0.39000000000000001;0.16;0.19;1;9.066185868088724;22;69;21;2;
2019_03_21 14:15;50;2;1;control;51;67;1;44;42;8;89;0.88;0.070000000000000007;0.029999999999999999;0.02;10;63;0;0;0.39000000000000001;0.60999999999999999;0.0;0.0;0;9.266125765592733;22;69;21;2;
2019_03_21 14:15;50;2;1;control;52;15;0;77;81;0;0;0.28000000000000003;0.71999999999999997;0.0;0.0;98;14;87;18;0.55000000000000004;0.23000000000000001;0.16;0.059999999999999901;0;10.199403016093129;22;69;21;2;
2019_03_21 14:15;50;2;1;control;53;137;0;71;22;28;17;0.25;0.46000000000000002;0.050000000000000003;0.23999999999999999;3;98;92;69;0.42999999999999999;0.23999999999999999;0.20000000000000001;0.13;1;15.432463429364361;22;69;21;2;
2019_03_21 14:15;50;2;1;control;54;12;0;53;68;0;0;0.31;0.68999999999999995;0.0;0.0;69;54;97;29;0.25;0.20999999999999999;0.20000000000000001;0.34000000000000002;0;15.282446768080263;22;69;21;2;
2019_03_21 14:15;50;2;1;control;55;78;1;74;36;34;3;0.14999999999999999;0.64000000000000001;0.13;0.080000000000000002;1;83;0;0;0.41999999999999998;0.57999999999999996;0.0;0.0;0;13.999247275582093;22;69;21;2;
2019_03_21 14:15;50;2;1;control;56;84;0;43;10;5;45;0.78000000000000003;0.13;0.059999999999999998;0.029999999999999999;87;1;0;0;0.57999999999999996;0.41999999999999998;0.0;0.0;0;10.332777315767089;22;69;21;2;
2019_03_21 14:15;50;2;1;control;57;79;1;52;46;29;22;0.17999999999999999;0.51000000000000001;0.23999999999999999;0.070000000000000104;93;14;0;0;0.45000000000000001;0.55000000000000004;0.0;0.0;0;6.299592656461755;22;69;21;2;
2019_03_21 14:15;50;2;1;control;58;23;0;54;40;0;0;0.93000000000000005;0.070000000000000007;0.0;0.0;36;23;71;86;0.02;0.41999999999999998;0.19;0.37;0;5.649825673899613;22;69;21;2;
2019_03_21 14:15;50;2;1;control;59;62;0;12;45;16;50;0.20999999999999999;0.76000000000000001;0.02;0.01;92;15;0;0;0.20999999999999999;0.79000000000000004;0.0;0.0;0;9.866175412691518;22;69;21;2;
2019_03_21 14:15;50;2;1;control;60;142;1;98;65;64;84;0.88;0.070000000000000007;0.01;0.040000000000000001;5;68;60;16;0.46000000000000002;0.080000000000000002;0.27000000000000002;0.19;0;6.46632544442582;22;69;21;2;
2019_03_21 14:15;50;2;1;control;61;24;0;35;27;0;0;0.070000000000000007;0.93000000000000005;0.0;0.0;62;3;81;95;0.35999999999999999;0.55000000000000004;0.01;0.080000000000000002;1;14.282520533148272;22;69;21;2;
2019_03_21 14:15;50;2;1;control;62;121;1;42;51;47;70;0.41999999999999998;0.17000000000000001;0.23999999999999999;0.17000000000000001;21;76;48;9;0.14999999999999999;0.34000000000000002;0.40999999999999998;0.10000000000000001;0;7.233059771833723;22;69;21;2;
2019_03_21 14:15;50;2;1;control;63;10;1;45;62;0;0;0.059999999999999998;0.93999999999999995;0.0;0.0;17;99;28;67;0.58999999999999997;0.34000000000000002;0.01;0.059999999999999998;0;5.86647015224662;22;69;21;2;
2019_03_21 14:15;50;2;1;control;64;43;1;60;83;0;0;0.23000000000000001;0.77000000000000002;0.0;0.0;72;5;70;12;0.29999999999999999;0.40999999999999998;0.12;0.17000000000000001;0;4.516384023510909;22;69;21;2;
2019_03_21 14:15;50;2;1;control;65;27;0;44;26;0;0;0.35999999999999999;0.64000000000000001;0.0;0.0;63;10;3;5;0.58999999999999997;0.19;0.14999999999999999;0.070000000000000007;0;10.332714775817294;22;69;21;2;
2019_03_21 14:15;50;2;1;control;66;141;1;93;28;60;91;0.81999999999999995;0.10000000000000001;0.01;0.070000000000000007;14;85;7;89;0.45000000000000001;0.070000000000000007;0.23999999999999999;0.23999999999999999;0;7.766181089395104;22;69;21;2;
2019_03_21 14:15;50;2;1;control;67;120;0;64;40;48;51;0.19;0.02;0.070000000000000007;0.71999999999999997;97;9;79;94;0.23000000000000001;0.54000000000000004;0.01;0.22;0;8.099494645135564;22;69;21;2;
2019_03_21 14:15;50;2;1;control;68;17;1;81;52;0;0;0.059999999999999998;0.93999999999999995;0.0;0.0;34;3;69;41;0.01;0.22;0.75;0.02;0;8.88277223239129;22;69;21;2;
2019_03_21 14:15;50;2;1;control;69;57;0;52;35;23;47;0.22;0.68000000000000005;0.040000000000000001;0.059999999999999998;71;7;0;0;0.28999999999999998;0.70999999999999996;0.0;0.0;0;5.366251583142002;22;69;21;2;
2019_03_21 14:15;50;2;1;control;70;63;0;56;78;42;36;0.93000000000000005;0.040000000000000001;0.01;0.0199999999999999;2;72;0;0;0.32000000000000001;0.68000000000000005;0.0;0.0;0;12.816084120400774;22;69;21;2;
2019_03_21 14:15;50;2;1;control;71;148;1;37;63;55;10;0.72999999999999998;0.070000000000000007;0.029999999999999999;0.17000000000000001;80;14;23;70;0.46999999999999997;0.10000000000000001;0.23000000000000001;0.20000000000000001;1;10.966045618242788;22;69;21;2;
2019_03_21 14:15;50;2;1;control;72;93;1;87;81;73;98;0.80000000000000004;0.040000000000000001;0.14999999999999999;0.0099999999999999499;5;71;0;0;0.51000000000000001;0.48999999999999999;0.0;0.0;0;2.7498122999732004;22;69;21;2;
2019_03_21 14:15;50;2;1;control;73;28;1;47;30;0;0;0.97999999999999998;0.02;0.0;0.0;55;48;77;13;0.070000000000000007;0.26000000000000001;0.42999999999999999;0.23999999999999999;1;3.633006596843188;22;69;21;2;
2019_03_21 14:15;50;2;1;control;74;39;0;14;33;0;0;0.78000000000000003;0.22;0.0;0.0;93;84;1;25;0.14000000000000001;0.23999999999999999;0.39000000000000001;0.23000000000000001;1;6.349921600560265;22;69;21;2;
2019_03_21 14:15;50;2;1;control;75;34;0;32;48;0;0;0.28000000000000003;0.71999999999999997;0.0;0.0;97;83;7;62;0.040000000000000001;0.54000000000000004;0.35999999999999999;0.059999999999999901;1;11.282695324289307;22;69;21;2;
2019_03_21 14:15;50;3;1;timed;1;57;0;52;35;23;47;0.22;0.68000000000000005;0.040000000000000001;0.059999999999999998;71;7;0;0;0.28999999999999998;0.70999999999999996;0.0;0.0;0;3.5648691616152064;22;69;21;2;
2019_03_21 14:15;50;3;1;timed;2;51;0;52;23;43;16;0.60999999999999999;0.20999999999999999;0.01;0.17000000000000001;92;7;0;0;0.14999999999999999;0.84999999999999998;0.0;0.0;0;3.2664275609386095;22;69;21;2;
2019_03_21 14:15;50;3;1;timed;3;133;1;59;88;60;36;0.67000000000000004;0.070000000000000007;0.12;0.14000000000000001;7;91;66;61;0.25;0.68999999999999995;0.01;0.0500000000000001;1;4.733002203009164;22;69;21;2;
2019_03_21 14:15;50;3;1;timed;4;136;0;29;67;14;75;0.46000000000000002;0.29999999999999999;0.20999999999999999;0.0300000000000001;70;86;1;85;0.31;0.39000000000000001;0.27000000000000002;0.029999999999999898;0;5.366326310364457;22;69;21;2;
2019_03_21 14:15;50;3;1;timed;5;24;0;35;27;0;0;0.070000000000000007;0.93000000000000005;0.0;0.0;62;3;81;95;0.35999999999999999;0.55000000000000004;0.01;0.080000000000000002;0;3.8331668273985997;22;69;21;2;
2019_03_21 14:15;50;3;1;timed;6;106;0;85;69;22;61;0.10000000000000001;0.58999999999999997;0.17999999999999999;0.13;20;79;91;84;0.55000000000000004;0.14999999999999999;0.26000000000000001;0.039999999999999897;0;5.666438208765612;22;69;21;2;
2019_03_21 14:15;50;3;1;timed;7;68;1;84;27;55;62;0.01;0.050000000000000003;0.40999999999999998;0.53000000000000003;9;82;0;0;0.37;0.63;0.0;0.0;0;5.899652566527948;22;69;21;2;
2019_03_21 14:15;50;3;1;timed;8;130;0;37;79;23;95;0.94999999999999996;0.029999999999999999;0.01;0.01;94;4;58;49;0.46000000000000002;0.5;0.029999999999999999;0.01;0;6.066361621382384;22;69;21;2;
2019_03_21 14:15;50;3;1;timed;9;91;1;74;81;86;48;0.93000000000000005;0.02;0.01;0.039999999999999897;7;64;0;0;0.13;0.87;0.0;0.0;0;4.333059547332596;22;69;21;2;
2019_03_21 14:15;50;3;1;timed;10;124;0;37;65;15;41;0.17999999999999999;0.45000000000000001;0.02;0.34999999999999998;40;7;98;30;0.070000000000000007;0.45000000000000001;0.45000000000000001;0.029999999999999898;0;5.333120483694074;22;69;21;2;
2019_03_21 14:15;50;3;1;timed;11;29;0;44;51;0;0;0.78000000000000003;0.22;0.0;0.0;74;1;68;82;0.69999999999999996;0.28000000000000003;0.01;0.01;1;7.149878111242288;22;69;21;2;
2019_03_21 14:15;50;3;1;timed;12;126;1;16;55;51;42;0.68999999999999995;0.23999999999999999;0.01;0.060000000000000102;66;4;1;5;0.46999999999999997;0.38;0.089999999999999997;0.059999999999999998;0;5.816352881824059;22;69;21;2;
2019_03_21 14:15;50;3;1;timed;13;144;1;99;93;90;71;0.65000000000000002;0.32000000000000001;0.01;0.02;97;14;48;73;0.23000000000000001;0.46000000000000002;0.13;0.17999999999999999;0;4.866502865452276;22;69;21;2;
2019_03_21 14:15;50;3;1;timed;14;75;1;67;80;36;81;0.81999999999999995;0.080000000000000002;0.059999999999999998;0.040000000000000001;3;97;0;0;0.32000000000000001;0.68000000000000005;0.0;0.0;0;3.7332789823758503;22;69;21;2;
2019_03_21 14:15;50;3;1;timed;15;11;1;17;36;0;0;0.14000000000000001;0.85999999999999999;0.0;0.0;19;41;34;95;0.88;0.02;0.050000000000000003;0.050000000000000003;1;6.716285434895326;22;69;21;2;
2019_03_21 14:15;50;3;1;timed;16;47;0;2;40;0;0;0.45000000000000001;0.55000000000000004;0.0;0.0;93;89;11;56;0.58999999999999997;0.070000000000000007;0.28000000000000003;0.059999999999999998;1;4.233267917614285;22;69;21;2;
2019_03_21 14:15;50;3;1;timed;17;103;1;38;49;89;50;0.89000000000000001;0.070000000000000007;0.01;0.029999999999999999;6;64;99;27;0.70999999999999996;0.17999999999999999;0.059999999999999998;0.050000000000000003;0;4.566575379722053;22;69;21;2;
2019_03_21 14:15;50;3;1;timed;18;95;1;93;88;68;85;0.83999999999999997;0.14000000000000001;0.01;0.01;2;82;0;0;0.41999999999999998;0.57999999999999996;0.0;0.0;0;2.599859782227213;22;69;21;2;
2019_03_21 14:15;50;3;1;timed;19;21;1;64;28;0;0;0.080000000000000002;0.92000000000000004;0.0;0.0;50;1;88;13;0.57999999999999996;0.13;0.02;0.27000000000000002;1;4.566359215998091;22;69;21;2;
2019_03_21 14:15;50;3;1;timed;20;110;0;47;44;23;52;0.13;0.27000000000000002;0.040000000000000001;0.56000000000000005;99;2;30;22;0.28999999999999998;0.5;0.11;0.10000000000000001;0;4.5330536461278825;22;69;21;2;
2019_03_21 14:15;50;3;1;timed;21;120;1;64;40;48;51;0.19;0.02;0.070000000000000007;0.71999999999999997;97;9;79;94;0.23000000000000001;0.54000000000000004;0.01;0.22;0;4.233053998917967;22;69;21;2;
2019_03_21 14:15;50;3;1;timed;22;54;1;44;79;78;52;0.79000000000000004;0.19;0.01;0.0099999999999999603;96;1;0;0;0.28000000000000003;0.71999999999999997;0.0;0.0;0;4.983057767349237;22;69;21;2;
2019_03_21 14:15;50;3;1;timed;23;56;0;28;84;37;41;0.68000000000000005;0.28000000000000003;0.02;0.0199999999999999;6;95;0;0;0.72999999999999998;0.27000000000000002;0.0;0.0;0;4.899850770058038;22;69;21;2;
2019_03_21 14:15;50;3;1;timed;24;100;1;27;14;59;52;0.02;0.95999999999999996;0.01;0.01;17;98;0;0;0.48999999999999999;0.51000000000000001;0.0;0.0;1;3.96654786214458;22;69;21;2;
2019_03_21 14:15;50;3;1;timed;25;143;0;88;44;56;73;0.95999999999999996;0.02;0.01;0.01;20;3;87;32;0.19;0.40000000000000002;0.28000000000000003;0.13;0;3.5665840390993253;22;69;21;2;
2019_03_21 14:15;50;3;1;timed;26;7;0;49;29;0;0;0.95999999999999996;0.040000000000000001;0.0;0.0;23;99;64;25;0.68999999999999995;0.12;0.059999999999999998;0.13;0;6.632996654592716;22;69;21;2;
2019_03_21 14:15;50;3;1;timed;27;67;0;44;42;8;89;0.88;0.070000000000000007;0.029999999999999999;0.02;10;63;0;0;0.39000000000000001;0.60999999999999999;0.0;0.0;0;5.732999637268222;22;69;21;2;
2019_03_21 14:15;50;3;1;timed;28;113;0;85;65;39;64;0.44;0.34000000000000002;0.13;0.089999999999999997;87;2;4;35;0.67000000000000004;0.17000000000000001;0.11;0.049999999999999899;0;6.516399097243266;22;69;21;2;
2019_03_21 14:15;50;3;1;timed;29;98;0;27;10;31;79;0.23000000000000001;0.67000000000000004;0.070000000000000007;0.029999999999999999;25;99;0;0;0.38;0.62;0.0;0.0;1;6.032925519410128;22;69;21;2;
2019_03_21 14:15;50;3;1;timed;30;122;0;35;58;25;31;0.81999999999999995;0.070000000000000007;0.080000000000000002;0.029999999999999999;18;64;68;89;0.63;0.17000000000000001;0.11;0.089999999999999997;0;6.2829483705463645;22;69;21;2;
2019_03_21 14:15;50;3;1;timed;31;99;0;8;24;15;73;0.56000000000000005;0.35999999999999999;0.070000000000000007;0.0099999999999999499;88;12;0;0;0.52000000000000002;0.47999999999999998;0.0;0.0;1;5.932978983048088;22;69;21;2;
2019_03_21 14:15;50;3;1;timed;32;63;1;56;78;42;36;0.93000000000000005;0.040000000000000001;0.01;0.0199999999999999;2;72;0;0;0.32000000000000001;0.68000000000000005;0.0;0.0;0;5.149837059378115;22;69;21;2;
2019_03_21 14:15;50;3;1;timed;33;112;1;70;44;98;64;0.02;0.75;0.12;0.11;33;2;63;85;0.23999999999999999;0.31;0.080000000000000002;0.37;1;7.332928694515431;22;69;21;2;
2019_03_21 14:15;50;3;1;timed;34;49;0;21;30;0;0;0.53000000000000003;0.46999999999999997;0.0;0.0;93;99;89;25;0.44;0.02;0.11;0.42999999999999999;1;3.099876299187599;22;69;21;2;
2019_03_21 14:15;50;3;1;timed;35;150;0;25;21;78;38;0.84999999999999998;0.059999999999999998;0.050000000000000003;0.040000000000000001;31;43;64;95;0.059999999999999998;0.45000000000000001;0.13;0.35999999999999999;1;5.933028052855661;22;69;21;2;
2019_03_21 14:15;50;3;1;timed;36;134;1;57;48;50;55;0.02;0.62;0.17999999999999999;0.17999999999999999;80;96;15;18;0.23999999999999999;0.35999999999999999;0.33000000000000002;0.070000000000000007;0;7.099739673452859;22;69;21;2;
2019_03_21 14:15;50;3;1;timed;37;33;1;27;70;0;0;0.88;0.12;0.0;0.0;93;3;77;16;0.080000000000000002;0.40000000000000002;0.5;0.02;1;4.616513689674321;22;69;21;2;
2019_03_21 14:15;50;3;1;timed;38;127;1;89;26;62;79;0.02;0.28999999999999998;0.53000000000000003;0.16;96;6;60;13;0.53000000000000003;0.25;0.17000000000000001;0.050000000000000003;0;6.78306912075459;22;69;21;2;
2019_03_21 14:15;50;3;1;timed;39;38;1;40;70;0;0;0.53000000000000003;0.46999999999999997;0.0;0.0;97;90;6;96;0.56999999999999995;0.070000000000000007;0.27000000000000002;0.089999999999999997;1;5.899661867339091;22;69;21;2;
2019_03_21 14:15;50;3;1;timed;40;62;1;12;45;16;50;0.20999999999999999;0.76000000000000001;0.02;0.01;92;15;0;0;0.20999999999999999;0.79000000000000004;0.0;0.0;0;4.949967399046727;22;69;21;2;
2019_03_21 14:15;50;3;1;timed;41;12;1;53;68;0;0;0.31;0.68999999999999995;0.0;0.0;69;54;97;29;0.25;0.20999999999999999;0.20000000000000001;0.34000000000000002;1;3.566447734081521;22;69;21;2;
2019_03_21 14:15;50;3;1;timed;42;46;1;5;19;0;0;0.32000000000000001;0.68000000000000005;0.0;0.0;88;38;97;66;0.60999999999999999;0.20000000000000001;0.040000000000000001;0.14999999999999999;1;3.7997451577230095;22;69;21;2;
2019_03_21 14:15;50;3;1;timed;43;42;1;70;48;0;0;0.79000000000000004;0.20999999999999999;0.0;0.0;51;8;12;67;0.19;0.26000000000000001;0.28999999999999998;0.26000000000000001;0;6.033065673040255;22;69;21;2;
2019_03_21 14:15;50;3;1;timed;44;138;1;8;20;43;51;0.38;0.5;0.02;0.10000000000000001;72;82;70;1;0.39000000000000001;0.050000000000000003;0.070000000000000007;0.48999999999999999;1;6.53294909215947;22;69;21;2;
2019_03_21 14:15;50;3;1;timed;45;86;1;56;30;57;88;0.20000000000000001;0.35999999999999999;0.080000000000000002;0.35999999999999999;98;2;0;0;0.77000000000000002;0.23000000000000001;0.0;0.0;1;3.699764625287571;22;69;21;2;
2019_03_21 14:15;50;3;1;timed;46;105;1;49;74;63;58;0.84999999999999998;0.080000000000000002;0.02;0.050000000000000003;97;5;86;8;0.25;0.52000000000000002;0.070000000000000007;0.16;0;3.7663552390986297;22;69;21;2;
2019_03_21 14:15;50;3;1;timed;47;2;1;59;32;0;0;0.080000000000000002;0.92000000000000004;0.0;0.0;33;38;85;1;0.28999999999999998;0.050000000000000003;0.070000000000000007;0.58999999999999997;1;3.3164405981133314;22;69;21;2;
2019_03_21 14:15;50;3;1;timed;48;76;1;39;62;9;28;0.01;0.51000000000000001;0.26000000000000001;0.22;77;7;0;0;0.57999999999999996;0.41999999999999998;0.0;0.0;0;4.683049781478985;22;69;21;2;
2019_03_21 14:15;50;3;1;timed;49;14;0;36;40;0;0;0.54000000000000004;0.46000000000000002;0.0;0.0;99;70;1;11;0.16;0.089999999999999997;0.080000000000000002;0.67000000000000004;0;5.183019473657623;22;69;21;2;
2019_03_21 14:15;50;3;1;timed;50;74;0;66;47;52;44;0.41999999999999998;0.26000000000000001;0.17999999999999999;0.14000000000000001;17;99;0;0;0.47999999999999998;0.52000000000000002;0.0;0.0;0;3.4330962053645635;22;69;21;2;
2019_03_21 14:15;50;3;1;timed;51;58;0;37;58;76;34;0.20999999999999999;0.57999999999999996;0.19;0.020000000000000101;86;5;0;0;0.47999999999999998;0.52000000000000002;0.0;0.0;0;3.849921440201797;22;69;21;2;
2019_03_21 14:15;50;3;1;timed;52;131;1;83;41;81;88;0.23999999999999999;0.58999999999999997;0.10000000000000001;0.070000000000000007;82;97;4;17;0.26000000000000001;0.46999999999999997;0.11;0.16;1;4.716511540864303;22;69;21;2;
2019_03_21 14:15;50;3;1;timed;53;28;1;47;30;0;0;0.97999999999999998;0.02;0.0;0.0;55;48;77;13;0.070000000000000007;0.26000000000000001;0.42999999999999999;0.23999999999999999;1;4.2497342052156455;22;69;21;2;
2019_03_21 14:15;50;3;1;timed;54;40;1;45;49;0;0;0.68999999999999995;0.31;0.0;0.0;2;92;65;73;0.23999999999999999;0.59999999999999998;0.11;0.050000000000000003;1;5.7996749205485685;22;69;21;2;
2019_03_21 14:15;50;3;1;timed;55;108;1;48;72;39;70;0.14000000000000001;0.66000000000000003;0.02;0.17999999999999999;81;44;98;8;0.59999999999999998;0.029999999999999999;0.050000000000000003;0.32000000000000001;1;5.1496850391922635;22;69;21;2;
2019_03_21 14:15;50;3;1;timed;56;78;0;74;36;34;3;0.14999999999999999;0.64000000000000001;0.13;0.080000000000000002;1;83;0;0;0.41999999999999998;0.57999999999999996;0.0;0.0;0;5.199858114494418;22;69;21;2;
2019_03_21 14:15;50;3;1;timed;57;115;1;50;28;61;79;0.83999999999999997;0.040000000000000001;0.059999999999999998;0.059999999999999998;1;26;97;55;0.45000000000000001;0.080000000000000002;0.40999999999999998;0.060000000000000102;0;4.733154864628887;22;69;21;2;
2019_03_21 14:15;50;3;1;timed;58;80;1;47;39;45;10;0.13;0.76000000000000001;0.059999999999999998;0.050000000000000003;2;87;0;0;0.48999999999999999;0.51000000000000001;0.0;0.0;0;3.8330314845334215;22;69;21;2;
2019_03_21 14:15;50;3;1;timed;59;79;1;52;46;29;22;0.17999999999999999;0.51000000000000001;0.23999999999999999;0.070000000000000104;93;14;0;0;0.45000000000000001;0.55000000000000004;0.0;0.0;0;3.5165963386225485;22;69;21;2;
2019_03_21 14:15;50;3;1;timed;60;97;1;17;33;32;74;0.94999999999999996;0.01;0.029999999999999999;0.01;76;23;0;0;0.33000000000000002;0.67000000000000004;0.0;0.0;1;6.099550450015158;22;69;21;2;
2019_03_21 14:15;50;3;1;timed;61;149;0;14;89;73;53;0.93999999999999995;0.01;0.01;0.040000000000000001;97;45;6;13;0.34000000000000002;0.01;0.40999999999999998;0.23999999999999999;1;6.2997831627708365;22;69;21;2;
2019_03_21 14:15;50;3;1;timed;62;70;0;66;55;69;50;0.22;0.29999999999999999;0.29999999999999999;0.17999999999999999;2;90;0;0;0.34000000000000002;0.66000000000000003;0.0;0.0;0;3.983141795382835;22;69;21;2;
2019_03_21 14:15;50;3;1;timed;63;125;1;37;41;10;35;0.91000000000000003;0.040000000000000001;0.029999999999999999;0.02;7;13;91;93;0.26000000000000001;0.39000000000000001;0.16;0.19;0;6.316388962564815;22;69;21;2;
2019_03_21 14:15;50;3;1;timed;64;69;1;54;34;64;49;0.34000000000000002;0.25;0.20999999999999999;0.20000000000000001;14;98;0;0;0.62;0.38;0.0;0.0;0;4.533196686217707;22;69;21;2;
2019_03_21 14:15;50;3;1;timed;65;60;1;64;59;57;96;0.83999999999999997;0.13;0.02;0.01;83;6;0;0;0.54000000000000004;0.46000000000000002;0.0;0.0;0;5.9330572381659294;22;69;21;2;
2019_03_21 14:15;50;3;1;timed;66;82;1;78;66;30;27;0.28999999999999998;0.58999999999999997;0.080000000000000002;0.040000000000000001;90;6;0;0;0.82999999999999996;0.17000000000000001;0.0;0.0;0;4.399731623438129;22;69;21;2;
2019_03_21 14:15;50;3;1;timed;67;59;1;56;47;83;90;0.31;0.12;0.54000000000000004;0.029999999999999898;10;98;0;0;0.46999999999999997;0.53000000000000003;0.0;0.0;0;3.5165729262316745;22;69;21;2;
2019_03_21 14:15;50;3;1;timed;68;65;1;75;64;59;52;0.59999999999999998;0.22;0.14000000000000001;0.040000000000000001;1;99;0;0;0.35999999999999999;0.64000000000000001;0.0;0.0;0;3.666586701056076;22;69;21;2;
2019_03_21 14:15;50;3;1;timed;69;123;0;26;24;51;92;0.72999999999999998;0.16;0.070000000000000007;0.040000000000000001;6;90;82;49;0.64000000000000001;0.25;0.050000000000000003;0.059999999999999998;0;5.266321082666764;22;69;21;2;
2019_03_21 14:15;50;3;1;timed;70;135;1;48;60;41;51;0.14000000000000001;0.40000000000000002;0.089999999999999997;0.37;94;1;85;65;0.64000000000000001;0.29999999999999999;0.01;0.050000000000000003;0;4.033090689019446;22;69;21;2;
2019_03_21 14:15;50;3;1;timed;71;4;1;40;43;0;0;0.58999999999999997;0.40999999999999998;0.0;0.0;2;33;88;81;0.69999999999999996;0.14000000000000001;0.13;0.029999999999999999;0;4.71652052096033;22;69;21;2;
2019_03_21 14:15;50;3;1;timed;72;96;1;51;54;39;7;0.17000000000000001;0.26000000000000001;0.10000000000000001;0.46999999999999997;24;96;0;0;0.28000000000000003;0.71999999999999997;0.0;0.0;1;2.533155634351715;22;69;21;2;
2019_03_21 14:15;50;3;1;timed;73;17;1;81;52;0;0;0.059999999999999998;0.93999999999999995;0.0;0.0;34;3;69;41;0.01;0.22;0.75;0.02;0;2.5164998025993555;22;69;21;2;
2019_03_21 14:15;50;3;1;timed;74;83;1;17;12;7;41;0.65000000000000002;0.19;0.089999999999999997;0.070000000000000007;6;84;0;0;0.72999999999999998;0.27000000000000002;0.0;0.0;0;3.933180393758448;22;69;21;2;
2019_03_21 14:15;50;3;1;timed;75;66;0;89;23;27;15;0.070000000000000007;0.54000000000000004;0.17000000000000001;0.22;9;73;0;0;0.72999999999999998;0.27000000000000002;0.0;0.0;0;2.6499725626017607;22;69;21;2;
2019_03_21 14:15;50;4;1;control;1;126;1;16;55;51;42;0.68999999999999995;0.23999999999999999;0.01;0.060000000000000102;66;4;1;5;0.46999999999999997;0.38;0.089999999999999997;0.059999999999999998;0;8.174281199497273;22;69;21;2;
2019_03_21 14:15;50;4;1;control;2;48;0;13;32;0;0;0.90000000000000002;0.10000000000000001;0.0;0.0;24;99;84;94;0.62;0.14999999999999999;0.20000000000000001;0.029999999999999999;1;3.133247616186054;22;69;21;2;
2019_03_21 14:15;50;4;1;control;3;37;1;14;98;0;0;0.93000000000000005;0.070000000000000007;0.0;0.0;41;2;87;66;0.17999999999999999;0.48999999999999999;0.32000000000000001;0.010000000000000101;1;4.216296820372008;22;69;21;2;
2019_03_21 14:15;50;4;1;control;4;64;0;48;39;34;19;0.46000000000000002;0.5;0.02;0.02;13;92;0;0;0.68999999999999995;0.31;0.0;0.0;0;2.5167425858890056;22;69;21;2;
2019_03_21 14:15;50;4;1;control;5;119;1;60;58;11;18;0.25;0.72999999999999998;0.01;0.01;96;23;42;85;0.44;0.48999999999999999;0.059999999999999998;0.010000000000000101;0;6.066301647173532;22;69;21;2;
2019_03_21 14:15;50;4;1;control;6;149;1;14;89;73;53;0.93999999999999995;0.01;0.01;0.040000000000000001;97;45;6;13;0.34000000000000002;0.01;0.40999999999999998;0.23999999999999999;1;3.4997750165402977;22;69;21;2;
2019_03_21 14:15;50;4;1;control;7;68;0;84;27;55;62;0.01;0.050000000000000003;0.40999999999999998;0.53000000000000003;9;82;0;0;0.37;0.63;0.0;0.0;0;2.833134434913518;22;69;21;2;
2019_03_21 14:15;50;4;1;control;8;47;1;2;40;0;0;0.45000000000000001;0.55000000000000004;0.0;0.0;93;89;11;56;0.58999999999999997;0.070000000000000007;0.28000000000000003;0.059999999999999998;1;4.83308087505975;22;69;21;2;
2019_03_21 14:15;50;4;1;control;9;90;0;27;44;50;72;0.68000000000000005;0.28999999999999998;0.02;0.0099999999999999707;6;96;0;0;0.46999999999999997;0.53000000000000003;0.0;0.0;0;2.466596771591867;22;69;21;2;
2019_03_21 14:15;50;4;1;control;10;73;0;65;68;70;47;0.25;0.23000000000000001;0.20999999999999999;0.31;27;95;0;0;0.45000000000000001;0.55000000000000004;0.0;0.0;1;3.8332723435196385;22;69;21;2;
2019_03_21 14:15;50;4;1;control;11;8;1;50;36;0;0;0.080000000000000002;0.92000000000000004;0.0;0.0;6;19;84;29;0.54000000000000004;0.070000000000000007;0.17000000000000001;0.22;0;6.349551813063954;22;69;21;2;
2019_03_21 14:15;50;4;1;control;12;89;0;26;41;13;56;0.059999999999999998;0.40999999999999998;0.050000000000000003;0.47999999999999998;5;97;0;0;0.37;0.63;0.0;0.0;0;2.83321814223018;22;69;21;2;
2019_03_21 14:15;50;4;1;control;13;99;0;8;24;15;73;0.56000000000000005;0.35999999999999999;0.070000000000000007;0.0099999999999999499;88;12;0;0;0.52000000000000002;0.47999999999999998;0.0;0.0;1;3.5331023952167016;22;69;21;2;
2019_03_21 14:15;50;4;1;control;14;40;0;45;49;0;0;0.68999999999999995;0.31;0.0;0.0;2;92;65;73;0.23999999999999999;0.59999999999999998;0.11;0.050000000000000003;0;4.883167356583726;22;69;21;2;
2019_03_21 14:15;50;4;1;control;15;71;1;68;55;36;51;0.20000000000000001;0.75;0.02;0.029999999999999999;38;81;0;0;0.52000000000000002;0.47999999999999998;0.0;0.0;1;4.949700561928694;22;69;21;2;
2019_03_21 14:15;50;4;1;control;16;38;0;40;70;0;0;0.53000000000000003;0.46999999999999997;0.0;0.0;97;90;6;96;0.56999999999999995;0.070000000000000007;0.27000000000000002;0.089999999999999997;1;3.99969371460611;22;69;21;2;
2019_03_21 14:15;50;4;1;control;17;66;1;89;23;27;15;0.070000000000000007;0.54000000000000004;0.17000000000000001;0.22;9;73;0;0;0.72999999999999998;0.27000000000000002;0.0;0.0;0;3.1331388928902015;22;69;21;2;
2019_03_21 14:15;50;4;1;control;18;5;0;70;5;0;0;0.98999999999999999;0.01;0.0;0.0;92;87;47;1;0.44;0.02;0.16;0.38;0;4.783306772564174;22;69;21;2;
2019_03_21 14:15;50;4;1;control;19;145;0;91;89;90;74;0.57999999999999996;0.29999999999999999;0.11;0.010000000000000101;2;75;84;39;0.32000000000000001;0.27000000000000002;0.39000000000000001;0.0199999999999999;0;3.966565501617879;22;69;21;2;
2019_03_21 14:15;50;4;1;control;20;7;0;49;29;0;0;0.95999999999999996;0.040000000000000001;0.0;0.0;23;99;64;25;0.68999999999999995;0.12;0.059999999999999998;0.13;0;6.999788005608934;22;69;21;2;
2019_03_21 14:15;50;4;1;control;21;103;1;38;49;89;50;0.89000000000000001;0.070000000000000007;0.01;0.029999999999999999;6;64;99;27;0.70999999999999996;0.17999999999999999;0.059999999999999998;0.050000000000000003;0;4.3829779727893765;22;69;21;2;
2019_03_21 14:15;50;4;1;control;22;70;1;66;55;69;50;0.22;0.29999999999999999;0.29999999999999999;0.17999999999999999;2;90;0;0;0.34000000000000002;0.66000000000000003;0.0;0.0;0;2.799947530585996;22;69;21;2;
2019_03_21 14:15;50;4;1;control;23;58;1;37;58;76;34;0.20999999999999999;0.57999999999999996;0.19;0.020000000000000101;86;5;0;0;0.47999999999999998;0.52000000000000002;0.0;0.0;0;4.549660728793242;22;69;21;2;
2019_03_21 14:15;50;4;1;control;24;29;1;44;51;0;0;0.78000000000000003;0.22;0.0;0.0;74;1;68;82;0.69999999999999996;0.28000000000000003;0.01;0.01;1;4.283108087955043;22;69;21;2;
2019_03_21 14:15;50;4;1;control;25;9;1;61;69;0;0;0.93999999999999995;0.060000000000000102;0.0;0.0;18;93;72;16;0.40999999999999998;0.34999999999999998;0.089999999999999997;0.14999999999999999;0;4.966468644875931;22;69;21;2;
2019_03_21 14:15;50;4;1;control;26;116;1;53;65;43;99;0.56999999999999995;0.37;0.050000000000000003;0.010000000000000101;57;72;11;87;0.67000000000000004;0.13;0.14999999999999999;0.050000000000000003;0;8.832807623588451;22;69;21;2;
2019_03_21 14:15;50;4;1;control;27;127;0;89;26;62;79;0.02;0.28999999999999998;0.53000000000000003;0.16;96;6;60;13;0.53000000000000003;0.25;0.17000000000000001;0.050000000000000003;1;6.232935012654707;22;69;21;2;
2019_03_21 14:15;50;4;1;control;28;72;1;63;82;51;61;0.01;0.96999999999999997;0.01;0.01;92;12;0;0;0.89000000000000001;0.11;0.0;0.0;0;7.86620844661411;22;69;21;2;
2019_03_21 14:15;50;4;1;control;29;104;0;55;85;93;3;0.87;0.02;0.089999999999999997;0.02;1;2;90;8;0.35999999999999999;0.070000000000000007;0.40000000000000002;0.17000000000000001;0;6.34960344861247;22;69;21;2;
2019_03_21 14:15;50;4;1;control;30;42;0;70;48;0;0;0.79000000000000004;0.20999999999999999;0.0;0.0;51;8;12;67;0.19;0.26000000000000001;0.28999999999999998;0.26000000000000001;0;3.066465213196352;22;69;21;2;
2019_03_21 14:15;50;4;1;control;31;105;0;49;74;63;58;0.84999999999999998;0.080000000000000002;0.02;0.050000000000000003;97;5;86;8;0.25;0.52000000000000002;0.070000000000000007;0.16;0;3.0665947831421363;22;69;21;2;
2019_03_21 14:15;50;4;1;control;32;4;0;40;43;0;0;0.58999999999999997;0.40999999999999998;0.0;0.0;2;33;88;81;0.69999999999999996;0.14000000000000001;0.13;0.029999999999999999;0;2.833293510886506;22;69;21;2;
2019_03_21 14:15;50;4;1;control;33;20;0;44;40;0;0;0.91000000000000003;0.089999999999999997;0.0;0.0;29;5;80;99;0.25;0.40000000000000002;0.26000000000000001;0.089999999999999997;1;5.916308398282126;22;69;21;2;
2019_03_21 14:15;50;4;1;control;34;87;1;10;30;63;4;0.56999999999999995;0.12;0.16;0.14999999999999999;86;2;0;0;0.42999999999999999;0.56999999999999995;0.0;0.0;1;5.099847434596086;22;69;21;2;
2019_03_21 14:15;50;4;1;control;35;123;1;26;24;51;92;0.72999999999999998;0.16;0.070000000000000007;0.040000000000000001;6;90;82;49;0.64000000000000001;0.25;0.050000000000000003;0.059999999999999998;0;4.916357147369126;22;69;21;2;
2019_03_21 14:15;50;4;1;control;36;3;1;53;40;0;0;0.31;0.68999999999999995;0.0;0.0;96;24;7;88;0.11;0.27000000000000002;0.58999999999999997;0.029999999999999999;0;3.0165015665461397;22;69;21;2;
2019_03_21 14:15;50;4;1;control;37;51;1;52;23;43;16;0.60999999999999999;0.20999999999999999;0.01;0.17000000000000001;92;7;0;0;0.14999999999999999;0.84999999999999998;0.0;0.0;0;4.59969910266409;22;69;21;2;
2019_03_21 14:15;50;4;1;control;38;101;0;30;96;61;45;0.65000000000000002;0.14000000000000001;0.11;0.10000000000000001;3;98;63;89;0.75;0.19;0.040000000000000001;0.02;0;2.733312657732313;22;69;21;2;
2019_03_21 14:15;50;4;1;control;39;135;1;48;60;41;51;0.14000000000000001;0.40000000000000002;0.089999999999999997;0.37;94;1;85;65;0.64000000000000001;0.29999999999999999;0.01;0.050000000000000003;1;3.333186230820502;22;69;21;2;
2019_03_21 14:15;50;4;1;control;40;136;1;29;67;14;75;0.46000000000000002;0.29999999999999999;0.20999999999999999;0.0300000000000001;70;86;1;85;0.31;0.39000000000000001;0.27000000000000002;0.029999999999999898;1;6.333129463790101;22;69;21;2;
2019_03_21 14:15;50;4;1;control;41;81;1;67;38;52;65;0.27000000000000002;0.35999999999999999;0.01;0.35999999999999999;2;77;0;0;0.14000000000000001;0.85999999999999999;0.0;0.0;0;4.383209851677748;22;69;21;2;
2019_03_21 14:15;50;4;1;control;42;108;0;48;72;39;70;0.14000000000000001;0.66000000000000003;0.02;0.17999999999999999;81;44;98;8;0.59999999999999998;0.029999999999999999;0.050000000000000003;0.32000000000000001;0;7.416334216055475;22;69;21;2;
2019_03_21 14:15;50;4;1;control;43;106;1;85;69;22;61;0.10000000000000001;0.58999999999999997;0.17999999999999999;0.13;20;79;91;84;0.55000000000000004;0.14999999999999999;0.26000000000000001;0.039999999999999897;0;4.999673830108804;22;69;21;2;
2019_03_21 14:15;50;4;1;control;44;45;1;97;87;0;0;0.71999999999999997;0.28000000000000003;0.0;0.0;96;11;14;4;0.25;0.029999999999999999;0.14000000000000001;0.57999999999999996;0;2.266653346190651;22;69;21;2;
2019_03_21 14:15;50;4;1;control;45;1;0;22;51;0;0;0.26000000000000001;0.73999999999999999;0.0;0.0;14;11;92;31;0.29999999999999999;0.40999999999999998;0.14999999999999999;0.14000000000000001;0;4.349686514495261;22;69;21;2;
2019_03_21 14:15;50;4;1;control;46;22;0;32;55;0;0;0.39000000000000001;0.60999999999999999;0.0;0.0;93;72;59;22;0.20000000000000001;0.11;0.14000000000000001;0.55000000000000004;1;8.999485568827367;22;69;21;2;
2019_03_21 14:15;50;4;1;control;47;114;0;57;39;79;97;0.77000000000000002;0.02;0.13;0.080000000000000002;92;36;6;1;0.54000000000000004;0.12;0.13;0.20999999999999999;1;6.849715860162178;22;69;21;2;
2019_03_21 14:15;50;4;1;control;48;44;0;79;74;0;0;0.71999999999999997;0.28000000000000003;0.0;0.0;3;67;15;36;0.41999999999999998;0.53000000000000003;0.02;0.029999999999999999;0;3.4999158116061153;22;69;21;2;
2019_03_21 14:15;50;4;1;control;49;132;1;27;70;21;19;0.64000000000000001;0.23000000000000001;0.029999999999999999;0.10000000000000001;11;85;55;6;0.39000000000000001;0.46999999999999997;0.029999999999999999;0.11;1;9.049506944660607;22;69;21;2;
2019_03_21 14:15;50;4;1;control;50;100;0;27;14;59;52;0.02;0.95999999999999996;0.01;0.01;17;98;0;0;0.48999999999999999;0.51000000000000001;0.0;0.0;1;5.19965381732618;22;69;21;2;
2019_03_21 14:15;50;4;1;control;51;77;0;24;17;99;41;0.17999999999999999;0.13;0.10000000000000001;0.58999999999999997;12;97;0;0;0.59999999999999998;0.40000000000000002;0.0;0.0;0;6.482940224317645;22;69;21;2;
2019_03_21 14:15;50;4;1;control;52;110;1;47;44;23;52;0.13;0.27000000000000002;0.040000000000000001;0.56000000000000005;99;2;30;22;0.28999999999999998;0.5;0.11;0.10000000000000001;0;7.382886568248068;22;69;21;2;
2019_03_21 14:15;50;4;1;control;53;80;1;47;39;45;10;0.13;0.76000000000000001;0.059999999999999998;0.050000000000000003;2;87;0;0;0.48999999999999999;0.51000000000000001;0.0;0.0;0;2.149851170957845;22;69;21;2;
2019_03_21 14:15;50;4;1;control;54;140;1;36;32;26;27;0.39000000000000001;0.14999999999999999;0.19;0.27000000000000002;44;3;99;25;0.29999999999999999;0.34000000000000002;0.34000000000000002;0.0199999999999999;0;4.199748429044121;22;69;21;2;
2019_03_21 14:15;50;4;1;control;55;32;0;19;81;0;0;0.93000000000000005;0.070000000000000007;0.0;0.0;1;65;41;68;0.45000000000000001;0.050000000000000003;0.059999999999999998;0.44;1;10.682718480107724;22;69;21;2;
2019_03_21 14:15;50;4;1;control;56;139;1;44;31;16;8;0.79000000000000004;0.070000000000000007;0.13;0.0099999999999999499;92;58;2;88;0.55000000000000004;0.070000000000000007;0.34000000000000002;0.039999999999999897;1;8.366170762285037;22;69;21;2;
2019_03_21 14:15;50;4;1;control;57;147;0;39;43;76;28;0.14000000000000001;0.10000000000000001;0.10000000000000001;0.66000000000000003;6;31;68;85;0.27000000000000002;0.20000000000000001;0.22;0.31;1;5.616247173275042;22;69;21;2;
2019_03_21 14:15;50;4;1;control;58;97;1;17;33;32;74;0.94999999999999996;0.01;0.029999999999999999;0.01;76;23;0;0;0.33000000000000002;0.67000000000000004;0.0;0.0;1;5.099833323018174;22;69;21;2;
2019_03_21 14:15;50;4;1;control;59;33;1;27;70;0;0;0.88;0.12;0.0;0.0;93;3;77;16;0.080000000000000002;0.40000000000000002;0.5;0.02;1;6.61630810963652;22;69;21;2;
2019_03_21 14:15;50;4;1;control;60;88;0;77;13;12;7;0.12;0.19;0.66000000000000003;0.029999999999999898;94;2;0;0;0.40999999999999998;0.58999999999999997;0.0;0.0;1;15.782450456334118;22;69;21;2;
2019_03_21 14:15;50;4;1;control;61;113;0;85;65;39;64;0.44;0.34000000000000002;0.13;0.089999999999999997;87;2;4;35;0.67000000000000004;0.17000000000000001;0.11;0.049999999999999899;0;5.449666405495009;22;69;21;2;
2019_03_21 14:15;50;4;1;control;62;117;1;65;85;92;41;0.23000000000000001;0.17999999999999999;0.54000000000000004;0.050000000000000003;99;93;10;13;0.64000000000000001;0.16;0.01;0.19;1;5.949642191309977;22;69;21;2;
2019_03_21 14:15;50;4;1;control;63;35;0;33;37;0;0;0.88;0.12;0.0;0.0;63;4;79;98;0.16;0.46000000000000002;0.17000000000000001;0.20999999999999999;1;5.29974371449498;22;69;21;2;
2019_03_21 14:15;50;4;1;control;64;91;0;74;81;86;48;0.93000000000000005;0.02;0.01;0.039999999999999897;7;64;0;0;0.13;0.87;0.0;0.0;0;6.299653272106298;22;69;21;2;
2019_03_21 14:15;50;4;1;control;65;50;0;15;20;0;0;0.82999999999999996;0.17000000000000001;0.0;0.0;97;18;88;87;0.56999999999999995;0.39000000000000001;0.01;0.029999999999999999;1;8.599507313487265;22;69;21;2;
2019_03_21 14:15;50;4;1;control;66;74;1;66;47;52;44;0.41999999999999998;0.26000000000000001;0.17999999999999999;0.14000000000000001;17;99;0;0;0.47999999999999998;0.52000000000000002;0.0;0.0;0;4.133071862892393;22;69;21;2;
2019_03_21 14:15;50;4;1;control;67;102;0;40;56;53;17;0.28000000000000003;0.26000000000000001;0.14999999999999999;0.31;1;76;29;62;0.68000000000000005;0.23000000000000001;0.050000000000000003;0.039999999999999897;0;7.199556960584232;22;69;21;2;
2019_03_21 14:15;50;4;1;control;68;143;1;88;44;56;73;0.95999999999999996;0.02;0.01;0.01;20;3;87;32;0.19;0.40000000000000002;0.28000000000000003;0.13;0;4.299880340231539;22;69;21;2;
2019_03_21 14:15;50;4;1;control;69;129;0;12;29;81;36;0.17999999999999999;0.79000000000000004;0.01;0.02;5;19;95;92;0.47999999999999998;0.26000000000000001;0.13;0.13;0;8.632962979236254;22;69;21;2;
2019_03_21 14:15;50;4;1;control;70;75;0;67;80;36;81;0.81999999999999995;0.080000000000000002;0.059999999999999998;0.040000000000000001;3;97;0;0;0.32000000000000001;0.68000000000000005;0.0;0.0;0;3.533160445118483;22;69;21;2;
2019_03_21 14:15;50;4;1;control;71;107;1;52;48;13;63;0.68000000000000005;0.19;0.050000000000000003;0.079999999999999905;54;91;33;3;0.19;0.17999999999999999;0.33000000000000002;0.29999999999999999;0;7.549593698795434;22;69;21;2;
2019_03_21 14:15;50;4;1;control;72;94;1;84;86;93;39;0.78000000000000003;0.20000000000000001;0.01;0.0099999999999999603;9;83;0;0;0.46999999999999997;0.53000000000000003;0.0;0.0;0;3.9663650530601444;22;69;21;2;
2019_03_21 14:15;50;4;1;control;73;115;0;50;28;61;79;0.83999999999999997;0.040000000000000001;0.059999999999999998;0.059999999999999998;1;26;97;55;0.45000000000000001;0.080000000000000002;0.40999999999999998;0.060000000000000102;0;8.232876321317235;22;69;21;2;
2019_03_21 14:15;50;4;1;control;74;122;0;35;58;25;31;0.81999999999999995;0.070000000000000007;0.080000000000000002;0.029999999999999999;18;64;68;89;0.63;0.17000000000000001;0.11;0.089999999999999997;0;6.716287359200578;22;69;21;2;
2019_03_21 14:15;50;4;1;control;75;30;0;33;30;0;0;0.71999999999999997;0.28000000000000003;0.0;0.0;9;88;1;14;0.55000000000000004;0.39000000000000001;0.01;0.049999999999999899;0;8.066327625307167;22;69;21;2;
