date;id;block;order;cond;trial;gameid;leftright;oa1;oa2;oa3;oa4;pa1;pa2;pa3;pa4;ob1;ob2;ob3;ob4;pb1;pb2;pb3;pb4;choice;rt;paytrial;payout;alter;geschlecht;comment
2019_03_15 12:50;33;0;0;practice;1;16;1;50;42;0;0;0.32000000000000001;0.68000000000000005;0.0;0.0;97;2;56;31;0.35999999999999999;0.16;0.16;0.32000000000000001;1;11.929365535502711;11;50;24;1;
2019_03_15 12:50;33;0;0;practice;2;39;1;53;65;48;75;0.92000000000000004;0.029999999999999999;0.01;0.040000000000000001;16;83;0;0;0.31;0.68999999999999995;0.0;0.0;1;9.75641860339806;11;50;24;1;
2019_03_15 12:50;33;0;0;practice;3;38;0;51;89;10;60;0.57999999999999996;0.029999999999999999;0.080000000000000002;0.31;8;84;0;0;0.33000000000000002;0.67000000000000004;0.0;0.0;1;6.464109958793642;11;50;24;1;
2019_03_15 12:50;33;0;0;practice;4;1;1;67;36;0;0;0.14999999999999999;0.84999999999999998;0.0;0.0;1;4;81;77;0.25;0.54000000000000004;0.14000000000000001;0.070000000000000007;1;7.984901063769712;11;50;24;1;
2019_03_15 12:50;33;0;0;practice;5;9;1;57;44;0;0;0.14999999999999999;0.84999999999999998;0.0;0.0;38;35;64;95;0.34000000000000002;0.45000000000000001;0.089999999999999997;0.12;0;9.2855766961045;11;50;24;1;
2019_03_15 12:50;33;0;0;practice;6;2;1;41;60;0;0;0.97999999999999998;0.02;0.0;0.0;10;14;97;6;0.54000000000000004;0.17000000000000001;0.12;0.17000000000000001;0;4.32274096462811;11;50;24;1;
2019_03_15 12:50;33;0;0;practice;7;62;0;65;52;74;55;0.16;0.12;0.14999999999999999;0.56999999999999995;72;86;2;68;0.12;0.53000000000000003;0.22;0.13;0;8.455541237113266;11;50;24;1;
2019_03_15 12:50;33;0;0;practice;8;54;1;69;80;22;55;0.27000000000000002;0.31;0.059999999999999998;0.35999999999999999;52;2;49;90;0.059999999999999998;0.33000000000000002;0.20000000000000001;0.40999999999999998;1;5.9035352511634756;11;50;24;1;
2019_03_15 12:50;33;0;0;practice;9;15;0;24;59;0;0;0.56999999999999995;0.42999999999999999;0.0;0.0;9;8;80;22;0.31;0.10000000000000001;0.55000000000000004;0.039999999999999897;1;10.346305670872653;11;50;24;1;
2019_03_15 12:50;33;0;0;practice;10;59;1;13;27;48;51;0.56999999999999995;0.13;0.13;0.17000000000000001;8;37;97;1;0.65000000000000002;0.16;0.14999999999999999;0.040000000000000001;0;11.16713224766886;11;50;24;1;
2019_03_15 12:50;33;0;0;practice;11;32;1;21;86;16;78;0.45000000000000001;0.41999999999999998;0.050000000000000003;0.080000000000000099;95;9;0;0;0.42999999999999999;0.56999999999999995;0.0;0.0;0;8.645663457739147;11;50;24;1;
2019_03_15 12:50;33;0;0;practice;12;69;0;38;74;27;73;0.22;0.19;0.45000000000000001;0.14000000000000001;1;97;79;84;0.28000000000000003;0.45000000000000001;0.17000000000000001;0.10000000000000001;0;6.604218837396502;11;50;24;1;
2019_03_15 12:50;33;0;0;practice;13;30;0;54;78;85;25;0.20999999999999999;0.60999999999999999;0.089999999999999997;0.090000000000000094;87;20;0;0;0.58999999999999997;0.40999999999999998;0.0;0.0;1;9.645837609622731;11;50;24;1;
2019_03_15 12:50;33;0;0;practice;14;70;0;21;42;14;63;0.96999999999999997;0.01;0.01;0.01;70;2;6;76;0.23999999999999999;0.42999999999999999;0.01;0.32000000000000001;0;10.866622749175121;11;50;24;1;
2019_03_15 12:50;33;0;0;practice;15;42;1;23;45;91;22;0.72999999999999998;0.02;0.20000000000000001;0.050000000000000003;2;86;0;0;0.40999999999999998;0.58999999999999997;0.0;0.0;0;9.095456079087398;11;50;24;1;
2019_03_15 12:50;33;0;0;practice;16;10;1;34;59;0;0;0.16;0.83999999999999997;0.0;0.0;21;61;96;7;0.19;0.01;0.5;0.29999999999999999;0;8.715585278617482;11;50;24;1;
2019_03_15 12:50;33;0;0;practice;17;61;1;51;48;56;88;0.91000000000000003;0.02;0.01;0.059999999999999998;78;21;14;82;0.55000000000000004;0.29999999999999999;0.070000000000000007;0.080000000000000002;1;10.666512292621292;11;50;24;1;
2019_03_15 12:50;33;0;0;practice;18;66;0;44;18;63;36;0.47999999999999998;0.10000000000000001;0.029999999999999999;0.39000000000000001;13;93;61;53;0.52000000000000002;0.45000000000000001;0.02;0.0099999999999999707;0;8.975392306784215;11;50;24;1;
2019_03_15 12:50;33;0;0;practice;19;14;1;92;56;0;0;0.11;0.89000000000000001;0.0;0.0;97;31;51;4;0.58999999999999997;0.22;0.080000000000000002;0.11;0;11.93731333997016;11;50;24;1;
2019_03_15 12:50;33;0;0;practice;20;45;0;37;40;75;23;0.54000000000000004;0.38;0.059999999999999998;0.02;1;90;0;0;0.28000000000000003;0.71999999999999997;0.0;0.0;1;6.423737511096988;11;50;24;1;
2019_03_15 12:50;33;0;0;practice;21;19;0;25;73;0;0;0.69999999999999996;0.29999999999999999;0.0;0.0;87;84;1;86;0.040000000000000001;0.59999999999999998;0.28000000000000003;0.080000000000000002;1;9.9263892381191;11;50;24;1;
2019_03_15 12:50;33;0;0;practice;22;71;0;94;87;26;75;0.71999999999999997;0.23999999999999999;0.02;0.02;90;27;12;83;0.16;0.73999999999999999;0.02;0.080000000000000002;0;10.897149040657268;11;50;24;1;
2019_03_15 12:50;33;0;0;practice;23;3;0;20;70;0;0;0.13;0.87;0.0;0.0;95;19;80;73;0.31;0.57999999999999996;0.029999999999999999;0.080000000000000002;0;8.595495207134945;11;50;24;1;
2019_03_15 12:50;33;0;0;practice;24;74;1;36;46;10;12;0.11;0.19;0.65000000000000002;0.049999999999999899;92;24;79;19;0.51000000000000001;0.40999999999999998;0.02;0.059999999999999998;1;8.64552394379939;11;50;24;1;
2019_03_15 12:50;33;0;0;practice;25;25;0;7;18;0;0;0.20999999999999999;0.79000000000000004;0.0;0.0;92;45;33;13;0.41999999999999998;0.17999999999999999;0.22;0.17999999999999999;0;4.202683286037654;11;50;24;1;
2019_03_15 12:50;33;0;0;practice;26;44;1;69;48;22;63;0.39000000000000001;0.40999999999999998;0.19;0.01;1;94;0;0;0.22;0.78000000000000003;0.0;0.0;1;4.282854089586408;11;50;24;1;
2019_03_15 12:50;33;0;0;practice;27;46;1;79;57;98;81;0.67000000000000004;0.070000000000000007;0.20999999999999999;0.050000000000000003;1;76;0;0;0.56000000000000005;0.44;0.0;0.0;0;6.774342777090624;11;50;24;1;
2019_03_15 12:50;33;0;0;practice;28;43;1;11;17;21;44;0.16;0.46000000000000002;0.25;0.13;2;66;0;0;0.44;0.56000000000000005;0.0;0.0;0;9.336042897169136;11;50;24;1;
2019_03_15 12:50;33;0;0;practice;29;64;0;44;60;96;45;0.53000000000000003;0.10000000000000001;0.029999999999999999;0.34000000000000002;88;20;43;31;0.47999999999999998;0.38;0.050000000000000003;0.089999999999999997;1;9.856130659455175;11;50;24;1;
2019_03_15 12:50;33;0;0;practice;30;57;0;39;68;59;91;0.73999999999999999;0.040000000000000001;0.14999999999999999;0.070000000000000007;9;22;40;84;0.29999999999999999;0.32000000000000001;0.040000000000000001;0.34000000000000002;0;6.784477903557672;11;50;24;1;
2019_03_15 12:50;33;0;0;practice;31;48;1;20;25;24;35;0.32000000000000001;0.13;0.48999999999999999;0.059999999999999901;44;76;0;0;0.29999999999999999;0.69999999999999996;0.0;0.0;1;5.78385121335441;11;50;24;1;
2019_03_15 12:50;33;0;0;practice;32;22;1;84;87;0;0;0.17000000000000001;0.82999999999999996;0.0;0.0;3;24;41;83;0.68000000000000005;0.11;0.10000000000000001;0.11;0;3.511865740764506;11;50;24;1;
2019_03_15 12:50;33;0;0;practice;33;29;1;66;40;92;49;0.46999999999999997;0.10000000000000001;0.34000000000000002;0.089999999999999997;8;94;0;0;0.44;0.56000000000000005;0.0;0.0;0;9.075820534399327;11;50;24;1;
2019_03_15 12:50;33;0;0;practice;34;65;0;35;15;77;1;0.62;0.33000000000000002;0.029999999999999999;0.02;68;3;25;96;0.38;0.28000000000000003;0.28000000000000003;0.059999999999999901;0;9.005776518553148;11;50;24;1;
2019_03_15 12:50;33;0;0;practice;35;67;0;74;31;10;77;0.11;0.070000000000000007;0.77000000000000002;0.050000000000000003;2;23;8;97;0.56999999999999995;0.01;0.059999999999999998;0.35999999999999999;1;6.914429205174656;11;50;24;1;
2019_03_15 12:50;33;0;0;practice;36;63;0;24;82;6;96;0.91000000000000003;0.070000000000000007;0.01;0.0099999999999999603;73;10;71;22;0.31;0.51000000000000001;0.050000000000000003;0.13;1;6.924407178008323;11;50;24;1;
2019_03_15 12:50;33;0;0;practice;37;49;0;14;31;42;22;0.77000000000000002;0.089999999999999997;0.02;0.12;87;28;0;0;0.68000000000000005;0.32000000000000001;0.0;0.0;1;7.454420314769322;11;50;24;1;
2019_03_15 12:50;33;0;0;practice;38;37;0;50;66;99;12;0.26000000000000001;0.71999999999999997;0.01;0.01;22;90;0;0;0.37;0.63;0.0;0.0;1;5.543554648412055;11;50;24;1;
2019_03_15 12:50;33;0;0;practice;39;31;0;72;59;40;92;0.59999999999999998;0.34999999999999998;0.02;0.029999999999999999;97;29;0;0;0.38;0.62;0.0;0.0;0;6.494312000636228;11;50;24;1;
2019_03_15 12:50;33;0;0;practice;40;36;0;56;89;86;77;0.66000000000000003;0.080000000000000002;0.14999999999999999;0.11;29;91;0;0;0.40999999999999998;0.58999999999999997;0.0;0.0;0;13.318565488805461;11;50;24;1;
2019_03_15 12:50;33;0;0;practice;41;73;1;99;88;95;28;0.83999999999999997;0.14000000000000001;0.01;0.01;90;93;10;74;0.080000000000000002;0.46000000000000002;0.34999999999999998;0.11;0;9.84632106551453;11;50;24;1;
2019_03_15 12:50;33;0;0;practice;42;72;1;86;85;97;43;0.51000000000000001;0.14999999999999999;0.33000000000000002;0.0099999999999999499;72;29;10;90;0.01;0.11;0.65000000000000002;0.23000000000000001;0;12.177973282599396;11;50;24;1;
2019_03_15 12:50;33;0;0;practice;43;58;0;44;50;85;42;0.38;0.57999999999999996;0.02;0.02;37;88;19;12;0.20000000000000001;0.29999999999999999;0.46000000000000002;0.040000000000000001;0;10.066243784413473;11;50;24;1;
2019_03_15 12:50;33;0;0;practice;44;5;0;23;58;0;0;0.71999999999999997;0.28000000000000003;0.0;0.0;94;12;52;3;0.11;0.84999999999999998;0.029999999999999999;0.01;0;7.905081450483294;11;50;24;1;
2019_03_15 12:50;33;0;0;practice;45;53;1;47;24;95;38;0.57999999999999996;0.28000000000000003;0.02;0.12;8;22;93;96;0.54000000000000004;0.34000000000000002;0.10000000000000001;0.0199999999999999;0;13.30820232920928;11;50;24;1;
2019_03_15 12:50;33;0;0;practice;46;4;0;40;59;0;0;0.19;0.81000000000000005;0.0;0.0;10;88;13;45;0.56000000000000005;0.28999999999999998;0.01;0.14000000000000001;0;7.9647594202376695;11;50;24;1;
2019_03_15 12:50;33;0;0;practice;47;50;0;17;12;21;14;0.55000000000000004;0.34000000000000002;0.059999999999999998;0.049999999999999899;13;93;0;0;0.28999999999999998;0.70999999999999996;0.0;0.0;1;4.0823683886428626;11;50;24;1;
2019_03_15 12:50;33;0;0;practice;48;13;0;15;25;0;0;0.29999999999999999;0.69999999999999996;0.0;0.0;3;43;35;73;0.44;0.40000000000000002;0.01;0.14999999999999999;0;9.3760048210886;11;50;24;1;
2019_03_15 12:50;33;0;0;practice;49;60;0;39;93;27;78;0.85999999999999999;0.02;0.11;0.01;22;5;62;95;0.059999999999999998;0.56999999999999995;0.14000000000000001;0.23000000000000001;0;6.844373322625643;11;50;24;1;
2019_03_15 12:50;33;0;0;practice;50;47;1;91;99;90;78;0.93000000000000005;0.040000000000000001;0.02;0.0099999999999999499;10;87;0;0;0.23000000000000001;0.77000000000000002;0.0;0.0;0;5.583205793003572;11;50;24;1;
2019_03_15 12:50;33;0;0;practice;51;11;1;10;44;0;0;0.48999999999999999;0.51000000000000001;0.0;0.0;88;12;54;50;0.17000000000000001;0.75;0.02;0.059999999999999998;0;11.717182151965517;11;50;24;1;
2019_03_15 12:50;33;0;0;practice;52;12;0;45;86;0;0;0.97999999999999998;0.02;0.0;0.0;6;23;95;81;0.14999999999999999;0.40999999999999998;0.050000000000000003;0.39000000000000001;0;7.294823423460457;11;50;24;1;
2019_03_15 12:50;33;0;0;practice;53;21;0;59;69;0;0;0.34000000000000002;0.66000000000000003;0.0;0.0;64;18;5;24;0.14999999999999999;0.040000000000000001;0.51000000000000001;0.29999999999999999;0;8.525090379375115;11;50;24;1;
2019_03_15 12:50;33;0;0;practice;54;35;0;84;95;4;35;0.89000000000000001;0.050000000000000003;0.01;0.050000000000000003;5;98;0;0;0.19;0.81000000000000005;0.0;0.0;1;9.01544820216236;11;50;24;1;
2019_03_15 12:50;33;0;0;practice;55;33;0;54;82;55;71;0.56000000000000005;0.20999999999999999;0.02;0.20999999999999999;13;99;0;0;0.5;0.5;0.0;0.0;1;3.6823283625744807;11;50;24;1;
2019_03_15 12:50;33;0;0;practice;56;51;0;38;13;51;84;0.91000000000000003;0.070000000000000007;0.01;0.0099999999999999603;4;89;35;16;0.80000000000000004;0.089999999999999997;0.059999999999999998;0.050000000000000003;0;8.125371395729644;11;50;24;1;
2019_03_15 12:50;33;0;0;practice;57;26;0;24;46;74;59;0.29999999999999999;0.11;0.25;0.34000000000000002;91;6;0;0;0.28999999999999998;0.70999999999999996;0.0;0.0;0;5.163283587259457;11;50;24;1;
2019_03_15 12:50;33;0;0;practice;58;24;1;19;38;0;0;0.89000000000000001;0.11;0.0;0.0;45;76;95;57;0.29999999999999999;0.22;0.40000000000000002;0.080000000000000002;1;6.253975024759711;11;50;24;1;
2019_03_15 12:50;33;0;0;practice;59;56;0;47;52;64;10;0.77000000000000002;0.040000000000000001;0.11;0.080000000000000002;1;5;12;99;0.14000000000000001;0.28999999999999998;0.27000000000000002;0.29999999999999999;0;7.114548962657636;11;50;24;1;
2019_03_15 12:50;33;0;0;practice;60;8;1;20;44;0;0;0.26000000000000001;0.73999999999999999;0.0;0.0;99;3;69;24;0.20999999999999999;0.60999999999999999;0.12;0.060000000000000102;0;5.613392119483024;11;50;24;1;
2019_03_15 12:50;33;0;0;practice;61;40;1;29;65;30;41;0.70999999999999996;0.01;0.14999999999999999;0.13;2;59;0;0;0.32000000000000001;0.68000000000000005;0.0;0.0;1;7.384718829699295;11;50;24;1;
2019_03_15 12:50;33;0;0;practice;62;27;1;68;43;98;36;0.54000000000000004;0.44;0.01;0.0099999999999999603;97;13;0;0;0.27000000000000002;0.72999999999999998;0.0;0.0;0;8.595158128627418;11;50;24;1;
2019_03_15 12:50;33;0;0;practice;63;75;0;21;86;27;62;0.88;0.040000000000000001;0.070000000000000007;0.0099999999999999794;13;3;49;87;0.28999999999999998;0.39000000000000001;0.070000000000000007;0.25;1;7.995262299035858;11;50;24;1;
2019_03_15 12:50;33;0;0;practice;64;55;0;53;11;80;74;0.31;0.37;0.28000000000000003;0.039999999999999897;6;93;98;96;0.69999999999999996;0.22;0.050000000000000003;0.029999999999999999;0;5.943810520185025;11;50;24;1;
2019_03_15 12:50;33;0;0;practice;65;41;1;19;54;51;8;0.76000000000000001;0.070000000000000007;0.16;0.0099999999999999794;2;77;0;0;0.54000000000000004;0.46000000000000002;0.0;0.0;0;4.71266927691363;11;50;24;1;
2019_03_15 12:50;33;0;0;practice;66;17;1;27;61;0;0;0.68999999999999995;0.31;0.0;0.0;3;91;69;43;0.29999999999999999;0.33000000000000002;0.27000000000000002;0.099999999999999895;1;6.003833907211174;11;50;24;1;
2019_03_15 12:50;33;0;0;practice;67;23;0;99;93;0;0;0.57999999999999996;0.41999999999999998;0.0;0.0;64;10;80;81;0.13;0.55000000000000004;0.02;0.29999999999999999;0;4.633106882431093;11;50;24;1;
2019_03_15 12:50;33;0;0;practice;68;7;1;13;31;0;0;0.51000000000000001;0.48999999999999999;0.0;0.0;8;79;42;18;0.85999999999999999;0.089999999999999997;0.02;0.029999999999999999;1;4.37246469495517;11;50;24;1;
2019_03_15 12:50;33;0;0;practice;69;68;0;39;58;40;8;0.48999999999999999;0.44;0.02;0.050000000000000003;92;83;51;2;0.57999999999999996;0.13;0.02;0.27000000000000002;1;6.934413695073317;11;50;24;1;
2019_03_15 12:50;33;0;0;practice;70;34;0;57;23;66;79;0.56000000000000005;0.23000000000000001;0.13;0.079999999999999905;85;9;0;0;0.56000000000000005;0.44;0.0;0.0;1;9.025591025950234;11;50;24;1;
2019_03_15 12:50;33;0;0;practice;71;20;1;32;11;0;0;0.40999999999999998;0.58999999999999997;0.0;0.0;1;86;42;65;0.45000000000000001;0.38;0.050000000000000003;0.12;1;7.584842435842802;11;50;24;1;
2019_03_15 12:50;33;0;0;practice;72;28;1;37;83;75;8;0.83999999999999997;0.070000000000000007;0.01;0.080000000000000002;94;2;0;0;0.19;0.81000000000000005;0.0;0.0;0;6.3840555772221705;11;50;24;1;
2019_03_15 12:50;33;0;0;practice;73;6;0;42;59;0;0;0.35999999999999999;0.64000000000000001;0.0;0.0;77;19;6;7;0.44;0.14999999999999999;0.17999999999999999;0.23000000000000001;1;8.435069250229617;11;50;24;1;
2019_03_15 12:50;33;0;0;practice;74;18;0;47;36;0;0;0.089999999999999997;0.91000000000000003;0.0;0.0;2;44;81;9;0.20000000000000001;0.25;0.51000000000000001;0.040000000000000001;1;5.023206780826513;11;50;24;1;
2019_03_15 12:50;33;0;0;practice;75;52;0;17;61;57;59;0.070000000000000007;0.050000000000000003;0.33000000000000002;0.55000000000000004;12;93;94;62;0.71999999999999997;0.16;0.080000000000000002;0.040000000000000001;0;4.082587120842845;11;50;24;1;
2019_03_15 12:50;33;1;0;control;1;20;0;44;40;0;0;0.91000000000000003;0.089999999999999997;0.0;0.0;29;5;80;99;0.25;0.40000000000000002;0.26000000000000001;0.089999999999999997;0;5.257098212681967;11;50;24;1;
2019_03_15 12:50;33;1;0;control;2;13;0;52;56;0;0;0.46999999999999997;0.53000000000000003;0.0;0.0;94;71;27;2;0.089999999999999997;0.31;0.57999999999999996;0.020000000000000101;0;7.2244057668326604;11;50;24;1;
2019_03_15 12:50;33;1;0;control;3;77;1;24;17;99;41;0.17999999999999999;0.13;0.10000000000000001;0.58999999999999997;12;97;0;0;0.59999999999999998;0.40000000000000002;0.0;0.0;0;7.174257721695767;11;50;24;1;
2019_03_15 12:50;33;1;0;control;4;143;1;88;44;56;73;0.95999999999999996;0.02;0.01;0.01;20;3;87;32;0.19;0.40000000000000002;0.28000000000000003;0.13;0;3.101735489267412;11;50;24;1;
2019_03_15 12:50;33;1;0;control;5;44;1;79;74;0;0;0.71999999999999997;0.28000000000000003;0.0;0.0;3;67;15;36;0.41999999999999998;0.53000000000000003;0.02;0.029999999999999999;0;3.7023458868084163;11;50;24;1;
2019_03_15 12:50;33;1;0;control;6;145;0;91;89;90;74;0.57999999999999996;0.29999999999999999;0.11;0.010000000000000101;2;75;84;39;0.32000000000000001;0.27000000000000002;0.39000000000000001;0.0199999999999999;0;3.7725265300987303;11;50;24;1;
2019_03_15 12:50;33;1;0;control;7;137;0;71;22;28;17;0.25;0.46000000000000002;0.050000000000000003;0.23999999999999999;3;98;92;69;0.42999999999999999;0.23999999999999999;0.20000000000000001;0.13;0;7.034518635213772;11;50;24;1;
2019_03_15 12:50;33;1;0;control;8;88;0;77;13;12;7;0.12;0.19;0.66000000000000003;0.029999999999999898;94;2;0;0;0.40999999999999998;0.58999999999999997;0.0;0.0;0;7.424760934044116;11;50;24;1;
2019_03_15 12:50;33;1;0;control;9;146;0;25;5;64;35;0.94999999999999996;0.02;0.01;0.02;47;97;12;79;0.20999999999999999;0.029999999999999999;0.02;0.73999999999999999;1;7.1347015107271545;11;50;24;1;
2019_03_15 12:50;33;1;0;control;10;71;1;68;55;36;51;0.20000000000000001;0.75;0.02;0.029999999999999999;38;81;0;0;0.52000000000000002;0.47999999999999998;0.0;0.0;0;10.827087705838949;11;50;24;1;
2019_03_15 12:50;33;1;0;control;11;25;0;50;53;0;0;0.82999999999999996;0.17000000000000001;0.0;0.0;83;16;97;4;0.45000000000000001;0.29999999999999999;0.11;0.14000000000000001;0;9.15602116506625;11;50;24;1;
2019_03_15 12:50;33;1;0;control;12;32;1;19;81;0;0;0.93000000000000005;0.070000000000000007;0.0;0.0;1;65;41;68;0.45000000000000001;0.050000000000000003;0.059999999999999998;0.44;1;10.446349673890381;11;50;24;1;
2019_03_15 12:50;33;1;0;control;13;1;0;22;51;0;0;0.26000000000000001;0.73999999999999999;0.0;0.0;14;11;92;31;0.29999999999999999;0.40999999999999998;0.14999999999999999;0.14000000000000001;0;9.14600406418549;11;50;24;1;
2019_03_15 12:50;33;1;0;control;14;19;1;22;53;0;0;0.13;0.87;0.0;0.0;4;93;96;65;0.46999999999999997;0.059999999999999998;0.26000000000000001;0.20999999999999999;0;10.35681540028645;11;50;24;1;
2019_03_15 12:50;33;1;0;control;15;131;1;83;41;81;88;0.23999999999999999;0.58999999999999997;0.10000000000000001;0.070000000000000007;82;97;4;17;0.26000000000000001;0.46999999999999997;0.11;0.16;1;10.486857466144556;11;50;24;1;
2019_03_15 12:50;33;1;0;control;16;91;0;74;81;86;48;0.93000000000000005;0.02;0.01;0.039999999999999897;7;64;0;0;0.13;0.87;0.0;0.0;1;5.673270219579081;11;50;24;1;
2019_03_15 12:50;33;1;0;control;17;27;1;44;26;0;0;0.35999999999999999;0.64000000000000001;0.0;0.0;63;10;3;5;0.58999999999999997;0.19;0.14999999999999999;0.070000000000000007;1;6.974591143975886;11;50;24;1;
2019_03_15 12:50;33;1;0;control;18;114;0;57;39;79;97;0.77000000000000002;0.02;0.13;0.080000000000000002;92;36;6;1;0.54000000000000004;0.12;0.13;0.20999999999999999;1;4.402930049314364;11;50;24;1;
2019_03_15 12:50;33;1;0;control;19;67;0;44;42;8;89;0.88;0.070000000000000007;0.029999999999999999;0.02;10;63;0;0;0.39000000000000001;0.60999999999999999;0.0;0.0;1;10.986833732738432;11;50;24;1;
2019_03_15 12:50;33;1;0;control;20;34;0;32;48;0;0;0.28000000000000003;0.71999999999999997;0.0;0.0;97;83;7;62;0.040000000000000001;0.54000000000000004;0.35999999999999999;0.059999999999999901;0;11.567080868052471;11;50;24;1;
2019_03_15 12:50;33;1;0;control;21;26;0;76;41;0;0;0.57999999999999996;0.41999999999999998;0.0;0.0;61;79;84;2;0.13;0.029999999999999999;0.67000000000000004;0.17000000000000001;1;8.345345750822162;11;50;24;1;
2019_03_15 12:50;33;1;0;control;22;95;1;93;88;68;85;0.83999999999999997;0.14000000000000001;0.01;0.01;2;82;0;0;0.41999999999999998;0.57999999999999996;0.0;0.0;0;5.493135272716245;11;50;24;1;
2019_03_15 12:50;33;1;0;control;23;133;1;59;88;60;36;0.67000000000000004;0.070000000000000007;0.12;0.14000000000000001;7;91;66;61;0.25;0.68999999999999995;0.01;0.0500000000000001;1;4.562929767078913;11;50;24;1;
2019_03_15 12:50;33;1;0;control;24;5;0;70;5;0;0;0.98999999999999999;0.01;0.0;0.0;92;87;47;1;0.44;0.02;0.16;0.38;0;8.865468792495903;11;50;24;1;
2019_03_15 12:50;33;1;0;control;25;115;0;50;28;61;79;0.83999999999999997;0.040000000000000001;0.059999999999999998;0.059999999999999998;1;26;97;55;0.45000000000000001;0.080000000000000002;0.40999999999999998;0.060000000000000102;0;6.534159106186962;11;50;24;1;
2019_03_15 12:50;33;1;0;control;26;56;0;28;84;37;41;0.68000000000000005;0.28000000000000003;0.02;0.0199999999999999;6;95;0;0;0.72999999999999998;0.27000000000000002;0.0;0.0;0;6.824038283908067;11;50;24;1;
2019_03_15 12:50;33;1;0;control;27;57;0;52;35;23;47;0.22;0.68000000000000005;0.040000000000000001;0.059999999999999998;71;7;0;0;0.28999999999999998;0.70999999999999996;0.0;0.0;0;7.044626500336108;11;50;24;1;
2019_03_15 12:50;33;1;0;control;28;110;0;47;44;23;52;0.13;0.27000000000000002;0.040000000000000001;0.56000000000000005;99;2;30;22;0.28999999999999998;0.5;0.11;0.10000000000000001;0;7.0745261016149925;11;50;24;1;
2019_03_15 12:50;33;1;0;control;29;90;1;27;44;50;72;0.68000000000000005;0.28999999999999998;0.02;0.0099999999999999707;6;96;0;0;0.46999999999999997;0.53000000000000003;0.0;0.0;1;5.503177069168032;11;50;24;1;
2019_03_15 12:50;33;1;0;control;30;72;0;63;82;51;61;0.01;0.96999999999999997;0.01;0.01;92;12;0;0;0.89000000000000001;0.11;0.0;0.0;0;5.863833111821805;11;50;24;1;
2019_03_15 12:50;33;1;0;control;31;3;1;53;40;0;0;0.31;0.68999999999999995;0.0;0.0;96;24;7;88;0.11;0.27000000000000002;0.58999999999999997;0.029999999999999999;0;7.164718496148907;11;50;24;1;
2019_03_15 12:50;33;1;0;control;32;147;0;39;43;76;28;0.14000000000000001;0.10000000000000001;0.10000000000000001;0.66000000000000003;6;31;68;85;0.27000000000000002;0.20000000000000001;0.22;0.31;0;6.133934665140714;11;50;24;1;
2019_03_15 12:50;33;1;0;control;33;85;0;31;22;82;50;0.11;0.69999999999999996;0.01;0.17999999999999999;3;99;0;0;0.62;0.38;0.0;0.0;0;13.959106058817724;11;50;24;1;
2019_03_15 12:50;33;1;0;control;34;15;1;77;81;0;0;0.28000000000000003;0.71999999999999997;0.0;0.0;98;14;87;18;0.55000000000000004;0.23000000000000001;0.16;0.059999999999999901;0;10.816951937928934;11;50;24;1;
2019_03_15 12:50;33;1;0;control;35;78;0;74;36;34;3;0.14999999999999999;0.64000000000000001;0.13;0.080000000000000002;1;83;0;0;0.41999999999999998;0.57999999999999996;0.0;0.0;1;2.7217104216592816;11;50;24;1;
2019_03_15 12:50;33;1;0;control;36;22;0;32;55;0;0;0.39000000000000001;0.60999999999999999;0.0;0.0;93;72;59;22;0.20000000000000001;0.11;0.14000000000000001;0.55000000000000004;0;12.437989421315706;11;50;24;1;
2019_03_15 12:50;33;1;0;control;37;36;1;70;17;0;0;0.33000000000000002;0.67000000000000004;0.0;0.0;84;1;12;88;0.22;0.27000000000000002;0.14000000000000001;0.37;1;5.833725682880868;11;50;24;1;
2019_03_15 12:50;33;1;0;control;38;84;1;43;10;5;45;0.78000000000000003;0.13;0.059999999999999998;0.029999999999999999;87;1;0;0;0.57999999999999996;0.41999999999999998;0.0;0.0;0;1.2908034976626368;11;50;24;1;
2019_03_15 12:50;33;1;0;control;39;10;0;45;62;0;0;0.059999999999999998;0.93999999999999995;0.0;0.0;17;99;28;67;0.58999999999999997;0.34000000000000002;0.01;0.059999999999999998;0;8.815298938282922;11;50;24;1;
2019_03_15 12:50;33;1;0;control;40;104;0;55;85;93;3;0.87;0.02;0.089999999999999997;0.02;1;2;90;8;0.35999999999999999;0.070000000000000007;0.40000000000000002;0.17000000000000001;0;5.953796511060773;11;50;24;1;
2019_03_15 12:50;33;1;0;control;41;38;0;40;70;0;0;0.53000000000000003;0.46999999999999997;0.0;0.0;97;90;6;96;0.56999999999999995;0.070000000000000007;0.27000000000000002;0.089999999999999997;0;7.834649040657041;11;50;24;1;
2019_03_15 12:50;33;1;0;control;42;64;1;48;39;34;19;0.46000000000000002;0.5;0.02;0.02;13;92;0;0;0.68999999999999995;0.31;0.0;0.0;0;3.2416856106283376;11;50;24;1;
2019_03_15 12:50;33;1;0;control;43;109;1;75;28;16;56;0.19;0.070000000000000007;0.059999999999999998;0.68000000000000005;3;50;98;44;0.5;0.02;0.34999999999999998;0.13;0;4.152637871844945;11;50;24;1;
2019_03_15 12:50;33;1;0;control;44;123;1;26;24;51;92;0.72999999999999998;0.16;0.070000000000000007;0.040000000000000001;6;90;82;49;0.64000000000000001;0.25;0.050000000000000003;0.059999999999999998;0;8.365517862916022;11;50;24;1;
2019_03_15 12:50;33;1;0;control;45;35;1;33;37;0;0;0.88;0.12;0.0;0.0;63;4;79;98;0.16;0.46000000000000002;0.17000000000000001;0.20999999999999999;1;5.5036594346061065;11;50;24;1;
2019_03_15 12:50;33;1;0;control;46;58;0;37;58;76;34;0.20999999999999999;0.57999999999999996;0.19;0.020000000000000101;86;5;0;0;0.47999999999999998;0.52000000000000002;0.0;0.0;0;7.184590412730358;11;50;24;1;
2019_03_15 12:50;33;1;0;control;47;53;0;26;70;50;80;0.29999999999999999;0.59999999999999998;0.040000000000000001;0.059999999999999998;89;1;0;0;0.40999999999999998;0.58999999999999997;0.0;0.0;0;5.783685400235299;11;50;24;1;
2019_03_15 12:50;33;1;0;control;48;98;1;27;10;31;79;0.23000000000000001;0.67000000000000004;0.070000000000000007;0.029999999999999999;25;99;0;0;0.38;0.62;0.0;0.0;1;4.60306872937781;11;50;24;1;
2019_03_15 12:50;33;1;0;control;49;43;0;60;83;0;0;0.23000000000000001;0.77000000000000002;0.0;0.0;72;5;70;12;0.29999999999999999;0.40999999999999998;0.12;0.17000000000000001;0;1.7811080806477548;11;50;24;1;
2019_03_15 12:50;33;1;0;control;50;87;0;10;30;63;4;0.56999999999999995;0.12;0.16;0.14999999999999999;86;2;0;0;0.42999999999999999;0.56999999999999995;0.0;0.0;1;0.6603938847351856;11;50;24;1;
2019_03_15 12:50;33;1;0;control;51;150;0;25;21;78;38;0.84999999999999998;0.059999999999999998;0.050000000000000003;0.040000000000000001;31;43;64;95;0.059999999999999998;0.45000000000000001;0.13;0.35999999999999999;1;11.157337727648155;11;50;24;1;
2019_03_15 12:50;33;1;0;control;52;18;0;68;50;0;0;0.029999999999999999;0.96999999999999997;0.0;0.0;34;64;15;89;0.65000000000000002;0.029999999999999999;0.050000000000000003;0.27000000000000002;0;7.104175219245462;11;50;24;1;
2019_03_15 12:50;33;1;0;control;53;100;0;27;14;59;52;0.02;0.95999999999999996;0.01;0.01;17;98;0;0;0.48999999999999999;0.51000000000000001;0.0;0.0;1;1.990872260395463;11;50;24;1;
2019_03_15 12:50;33;1;0;control;54;144;1;99;93;90;71;0.65000000000000002;0.32000000000000001;0.01;0.02;97;14;48;73;0.23000000000000001;0.46000000000000002;0.13;0.17999999999999999;0;7.514829850723345;11;50;24;1;
2019_03_15 12:50;33;1;0;control;55;50;1;15;20;0;0;0.82999999999999996;0.17000000000000001;0.0;0.0;97;18;88;87;0.56999999999999995;0.39000000000000001;0.01;0.029999999999999999;1;4.942777475586354;11;50;24;1;
2019_03_15 12:50;33;1;0;control;56;17;1;81;52;0;0;0.059999999999999998;0.93999999999999995;0.0;0.0;34;3;69;41;0.01;0.22;0.75;0.02;1;8.034818510003788;11;50;24;1;
2019_03_15 12:50;33;1;0;control;57;48;1;13;32;0;0;0.90000000000000002;0.10000000000000001;0.0;0.0;24;99;84;94;0.62;0.14999999999999999;0.20000000000000001;0.029999999999999999;1;7.224253424024937;11;50;24;1;
2019_03_15 12:50;33;1;0;control;58;28;1;47;30;0;0;0.97999999999999998;0.02;0.0;0.0;55;48;77;13;0.070000000000000007;0.26000000000000001;0.42999999999999999;0.23999999999999999;1;5.793851957428615;11;50;24;1;
2019_03_15 12:50;33;1;0;control;59;122;1;35;58;25;31;0.81999999999999995;0.070000000000000007;0.080000000000000002;0.029999999999999999;18;64;68;89;0.63;0.17000000000000001;0.11;0.089999999999999997;1;8.52561924945985;11;50;24;1;
2019_03_15 12:50;33;1;0;control;60;106;0;85;69;22;61;0.10000000000000001;0.58999999999999997;0.17999999999999999;0.13;20;79;91;84;0.55000000000000004;0.14999999999999999;0.26000000000000001;0.039999999999999897;0;6.113525860431764;11;50;24;1;
2019_03_15 12:50;33;1;0;control;61;135;0;48;60;41;51;0.14000000000000001;0.40000000000000002;0.089999999999999997;0.37;94;1;85;65;0.64000000000000001;0.29999999999999999;0.01;0.050000000000000003;1;4.00255935917221;11;50;24;1;
2019_03_15 12:50;33;1;0;control;62;60;0;64;59;57;96;0.83999999999999997;0.13;0.02;0.01;83;6;0;0;0.54000000000000004;0.46000000000000002;0.0;0.0;1;8.515488933818233;11;50;24;1;
2019_03_15 12:50;33;1;0;control;63;68;0;84;27;55;62;0.01;0.050000000000000003;0.40999999999999998;0.53000000000000003;9;82;0;0;0.37;0.63;0.0;0.0;0;10.31672422552083;11;50;24;1;
2019_03_15 12:50;33;1;0;control;64;97;0;17;33;32;74;0.94999999999999996;0.01;0.029999999999999999;0.01;76;23;0;0;0.33000000000000002;0.67000000000000004;0.0;0.0;0;4.362547979966621;11;50;24;1;
2019_03_15 12:50;33;1;0;control;65;119;0;60;58;11;18;0.25;0.72999999999999998;0.01;0.01;96;23;42;85;0.44;0.48999999999999999;0.059999999999999998;0.010000000000000101;0;11.457500525983505;11;50;24;1;
2019_03_15 12:50;33;1;0;control;66;49;0;21;30;0;0;0.53000000000000003;0.46999999999999997;0.0;0.0;93;99;89;25;0.44;0.02;0.11;0.42999999999999999;1;6.994475247981882;11;50;24;1;
2019_03_15 12:50;33;1;0;control;67;128;1;70;49;27;54;0.27000000000000002;0.53000000000000003;0.02;0.17999999999999999;72;97;6;20;0.29999999999999999;0.39000000000000001;0.22;0.0899999999999999;0;11.197350646318228;11;50;24;1;
2019_03_15 12:50;33;1;0;control;68;11;1;17;36;0;0;0.14000000000000001;0.85999999999999999;0.0;0.0;19;41;34;95;0.88;0.02;0.050000000000000003;0.050000000000000003;1;9.055583957243925;11;50;24;1;
2019_03_15 12:50;33;1;0;control;69;8;0;50;36;0;0;0.080000000000000002;0.92000000000000004;0.0;0.0;6;19;84;29;0.54000000000000004;0.070000000000000007;0.17000000000000001;0.22;1;7.074653748852143;11;50;24;1;
2019_03_15 12:50;33;1;0;control;70;103;1;38;49;89;50;0.89000000000000001;0.070000000000000007;0.01;0.029999999999999999;6;64;99;27;0.70999999999999996;0.17999999999999999;0.059999999999999998;0.050000000000000003;0;7.65488164086355;11;50;24;1;
2019_03_15 12:50;33;1;0;control;71;74;0;66;47;52;44;0.41999999999999998;0.26000000000000001;0.17999999999999999;0.14000000000000001;17;99;0;0;0.47999999999999998;0.52000000000000002;0.0;0.0;1;5.973826222719254;11;50;24;1;
2019_03_15 12:50;33;1;0;control;72;33;0;27;70;0;0;0.88;0.12;0.0;0.0;93;3;77;16;0.080000000000000002;0.40000000000000002;0.5;0.02;1;5.353215619916682;11;50;24;1;
2019_03_15 12:50;33;1;0;control;73;6;1;9;51;0;0;0.14999999999999999;0.84999999999999998;0.0;0.0;6;40;50;73;0.42999999999999999;0.26000000000000001;0.059999999999999998;0.25;1;7.585009852570693;11;50;24;1;
2019_03_15 12:50;33;1;0;control;74;7;1;49;29;0;0;0.95999999999999996;0.040000000000000001;0.0;0.0;23;99;64;25;0.68999999999999995;0.12;0.059999999999999998;0.13;0;5.883536008066585;11;50;24;1;
2019_03_15 12:50;33;1;0;control;75;120;0;64;40;48;51;0.19;0.02;0.070000000000000007;0.71999999999999997;97;9;79;94;0.23000000000000001;0.54000000000000004;0.01;0.22;0;8.035143080364833;11;50;24;1;
2019_03_15 12:50;33;2;0;timed;1;34;0;32;48;0;0;0.28000000000000003;0.71999999999999997;0.0;0.0;97;83;7;62;0.040000000000000001;0.54000000000000004;0.35999999999999999;0.059999999999999901;1;4.2984828580665635;11;50;24;1;
2019_03_15 12:50;33;2;0;timed;2;96;1;51;54;39;7;0.17000000000000001;0.26000000000000001;0.10000000000000001;0.46999999999999997;24;96;0;0;0.28000000000000003;0.71999999999999997;0.0;0.0;1;2.1114408486555476;11;50;24;1;
2019_03_15 12:50;33;2;0;timed;3;10;1;45;62;0;0;0.059999999999999998;0.93999999999999995;0.0;0.0;17;99;28;67;0.58999999999999997;0.34000000000000002;0.01;0.059999999999999998;0;4.242830266378405;11;50;24;1;
2019_03_15 12:50;33;2;0;timed;4;116;0;53;65;43;99;0.56999999999999995;0.37;0.050000000000000003;0.010000000000000101;57;72;11;87;0.67000000000000004;0.13;0.14999999999999999;0.050000000000000003;NA;6.113901746265128;11;50;24;1;
2019_03_15 12:50;33;2;0;timed;5;59;1;56;47;83;90;0.31;0.12;0.54000000000000004;0.029999999999999898;10;98;0;0;0.46999999999999997;0.53000000000000003;0.0;0.0;1;3.282585966244824;11;50;24;1;
2019_03_15 12:50;33;2;0;timed;6;5;0;70;5;0;0;0.98999999999999999;0.01;0.0;0.0;92;87;47;1;0.44;0.02;0.16;0.38;0;2.8117777347297306;11;50;24;1;
2019_03_15 12:50;33;2;0;timed;7;93;1;87;81;73;98;0.80000000000000004;0.040000000000000001;0.14999999999999999;0.0099999999999999499;5;71;0;0;0.51000000000000001;0.48999999999999999;0.0;0.0;0;3.642436997429286;11;50;24;1;
2019_03_15 12:50;33;2;0;timed;8;78;0;74;36;34;3;0.14999999999999999;0.64000000000000001;0.13;0.080000000000000002;1;83;0;0;0.41999999999999998;0.57999999999999996;0.0;0.0;0;3.2418418020965873;11;50;24;1;
2019_03_15 12:50;33;2;0;timed;9;16;1;64;53;0;0;0.65000000000000002;0.34999999999999998;0.0;0.0;29;17;81;46;0.10000000000000001;0.01;0.44;0.45000000000000001;1;3.8825962934834024;11;50;24;1;
2019_03_15 12:50;33;2;0;timed;10;40;0;45;49;0;0;0.68999999999999995;0.31;0.0;0.0;2;92;65;73;0.23999999999999999;0.59999999999999998;0.11;0.050000000000000003;1;3.1019545421891053;11;50;24;1;
2019_03_15 12:50;33;2;0;timed;11;144;0;99;93;90;71;0.65000000000000002;0.32000000000000001;0.01;0.02;97;14;48;73;0.23000000000000001;0.46000000000000002;0.13;0.17999999999999999;1;2.8019216361426516;11;50;24;1;
2019_03_15 12:50;33;2;0;timed;12;91;1;74;81;86;48;0.93000000000000005;0.02;0.01;0.039999999999999897;7;64;0;0;0.13;0.87;0.0;0.0;0;2.621449931493771;11;50;24;1;
2019_03_15 12:50;33;2;0;timed;13;13;0;52;56;0;0;0.46999999999999997;0.53000000000000003;0.0;0.0;94;71;27;2;0.089999999999999997;0.31;0.57999999999999996;0.020000000000000101;0;2.6418016477396122;11;50;24;1;
2019_03_15 12:50;33;2;0;timed;14;71;0;68;55;36;51;0.20000000000000001;0.75;0.02;0.029999999999999999;38;81;0;0;0.52000000000000002;0.47999999999999998;0.0;0.0;1;2.861933797909387;11;50;24;1;
2019_03_15 12:50;33;2;0;timed;15;39;1;14;33;0;0;0.78000000000000003;0.22;0.0;0.0;93;84;1;25;0.14000000000000001;0.23999999999999999;0.39000000000000001;0.23000000000000001;1;2.5616279576956913;11;50;24;1;
2019_03_15 12:50;33;2;0;timed;16;3;0;53;40;0;0;0.31;0.68999999999999995;0.0;0.0;96;24;7;88;0.11;0.27000000000000002;0.58999999999999997;0.029999999999999999;0;3.602428248141223;11;50;24;1;
2019_03_15 12:50;33;2;0;timed;17;28;1;47;30;0;0;0.97999999999999998;0.02;0.0;0.0;55;48;77;13;0.070000000000000007;0.26000000000000001;0.42999999999999999;0.23999999999999999;1;3.011915773349756;11;50;24;1;
2019_03_15 12:50;33;2;0;timed;18;64;0;48;39;34;19;0.46000000000000002;0.5;0.02;0.02;13;92;0;0;0.68999999999999995;0.31;0.0;0.0;0;2.2910642444053337;11;50;24;1;
2019_03_15 12:50;33;2;0;timed;19;35;1;33;37;0;0;0.88;0.12;0.0;0.0;63;4;79;98;0.16;0.46000000000000002;0.17000000000000001;0.20999999999999999;1;3.7224926618873724;11;50;24;1;
2019_03_15 12:50;33;2;0;timed;20;130;1;37;79;23;95;0.94999999999999996;0.029999999999999999;0.01;0.01;94;4;58;49;0.46000000000000002;0.5;0.029999999999999999;0.01;1;4.3629431091021615;11;50;24;1;
2019_03_15 12:50;33;2;0;timed;21;24;0;35;27;0;0;0.070000000000000007;0.93000000000000005;0.0;0.0;62;3;81;95;0.35999999999999999;0.55000000000000004;0.01;0.080000000000000002;0;3.9326580644833484;11;50;24;1;
2019_03_15 12:50;33;2;0;timed;22;26;1;76;41;0;0;0.57999999999999996;0.41999999999999998;0.0;0.0;61;79;84;2;0.13;0.029999999999999999;0.67000000000000004;0.17000000000000001;1;3.8323199596661652;11;50;24;1;
2019_03_15 12:50;33;2;0;timed;23;117;1;65;85;92;41;0.23000000000000001;0.17999999999999999;0.54000000000000004;0.050000000000000003;99;93;10;13;0.64000000000000001;0.16;0.01;0.19;1;2.2415146659618586;11;50;24;1;
2019_03_15 12:50;33;2;0;timed;24;77;0;24;17;99;41;0.17999999999999999;0.13;0.10000000000000001;0.58999999999999997;12;97;0;0;0.59999999999999998;0.40000000000000002;0.0;0.0;0;4.182789239658632;11;50;24;1;
2019_03_15 12:50;33;2;0;timed;25;4;1;40;43;0;0;0.58999999999999997;0.40999999999999998;0.0;0.0;2;33;88;81;0.69999999999999996;0.14000000000000001;0.13;0.029999999999999999;0;5.743806222514195;11;50;24;1;
2019_03_15 12:50;33;2;0;timed;26;92;1;90;86;65;94;0.16;0.34000000000000002;0.28000000000000003;0.22;79;22;0;0;0.35999999999999999;0.64000000000000001;0.0;0.0;0;5.012822132876408;11;50;24;1;
2019_03_15 12:50;33;2;0;timed;27;106;0;85;69;22;61;0.10000000000000001;0.58999999999999997;0.17999999999999999;0.13;20;79;91;84;0.55000000000000004;0.14999999999999999;0.26000000000000001;0.039999999999999897;0;3.361760287469224;11;50;24;1;
2019_03_15 12:50;33;2;0;timed;28;104;0;55;85;93;3;0.87;0.02;0.089999999999999997;0.02;1;2;90;8;0.35999999999999999;0.070000000000000007;0.40000000000000002;0.17000000000000001;0;2.961834438326605;11;50;24;1;
2019_03_15 12:50;33;2;0;timed;29;145;0;91;89;90;74;0.57999999999999996;0.29999999999999999;0.11;0.010000000000000101;2;75;84;39;0.32000000000000001;0.27000000000000002;0.39000000000000001;0.0199999999999999;0;3.9821688356009872;11;50;24;1;
2019_03_15 12:50;33;2;0;timed;30;137;1;71;22;28;17;0.25;0.46000000000000002;0.050000000000000003;0.23999999999999999;3;98;92;69;0.42999999999999999;0.23999999999999999;0.20000000000000001;0.13;1;4.272846610356737;11;50;24;1;
2019_03_15 12:50;33;2;0;timed;31;89;1;26;41;13;56;0.059999999999999998;0.40999999999999998;0.050000000000000003;0.47999999999999998;5;97;0;0;0.37;0.63;0.0;0.0;1;3.8524561509289015;11;50;24;1;
2019_03_15 12:50;33;2;0;timed;32;82;0;78;66;30;27;0.28999999999999998;0.58999999999999997;0.080000000000000002;0.040000000000000001;90;6;0;0;0.82999999999999996;0.17000000000000001;0.0;0.0;0;2.0813064790913813;11;50;24;1;
2019_03_15 12:50;33;2;0;timed;33;112;0;70;44;98;64;0.02;0.75;0.12;0.11;33;2;63;85;0.23999999999999999;0.31;0.080000000000000002;0.37;0;3.612284346728302;11;50;24;1;
2019_03_15 12:50;33;2;0;timed;34;66;1;89;23;27;15;0.070000000000000007;0.54000000000000004;0.17000000000000001;0.22;9;73;0;0;0.72999999999999998;0.27000000000000002;0.0;0.0;0;2.4815437490055956;11;50;24;1;
2019_03_15 12:50;33;2;0;timed;35;72;1;63;82;51;61;0.01;0.96999999999999997;0.01;0.01;92;12;0;0;0.89000000000000001;0.11;0.0;0.0;0;2.861821545314342;11;50;24;1;
2019_03_15 12:50;33;2;0;timed;36;103;1;38;49;89;50;0.89000000000000001;0.070000000000000007;0.01;0.029999999999999999;6;64;99;27;0.70999999999999996;0.17999999999999999;0.059999999999999998;0.050000000000000003;1;5.513540549486152;11;50;24;1;
2019_03_15 12:50;33;2;0;timed;37;140;0;36;32;26;27;0.39000000000000001;0.14999999999999999;0.19;0.27000000000000002;44;3;99;25;0.29999999999999999;0.34000000000000002;0.34000000000000002;0.0199999999999999;0;4.803191373356185;11;50;24;1;
2019_03_15 12:50;33;2;0;timed;38;139;1;44;31;16;8;0.79000000000000004;0.070000000000000007;0.13;0.0099999999999999499;92;58;2;88;0.55000000000000004;0.070000000000000007;0.34000000000000002;0.039999999999999897;1;5.6037085691705215;11;50;24;1;
2019_03_15 12:50;33;2;0;timed;39;22;0;32;55;0;0;0.39000000000000001;0.60999999999999999;0.0;0.0;93;72;59;22;0.20000000000000001;0.11;0.14000000000000001;0.55000000000000004;0;3.8220523751365363;11;50;24;1;
2019_03_15 12:50;33;2;0;timed;40;9;0;61;69;0;0;0.93999999999999995;0.060000000000000102;0.0;0.0;18;93;72;16;0.40999999999999998;0.34999999999999998;0.089999999999999997;0.14999999999999999;0;4.512491789524574;11;50;24;1;
2019_03_15 12:50;33;2;0;timed;41;46;1;5;19;0;0;0.32000000000000001;0.68000000000000005;0.0;0.0;88;38;97;66;0.60999999999999999;0.20000000000000001;0.040000000000000001;0.14999999999999999;1;2.8618253939744136;11;50;24;1;
2019_03_15 12:50;33;2;0;timed;42;32;0;19;81;0;0;0.93000000000000005;0.070000000000000007;0.0;0.0;1;65;41;68;0.45000000000000001;0.050000000000000003;0.059999999999999998;0.44;0;3.852427285975864;11;50;24;1;
2019_03_15 12:50;33;2;0;timed;43;58;1;37;58;76;34;0.20999999999999999;0.57999999999999996;0.19;0.020000000000000101;86;5;0;0;0.47999999999999998;0.52000000000000002;0.0;0.0;0;3.972671303874904;11;50;24;1;
2019_03_15 12:50;33;2;0;timed;44;18;1;68;50;0;0;0.029999999999999999;0.96999999999999997;0.0;0.0;34;64;15;89;0.65000000000000002;0.029999999999999999;0.050000000000000003;0.27000000000000002;1;5.893404935522085;11;50;24;1;
2019_03_15 12:50;33;2;0;timed;45;133;0;59;88;60;36;0.67000000000000004;0.070000000000000007;0.12;0.14000000000000001;7;91;66;61;0.25;0.68999999999999995;0.01;0.0500000000000001;1;3.992531995196714;11;50;24;1;
2019_03_15 12:50;33;2;0;timed;46;90;1;27;44;50;72;0.68000000000000005;0.28999999999999998;0.02;0.0099999999999999707;6;96;0;0;0.46999999999999997;0.53000000000000003;0.0;0.0;0;4.292760220759192;11;50;24;1;
2019_03_15 12:50;33;2;0;timed;47;67;0;44;42;8;89;0.88;0.070000000000000007;0.029999999999999999;0.02;10;63;0;0;0.39000000000000001;0.60999999999999999;0.0;0.0;0;4.943144060490795;11;50;24;1;
2019_03_15 12:50;33;2;0;timed;48;114;0;57;39;79;97;0.77000000000000002;0.02;0.13;0.080000000000000002;92;36;6;1;0.54000000000000004;0.12;0.13;0.20999999999999999;1;5.323529619290639;11;50;24;1;
2019_03_15 12:50;33;2;0;timed;49;108;0;48;72;39;70;0.14000000000000001;0.66000000000000003;0.02;0.17999999999999999;81;44;98;8;0.59999999999999998;0.029999999999999999;0.050000000000000003;0.32000000000000001;0;5.263350682238979;11;50;24;1;
2019_03_15 12:50;33;2;0;timed;50;95;0;93;88;68;85;0.83999999999999997;0.14000000000000001;0.01;0.01;2;82;0;0;0.41999999999999998;0.57999999999999996;0.0;0.0;0;3.0820848706594006;11;50;24;1;
2019_03_15 12:50;33;2;0;timed;51;138;0;8;20;43;51;0.38;0.5;0.02;0.10000000000000001;72;82;70;1;0.39000000000000001;0.050000000000000003;0.070000000000000007;0.48999999999999999;0;5.163282304372387;11;50;24;1;
2019_03_15 12:50;33;2;0;timed;52;135;1;48;60;41;51;0.14000000000000001;0.40000000000000002;0.089999999999999997;0.37;94;1;85;65;0.64000000000000001;0.29999999999999999;0.01;0.050000000000000003;0;3.9421495024962496;11;50;24;1;
2019_03_15 12:50;33;2;0;timed;53;57;0;52;35;23;47;0.22;0.68000000000000005;0.040000000000000001;0.059999999999999998;71;7;0;0;0.28999999999999998;0.70999999999999996;0.0;0.0;0;2.8419165943973894;11;50;24;1;
2019_03_15 12:50;33;2;0;timed;54;141;1;93;28;60;91;0.81999999999999995;0.10000000000000001;0.01;0.070000000000000007;14;85;7;89;0.45000000000000001;0.070000000000000007;0.23999999999999999;0.23999999999999999;0;4.182764223365666;11;50;24;1;
2019_03_15 12:50;33;2;0;timed;55;102;0;40;56;53;17;0.28000000000000003;0.26000000000000001;0.14999999999999999;0.31;1;76;29;62;0.68000000000000005;0.23000000000000001;0.050000000000000003;0.039999999999999897;0;3.3120734401377376;11;50;24;1;
2019_03_15 12:50;33;2;0;timed;56;132;1;27;70;21;19;0.64000000000000001;0.23000000000000001;0.029999999999999999;0.10000000000000001;11;85;55;6;0.39000000000000001;0.46999999999999997;0.029999999999999999;0.11;1;4.392793960681956;11;50;24;1;
2019_03_15 12:50;33;2;0;timed;57;122;1;35;58;25;31;0.81999999999999995;0.070000000000000007;0.080000000000000002;0.029999999999999999;18;64;68;89;0.63;0.17000000000000001;0.11;0.089999999999999997;1;5.363437341242843;11;50;24;1;
2019_03_15 12:50;33;2;0;timed;58;60;0;64;59;57;96;0.83999999999999997;0.13;0.02;0.01;83;6;0;0;0.54000000000000004;0.46000000000000002;0.0;0.0;0;4.362619821627504;11;50;24;1;
2019_03_15 12:50;33;2;0;timed;59;30;0;33;30;0;0;0.71999999999999997;0.28000000000000003;0.0;0.0;9;88;1;14;0.55000000000000004;0.39000000000000001;0.01;0.049999999999999899;1;2.641685546484041;11;50;24;1;
2019_03_15 12:50;33;2;0;timed;60;74;0;66;47;52;44;0.41999999999999998;0.26000000000000001;0.17999999999999999;0.14000000000000001;17;99;0;0;0.47999999999999998;0.52000000000000002;0.0;0.0;0;4.882752484951652;11;50;24;1;
2019_03_15 12:50;33;2;0;timed;61;11;0;17;36;0;0;0.14000000000000001;0.85999999999999999;0.0;0.0;19;41;34;95;0.88;0.02;0.050000000000000003;0.050000000000000003;1;3.482377946149427;11;50;24;1;
2019_03_15 12:50;33;2;0;timed;62;97;1;17;33;32;74;0.94999999999999996;0.01;0.029999999999999999;0.01;76;23;0;0;0.33000000000000002;0.67000000000000004;0.0;0.0;0;3.4218115772837336;11;50;24;1;
2019_03_15 12:50;33;2;0;timed;63;109;0;75;28;16;56;0.19;0.070000000000000007;0.059999999999999998;0.68000000000000005;3;50;98;44;0.5;0.02;0.34999999999999998;0.13;0;4.32253890995662;11;50;24;1;
2019_03_15 12:50;33;2;0;timed;64;6;1;9;51;0;0;0.14999999999999999;0.84999999999999998;0.0;0.0;6;40;50;73;0.42999999999999999;0.26000000000000001;0.059999999999999998;0.25;1;4.78307859477718;11;50;24;1;
2019_03_15 12:50;33;2;0;timed;65;51;1;52;23;43;16;0.60999999999999999;0.20999999999999999;0.01;0.17000000000000001;92;7;0;0;0.14999999999999999;0.84999999999999998;0.0;0.0;0;3.0320593412120616;11;50;24;1;
2019_03_15 12:50;33;2;0;timed;66;129;1;12;29;81;36;0.17999999999999999;0.79000000000000004;0.01;0.02;5;19;95;92;0.47999999999999998;0.26000000000000001;0.13;0.13;1;4.4929935137242865;11;50;24;1;
2019_03_15 12:50;33;2;0;timed;67;148;0;37;63;55;10;0.72999999999999998;0.070000000000000007;0.029999999999999999;0.17000000000000001;80;14;23;70;0.46999999999999997;0.10000000000000001;0.23000000000000001;0.20000000000000001;1;3.7223367911410605;11;50;24;1;
2019_03_15 12:50;33;2;0;timed;68;81;0;67;38;52;65;0.27000000000000002;0.35999999999999999;0.01;0.35999999999999999;2;77;0;0;0.14000000000000001;0.85999999999999999;0.0;0.0;0;3.381922136468347;11;50;24;1;
2019_03_15 12:50;33;2;0;timed;69;119;1;60;58;11;18;0.25;0.72999999999999998;0.01;0.01;96;23;42;85;0.44;0.48999999999999999;0.059999999999999998;0.010000000000000101;NA;6.103936923022047;11;50;24;1;
2019_03_15 12:50;33;2;0;timed;70;84;1;43;10;5;45;0.78000000000000003;0.13;0.059999999999999998;0.029999999999999999;87;1;0;0;0.57999999999999996;0.41999999999999998;0.0;0.0;0;3.0119356580953536;11;50;24;1;
2019_03_15 12:50;33;2;0;timed;71;54;0;44;79;78;52;0.79000000000000004;0.19;0.01;0.0099999999999999603;96;1;0;0;0.28000000000000003;0.71999999999999997;0.0;0.0;0;2.281404427499183;11;50;24;1;
2019_03_15 12:50;33;2;0;timed;72;25;0;50;53;0;0;0.82999999999999996;0.17000000000000001;0.0;0.0;83;16;97;4;0.45000000000000001;0.29999999999999999;0.11;0.14000000000000001;0;3.571927293673525;11;50;24;1;
2019_03_15 12:50;33;2;0;timed;73;121;0;42;51;47;70;0.41999999999999998;0.17000000000000001;0.23999999999999999;0.17000000000000001;21;76;48;9;0.14999999999999999;0.34000000000000002;0.40999999999999998;0.10000000000000001;1;4.8831232392381025;11;50;24;1;
2019_03_15 12:50;33;2;0;timed;74;83;0;17;12;7;41;0.65000000000000002;0.19;0.089999999999999997;0.070000000000000007;6;84;0;0;0.72999999999999998;0.27000000000000002;0.0;0.0;0;2.421156984292338;11;50;24;1;
2019_03_15 12:50;33;2;0;timed;75;45;1;97;87;0;0;0.71999999999999997;0.28000000000000003;0.0;0.0;96;11;14;4;0.25;0.029999999999999999;0.14000000000000001;0.57999999999999996;0;2.671805483571461;11;50;24;1;
2019_03_15 12:50;33;3;0;control;1;108;0;48;72;39;70;0.14000000000000001;0.66000000000000003;0.02;0.17999999999999999;81;44;98;8;0.59999999999999998;0.029999999999999999;0.050000000000000003;0.32000000000000001;0;8.407037852857684;11;50;24;1;
2019_03_15 12:50;33;3;0;control;2;24;1;35;27;0;0;0.070000000000000007;0.93000000000000005;0.0;0.0;62;3;81;95;0.35999999999999999;0.55000000000000004;0.01;0.080000000000000002;0;4.762673638729211;11;50;24;1;
2019_03_15 12:50;33;3;0;control;3;140;0;36;32;26;27;0.39000000000000001;0.14999999999999999;0.19;0.27000000000000002;44;3;99;25;0.29999999999999999;0.34000000000000002;0.34000000000000002;0.0199999999999999;0;6.114019451129934;11;50;24;1;
2019_03_15 12:50;33;3;0;control;4;51;0;52;23;43;16;0.60999999999999999;0.20999999999999999;0.01;0.17000000000000001;92;7;0;0;0.14999999999999999;0.84999999999999998;0.0;0.0;0;3.6623156491664304;11;50;24;1;
2019_03_15 12:50;33;3;0;control;5;75;1;67;80;36;81;0.81999999999999995;0.080000000000000002;0.059999999999999998;0.040000000000000001;3;97;0;0;0.32000000000000001;0.68000000000000005;0.0;0.0;0;2.8419412899684175;11;50;24;1;
2019_03_15 12:50;33;3;0;control;6;112;0;70;44;98;64;0.02;0.75;0.12;0.11;33;2;63;85;0.23999999999999999;0.31;0.080000000000000002;0.37;0;7.364713492890132;11;50;24;1;
2019_03_15 12:50;33;3;0;control;7;82;1;78;66;30;27;0.28999999999999998;0.58999999999999997;0.080000000000000002;0.040000000000000001;90;6;0;0;0.82999999999999996;0.17000000000000001;0.0;0.0;0;2.7517258034717997;11;50;24;1;
2019_03_15 12:50;33;3;0;control;8;132;1;27;70;21;19;0.64000000000000001;0.23000000000000001;0.029999999999999999;0.10000000000000001;11;85;55;6;0.39000000000000001;0.46999999999999997;0.029999999999999999;0.11;0;9.816466044552271;11;50;24;1;
2019_03_15 12:50;33;3;0;control;9;41;1;99;40;0;0;0.89000000000000001;0.11;0.0;0.0;1;67;52;46;0.51000000000000001;0.38;0.029999999999999999;0.080000000000000002;0;4.1222610366748995;11;50;24;1;
2019_03_15 12:50;33;3;0;control;10;94;0;84;86;93;39;0.78000000000000003;0.20000000000000001;0.01;0.0099999999999999603;9;83;0;0;0.46999999999999997;0.53000000000000003;0.0;0.0;0;2.901464030419902;11;50;24;1;
2019_03_15 12:50;33;3;0;control;11;102;1;40;56;53;17;0.28000000000000003;0.26000000000000001;0.14999999999999999;0.31;1;76;29;62;0.68000000000000005;0.23000000000000001;0.050000000000000003;0.039999999999999897;0;3.6024308139144523;11;50;24;1;
2019_03_15 12:50;33;3;0;control;12;30;0;33;30;0;0;0.71999999999999997;0.28000000000000003;0.0;0.0;9;88;1;14;0.55000000000000004;0.39000000000000001;0.01;0.049999999999999899;1;6.724315323313476;11;50;24;1;
2019_03_15 12:50;33;3;0;control;13;101;0;30;96;61;45;0.65000000000000002;0.14000000000000001;0.11;0.10000000000000001;3;98;63;89;0.75;0.19;0.040000000000000001;0.02;0;4.482866726021257;11;50;24;1;
2019_03_15 12:50;33;3;0;control;14;31;1;10;59;0;0;0.23999999999999999;0.76000000000000001;0.0;0.0;1;79;53;73;0.23000000000000001;0.58999999999999997;0.050000000000000003;0.13;1;4.372755910259457;11;50;24;1;
2019_03_15 12:50;33;3;0;control;15;86;1;56;30;57;88;0.20000000000000001;0.35999999999999999;0.080000000000000002;0.35999999999999999;98;2;0;0;0.77000000000000002;0.23000000000000001;0.0;0.0;0;3.211811025642419;11;50;24;1;
2019_03_15 12:50;33;3;0;control;16;93;1;87;81;73;98;0.80000000000000004;0.040000000000000001;0.14999999999999999;0.0099999999999999499;5;71;0;0;0.51000000000000001;0.48999999999999999;0.0;0.0;0;3.8224301853001634;11;50;24;1;
2019_03_15 12:50;33;3;0;control;17;42;0;70;48;0;0;0.79000000000000004;0.20999999999999999;0.0;0.0;51;8;12;67;0.19;0.26000000000000001;0.28999999999999998;0.26000000000000001;0;5.813708800090353;11;50;24;1;
2019_03_15 12:50;33;3;0;control;18;130;0;37;79;23;95;0.94999999999999996;0.029999999999999999;0.01;0.01;94;4;58;49;0.46000000000000002;0.5;0.029999999999999999;0.01;0;5.973489144211726;11;50;24;1;
2019_03_15 12:50;33;3;0;control;19;113;0;85;65;39;64;0.44;0.34000000000000002;0.13;0.089999999999999997;87;2;4;35;0.67000000000000004;0.17000000000000001;0.11;0.049999999999999899;0;5.683608683604234;11;50;24;1;
2019_03_15 12:50;33;3;0;control;20;65;0;75;64;59;52;0.59999999999999998;0.22;0.14000000000000001;0.040000000000000001;1;99;0;0;0.35999999999999999;0.64000000000000001;0.0;0.0;0;5.673619806232637;11;50;24;1;
2019_03_15 12:50;33;3;0;control;21;70;1;66;55;69;50;0.22;0.29999999999999999;0.29999999999999999;0.17999999999999999;2;90;0;0;0.34000000000000002;0.66000000000000003;0.0;0.0;0;2.3015682008281146;11;50;24;1;
2019_03_15 12:50;33;3;0;control;22;73;1;65;68;70;47;0.25;0.23000000000000001;0.20999999999999999;0.31;27;95;0;0;0.45000000000000001;0.55000000000000004;0.0;0.0;0;6.193739640689273;11;50;24;1;
2019_03_15 12:50;33;3;0;control;23;29;0;44;51;0;0;0.78000000000000003;0.22;0.0;0.0;74;1;68;82;0.69999999999999996;0.28000000000000003;0.01;0.01;0;8.495110276949617;11;50;24;1;
2019_03_15 12:50;33;3;0;control;24;4;1;40;43;0;0;0.58999999999999997;0.40999999999999998;0.0;0.0;2;33;88;81;0.69999999999999996;0.14000000000000001;0.13;0.029999999999999999;0;3.052072696063533;11;50;24;1;
2019_03_15 12:50;33;3;0;control;25;126;0;16;55;51;42;0.68999999999999995;0.23999999999999999;0.01;0.060000000000000102;66;4;1;5;0.46999999999999997;0.38;0.089999999999999997;0.059999999999999998;0;5.1134299646437285;11;50;24;1;
2019_03_15 12:50;33;3;0;control;26;138;1;8;20;43;51;0.38;0.5;0.02;0.10000000000000001;72;82;70;1;0.39000000000000001;0.050000000000000003;0.070000000000000007;0.48999999999999999;0;5.803468476905891;11;50;24;1;
2019_03_15 12:50;33;3;0;control;27;99;0;8;24;15;73;0.56000000000000005;0.35999999999999999;0.070000000000000007;0.0099999999999999499;88;12;0;0;0.52000000000000002;0.47999999999999998;0.0;0.0;0;5.863741385414869;11;50;24;1;
2019_03_15 12:50;33;3;0;control;28;127;0;89;26;62;79;0.02;0.28999999999999998;0.53000000000000003;0.16;96;6;60;13;0.53000000000000003;0.25;0.17000000000000001;0.050000000000000003;0;10.436833540305543;11;50;24;1;
2019_03_15 12:50;33;3;0;control;29;148;1;37;63;55;10;0.72999999999999998;0.070000000000000007;0.029999999999999999;0.17000000000000001;80;14;23;70;0.46999999999999997;0.10000000000000001;0.23000000000000001;0.20000000000000001;1;4.012667224294546;11;50;24;1;
2019_03_15 12:50;33;3;0;control;30;63;0;56;78;42;36;0.93000000000000005;0.040000000000000001;0.01;0.0199999999999999;2;72;0;0;0.32000000000000001;0.68000000000000005;0.0;0.0;0;2.931981020972671;11;50;24;1;
2019_03_15 12:50;33;3;0;control;31;62;1;12;45;16;50;0.20999999999999999;0.76000000000000001;0.02;0.01;92;15;0;0;0.20999999999999999;0.79000000000000004;0.0;0.0;0;4.472985611141667;11;50;24;1;
2019_03_15 12:50;33;3;0;control;32;105;0;49;74;63;58;0.84999999999999998;0.080000000000000002;0.02;0.050000000000000003;97;5;86;8;0.25;0.52000000000000002;0.070000000000000007;0.16;0;6.073897487081467;11;50;24;1;
2019_03_15 12:50;33;3;0;control;33;124;0;37;65;15;41;0.17999999999999999;0.45000000000000001;0.02;0.34999999999999998;40;7;98;30;0.070000000000000007;0.45000000000000001;0.45000000000000001;0.029999999999999898;0;6.423752905738638;11;50;24;1;
2019_03_15 12:50;33;3;0;control;34;21;1;64;28;0;0;0.080000000000000002;0.92000000000000004;0.0;0.0;50;1;88;13;0.57999999999999996;0.13;0.02;0.27000000000000002;0;6.864173397545983;11;50;24;1;
2019_03_15 12:50;33;3;0;control;35;117;1;65;85;92;41;0.23000000000000001;0.17999999999999999;0.54000000000000004;0.050000000000000003;99;93;10;13;0.64000000000000001;0.16;0.01;0.19;1;6.36406980443644;11;50;24;1;
2019_03_15 12:50;33;3;0;control;36;12;1;53;68;0;0;0.31;0.68999999999999995;0.0;0.0;69;54;97;29;0.25;0.20999999999999999;0.20000000000000001;0.34000000000000002;1;5.6537446824340805;11;50;24;1;
2019_03_15 12:50;33;3;0;control;37;54;1;44;79;78;52;0.79000000000000004;0.19;0.01;0.0099999999999999603;96;1;0;0;0.28000000000000003;0.71999999999999997;0.0;0.0;0;5.883740628511987;11;50;24;1;
2019_03_15 12:50;33;3;0;control;38;40;0;45;49;0;0;0.68999999999999995;0.31;0.0;0.0;2;92;65;73;0.23999999999999999;0.59999999999999998;0.11;0.050000000000000003;0;7.39453291374366;11;50;24;1;
2019_03_15 12:50;33;3;0;control;39;118;0;62;52;65;68;0.40999999999999998;0.44;0.10000000000000001;0.0500000000000001;79;20;14;37;0.56999999999999995;0.23999999999999999;0.14000000000000001;0.050000000000000003;0;7.99513176530354;11;50;24;1;
2019_03_15 12:50;33;3;0;control;40;142;0;98;65;64;84;0.88;0.070000000000000007;0.01;0.040000000000000001;5;68;60;16;0.46000000000000002;0.080000000000000002;0.27000000000000002;0.19;0;3.552245244338337;11;50;24;1;
2019_03_15 12:50;33;3;0;control;41;121;1;42;51;47;70;0.41999999999999998;0.17000000000000001;0.23999999999999999;0.17000000000000001;21;76;48;9;0.14999999999999999;0.34000000000000002;0.40999999999999998;0.10000000000000001;1;9.63618067921152;11;50;24;1;
2019_03_15 12:50;33;3;0;control;42;136;1;29;67;14;75;0.46000000000000002;0.29999999999999999;0.20999999999999999;0.0300000000000001;70;86;1;85;0.31;0.39000000000000001;0.27000000000000002;0.029999999999999898;0;6.5243167986327535;11;50;24;1;
2019_03_15 12:50;33;3;0;control;43;69;0;54;34;64;49;0.34000000000000002;0.25;0.20999999999999999;0.20000000000000001;14;98;0;0;0.62;0.38;0.0;0.0;0;3.482206039317589;11;50;24;1;
2019_03_15 12:50;33;3;0;control;44;116;1;53;65;43;99;0.56999999999999995;0.37;0.050000000000000003;0.010000000000000101;57;72;11;87;0.67000000000000004;0.13;0.14999999999999999;0.050000000000000003;1;9.556278640448;11;50;24;1;
2019_03_15 12:50;33;3;0;control;45;129;1;12;29;81;36;0.17999999999999999;0.79000000000000004;0.01;0.02;5;19;95;92;0.47999999999999998;0.26000000000000001;0.13;0.13;0;6.95458420355817;11;50;24;1;
2019_03_15 12:50;33;3;0;control;46;59;1;56;47;83;90;0.31;0.12;0.54000000000000004;0.029999999999999898;10;98;0;0;0.46999999999999997;0.53000000000000003;0.0;0.0;0;3.1621132737732296;11;50;24;1;
2019_03_15 12:50;33;3;0;control;47;96;0;51;54;39;7;0.17000000000000001;0.26000000000000001;0.10000000000000001;0.46999999999999997;24;96;0;0;0.28000000000000003;0.71999999999999997;0.0;0.0;0;2.631303785029104;11;50;24;1;
2019_03_15 12:50;33;3;0;control;48;61;1;43;18;39;70;0.75;0.089999999999999997;0.089999999999999997;0.070000000000000007;16;66;0;0;0.64000000000000001;0.35999999999999999;0.0;0.0;0;6.414117784403061;11;50;24;1;
2019_03_15 12:50;33;3;0;control;49;37;1;14;98;0;0;0.93000000000000005;0.070000000000000007;0.0;0.0;41;2;87;66;0.17999999999999999;0.48999999999999999;0.32000000000000001;0.010000000000000101;1;3.301731448173541;11;50;24;1;
2019_03_15 12:50;33;3;0;control;50;45;0;97;87;0;0;0.71999999999999997;0.28000000000000003;0.0;0.0;96;11;14;4;0.25;0.029999999999999999;0.14000000000000001;0.57999999999999996;0;3.472339998357711;11;50;24;1;
2019_03_15 12:50;33;3;0;control;51;47;1;2;40;0;0;0.45000000000000001;0.55000000000000004;0.0;0.0;93;89;11;56;0.58999999999999997;0.070000000000000007;0.28000000000000003;0.059999999999999998;1;3.832438305973483;11;50;24;1;
2019_03_15 12:50;33;3;0;control;52;141;1;93;28;60;91;0.81999999999999995;0.10000000000000001;0.01;0.070000000000000007;14;85;7;89;0.45000000000000001;0.070000000000000007;0.23999999999999999;0.23999999999999999;0;6.934431976210362;11;50;24;1;
2019_03_15 12:50;33;3;0;control;53;80;1;47;39;45;10;0.13;0.76000000000000001;0.059999999999999998;0.050000000000000003;2;87;0;0;0.48999999999999999;0.51000000000000001;0.0;0.0;0;2.3911217177342223;11;50;24;1;
2019_03_15 12:50;33;3;0;control;54;134;1;57;48;50;55;0.02;0.62;0.17999999999999999;0.17999999999999999;80;96;15;18;0.23999999999999999;0.35999999999999999;0.33000000000000002;0.070000000000000007;1;8.715605163362852;11;50;24;1;
2019_03_15 12:50;33;3;0;control;55;81;1;67;38;52;65;0.27000000000000002;0.35999999999999999;0.01;0.35999999999999999;2;77;0;0;0.14000000000000001;0.85999999999999999;0.0;0.0;0;1.7107022907225655;11;50;24;1;
2019_03_15 12:50;33;3;0;control;56;125;1;37;41;10;35;0.91000000000000003;0.040000000000000001;0.029999999999999999;0.02;7;13;91;93;0.26000000000000001;0.39000000000000001;0.16;0.19;1;7.594998729941835;11;50;24;1;
2019_03_15 12:50;33;3;0;control;57;139;0;44;31;16;8;0.79000000000000004;0.070000000000000007;0.13;0.0099999999999999499;92;58;2;88;0.55000000000000004;0.070000000000000007;0.34000000000000002;0.039999999999999897;1;2.871828062379336;11;50;24;1;
2019_03_15 12:50;33;3;0;control;58;52;1;71;51;10;54;0.22;0.12;0.19;0.46999999999999997;91;1;0;0;0.29999999999999999;0.69999999999999996;0.0;0.0;0;3.0420527086871516;11;50;24;1;
2019_03_15 12:50;33;3;0;control;59;79;1;52;46;29;22;0.17999999999999999;0.51000000000000001;0.23999999999999999;0.070000000000000104;93;14;0;0;0.45000000000000001;0.55000000000000004;0.0;0.0;0;3.2817171311571656;11;50;24;1;
2019_03_15 12:50;33;3;0;control;60;149;1;14;89;73;53;0.93999999999999995;0.01;0.01;0.040000000000000001;97;45;6;13;0.34000000000000002;0.01;0.40999999999999998;0.23999999999999999;0;5.313363382818807;11;50;24;1;
2019_03_15 12:50;33;3;0;control;61;9;0;61;69;0;0;0.93999999999999995;0.060000000000000102;0.0;0.0;18;93;72;16;0.40999999999999998;0.34999999999999998;0.089999999999999997;0.14999999999999999;0;2.251384234860325;11;50;24;1;
2019_03_15 12:50;33;3;0;control;62;23;1;54;40;0;0;0.93000000000000005;0.070000000000000007;0.0;0.0;36;23;71;86;0.02;0.41999999999999998;0.19;0.37;1;4.082597704658838;11;50;24;1;
2019_03_15 12:50;33;3;0;control;63;14;1;36;40;0;0;0.54000000000000004;0.46000000000000002;0.0;0.0;99;70;1;11;0.16;0.089999999999999997;0.080000000000000002;0.67000000000000004;0;6.093890636465858;11;50;24;1;
2019_03_15 12:50;33;3;0;control;64;66;0;89;23;27;15;0.070000000000000007;0.54000000000000004;0.17000000000000001;0.22;9;73;0;0;0.72999999999999998;0.27000000000000002;0.0;0.0;0;3.2520747486823893;11;50;24;1;
2019_03_15 12:50;33;3;0;control;65;107;1;52;48;13;63;0.68000000000000005;0.19;0.050000000000000003;0.079999999999999905;54;91;33;3;0.19;0.17999999999999999;0.33000000000000002;0.29999999999999999;1;5.283396750704014;11;50;24;1;
2019_03_15 12:50;33;3;0;control;66;46;0;5;19;0;0;0.32000000000000001;0.68000000000000005;0.0;0.0;88;38;97;66;0.60999999999999999;0.20000000000000001;0.040000000000000001;0.14999999999999999;1;3.902612534830496;11;50;24;1;
2019_03_15 12:50;33;3;0;control;67;89;0;26;41;13;56;0.059999999999999998;0.40999999999999998;0.050000000000000003;0.47999999999999998;5;97;0;0;0.37;0.63;0.0;0.0;0;2.6814938447091663;11;50;24;1;
2019_03_15 12:50;33;3;0;control;68;76;0;39;62;9;28;0.01;0.51000000000000001;0.26000000000000001;0.22;77;7;0;0;0.57999999999999996;0.41999999999999998;0.0;0.0;0;3.3022936733154893;11;50;24;1;
2019_03_15 12:50;33;3;0;control;69;83;0;17;12;7;41;0.65000000000000002;0.19;0.089999999999999997;0.070000000000000007;6;84;0;0;0.72999999999999998;0.27000000000000002;0.0;0.0;0;2.821583159288366;11;50;24;1;
2019_03_15 12:50;33;3;0;control;70;92;0;90;86;65;94;0.16;0.34000000000000002;0.28000000000000003;0.22;79;22;0;0;0.35999999999999999;0.64000000000000001;0.0;0.0;0;3.7121487455933675;11;50;24;1;
2019_03_15 12:50;33;3;0;control;71;55;1;74;55;47;48;0.60999999999999999;0.31;0.070000000000000007;0.01;97;6;0;0;0.42999999999999999;0.56999999999999995;0.0;0.0;0;3.361909423060297;11;50;24;1;
2019_03_15 12:50;33;3;0;control;72;16;0;64;53;0;0;0.65000000000000002;0.34999999999999998;0.0;0.0;29;17;81;46;0.10000000000000001;0.01;0.44;0.45000000000000001;1;3.9124962154837704;11;50;24;1;
2019_03_15 12:50;33;3;0;control;73;39;0;14;33;0;0;0.78000000000000003;0.22;0.0;0.0;93;84;1;25;0.14000000000000001;0.23999999999999999;0.39000000000000001;0.23000000000000001;1;6.093888391413657;11;50;24;1;
2019_03_15 12:50;33;3;0;control;74;111;0;51;36;48;27;0.93000000000000005;0.01;0.01;0.049999999999999899;31;78;30;53;0.55000000000000004;0.16;0.029999999999999999;0.26000000000000001;0;6.26400270945669;11;50;24;1;
2019_03_15 12:50;33;3;0;control;75;2;1;59;32;0;0;0.080000000000000002;0.92000000000000004;0.0;0.0;33;38;85;1;0.28999999999999998;0.050000000000000003;0.070000000000000007;0.58999999999999997;0;4.272862646441354;11;50;24;1;
2019_03_15 12:50;33;4;0;timed;1;142;1;98;65;64;84;0.88;0.070000000000000007;0.01;0.040000000000000001;5;68;60;16;0.46000000000000002;0.080000000000000002;0.27000000000000002;0.19;0;3.086524621163335;11;50;24;1;
2019_03_15 12:50;33;4;0;timed;2;63;0;56;78;42;36;0.93000000000000005;0.040000000000000001;0.01;0.0199999999999999;2;72;0;0;0.32000000000000001;0.68000000000000005;0.0;0.0;0;2.621312983327698;11;50;24;1;
2019_03_15 12:50;33;4;0;timed;3;69;1;54;34;64;49;0.34000000000000002;0.25;0.20999999999999999;0.20000000000000001;14;98;0;0;0.62;0.38;0.0;0.0;1;2.051392445336205;11;50;24;1;
2019_03_15 12:50;33;4;0;timed;4;62;0;12;45;16;50;0.20999999999999999;0.76000000000000001;0.02;0.01;92;15;0;0;0.20999999999999999;0.79000000000000004;0.0;0.0;0;2.4315169366714144;11;50;24;1;
2019_03_15 12:50;33;4;0;timed;5;86;1;56;30;57;88;0.20000000000000001;0.35999999999999999;0.080000000000000002;0.35999999999999999;98;2;0;0;0.77000000000000002;0.23000000000000001;0.0;0.0;0;1.4105180040332925;11;50;24;1;
2019_03_15 12:50;33;4;0;timed;6;111;1;51;36;48;27;0.93000000000000005;0.01;0.01;0.049999999999999899;31;78;30;53;0.55000000000000004;0.16;0.029999999999999999;0.26000000000000001;0;3.0118984543778424;11;50;24;1;
2019_03_15 12:50;33;4;0;timed;7;50;1;15;20;0;0;0.82999999999999996;0.17000000000000001;0.0;0.0;97;18;88;87;0.56999999999999995;0.39000000000000001;0.01;0.029999999999999999;1;2.8714524972674553;11;50;24;1;
2019_03_15 12:50;33;4;0;timed;8;15;1;77;81;0;0;0.28000000000000003;0.71999999999999997;0.0;0.0;98;14;87;18;0.55000000000000004;0.23000000000000001;0.16;0.059999999999999901;0;2.461777991306917;11;50;24;1;
2019_03_15 12:50;33;4;0;timed;9;41;0;99;40;0;0;0.89000000000000001;0.11;0.0;0.0;1;67;52;46;0.51000000000000001;0.38;0.029999999999999999;0.080000000000000002;0;3.2116686252070394;11;50;24;1;
2019_03_15 12:50;33;4;0;timed;10;76;1;39;62;9;28;0.01;0.51000000000000001;0.26000000000000001;0.22;77;7;0;0;0.57999999999999996;0.41999999999999998;0.0;0.0;0;3.1217498062842424;11;50;24;1;
2019_03_15 12:50;33;4;0;timed;11;70;1;66;55;69;50;0.22;0.29999999999999999;0.29999999999999999;0.17999999999999999;2;90;0;0;0.34000000000000002;0.66000000000000003;0.0;0.0;0;1.5809350833619646;11;50;24;1;
2019_03_15 12:50;33;4;0;timed;12;61;0;43;18;39;70;0.75;0.089999999999999997;0.089999999999999997;0.070000000000000007;16;66;0;0;0.64000000000000001;0.35999999999999999;0.0;0.0;0;2.4812025011160586;11;50;24;1;
2019_03_15 12:50;33;4;0;timed;13;87;0;10;30;63;4;0.56999999999999995;0.12;0.16;0.14999999999999999;86;2;0;0;0.42999999999999999;0.56999999999999995;0.0;0.0;0;1.591012479922938;11;50;24;1;
2019_03_15 12:50;33;4;0;timed;14;17;1;81;52;0;0;0.059999999999999998;0.93999999999999995;0.0;0.0;34;3;69;41;0.01;0.22;0.75;0.02;0;2.4011516474834025;11;50;24;1;
2019_03_15 12:50;33;4;0;timed;15;44;0;79;74;0;0;0.71999999999999997;0.28000000000000003;0.0;0.0;3;67;15;36;0.41999999999999998;0.53000000000000003;0.02;0.029999999999999999;0;1.7208803938974597;11;50;24;1;
2019_03_15 12:50;33;4;0;timed;16;43;0;60;83;0;0;0.23000000000000001;0.77000000000000002;0.0;0.0;72;5;70;12;0.29999999999999999;0.40999999999999998;0.12;0.17000000000000001;0;2.5415931144898423;11;50;24;1;
2019_03_15 12:50;33;4;0;timed;17;100;1;27;14;59;52;0.02;0.95999999999999996;0.01;0.01;17;98;0;0;0.48999999999999999;0.51000000000000001;0.0;0.0;1;4.142645466534759;11;50;24;1;
2019_03_15 12:50;33;4;0;timed;18;37;0;14;98;0;0;0.93000000000000005;0.070000000000000007;0.0;0.0;41;2;87;66;0.17999999999999999;0.48999999999999999;0.32000000000000001;0.010000000000000101;0;3.041715950901107;11;50;24;1;
2019_03_15 12:50;33;4;0;timed;19;12;1;53;68;0;0;0.31;0.68999999999999995;0.0;0.0;69;54;97;29;0.25;0.20999999999999999;0.20000000000000001;0.34000000000000002;0;1.6310263607583693;11;50;24;1;
2019_03_15 12:50;33;4;0;timed;20;126;1;16;55;51;42;0.68999999999999995;0.23999999999999999;0.01;0.060000000000000102;66;4;1;5;0.46999999999999997;0.38;0.089999999999999997;0.059999999999999998;0;3.3218811097481193;11;50;24;1;
2019_03_15 12:50;33;4;0;timed;21;88;1;77;13;12;7;0.12;0.19;0.66000000000000003;0.029999999999999898;94;2;0;0;0.40999999999999998;0.58999999999999997;0.0;0.0;0;3.6219563510594526;11;50;24;1;
2019_03_15 12:50;33;4;0;timed;22;1;0;22;51;0;0;0.26000000000000001;0.73999999999999999;0.0;0.0;14;11;92;31;0.29999999999999999;0.40999999999999998;0.14999999999999999;0.14000000000000001;0;3.022034222288312;11;50;24;1;
2019_03_15 12:50;33;4;0;timed;23;7;1;49;29;0;0;0.95999999999999996;0.040000000000000001;0.0;0.0;23;99;64;25;0.68999999999999995;0.12;0.059999999999999998;0.13;0;1.6708106048554328;11;50;24;1;
2019_03_15 12:50;33;4;0;timed;24;53;0;26;70;50;80;0.29999999999999999;0.59999999999999998;0.040000000000000001;0.059999999999999998;89;1;0;0;0.40999999999999998;0.58999999999999997;0.0;0.0;0;2.911959006635243;11;50;24;1;
2019_03_15 12:50;33;4;0;timed;25;146;0;25;5;64;35;0.94999999999999996;0.02;0.01;0.02;47;97;12;79;0.20999999999999999;0.029999999999999999;0.02;0.73999999999999999;1;4.062593971458682;11;50;24;1;
2019_03_15 12:50;33;4;0;timed;26;80;1;47;39;45;10;0.13;0.76000000000000001;0.059999999999999998;0.050000000000000003;2;87;0;0;0.48999999999999999;0.51000000000000001;0.0;0.0;0;4.072233582897297;11;50;24;1;
2019_03_15 12:50;33;4;0;timed;27;110;0;47;44;23;52;0.13;0.27000000000000002;0.040000000000000001;0.56000000000000005;99;2;30;22;0.28999999999999998;0.5;0.11;0.10000000000000001;1;3.232038622590153;11;50;24;1;
2019_03_15 12:50;33;4;0;timed;28;79;1;52;46;29;22;0.17999999999999999;0.51000000000000001;0.23999999999999999;0.070000000000000104;93;14;0;0;0.45000000000000001;0.55000000000000004;0.0;0.0;0;4.352801568200903;11;50;24;1;
2019_03_15 12:50;33;4;0;timed;29;115;1;50;28;61;79;0.83999999999999997;0.040000000000000001;0.059999999999999998;0.059999999999999998;1;26;97;55;0.45000000000000001;0.080000000000000002;0.40999999999999998;0.060000000000000102;0;3.0920310920446354;11;50;24;1;
2019_03_15 12:50;33;4;0;timed;30;99;0;8;24;15;73;0.56000000000000005;0.35999999999999999;0.070000000000000007;0.0099999999999999499;88;12;0;0;0.52000000000000002;0.47999999999999998;0.0;0.0;1;4.552918118467005;11;50;24;1;
2019_03_15 12:50;33;4;0;timed;31;47;1;2;40;0;0;0.45000000000000001;0.55000000000000004;0.0;0.0;93;89;11;56;0.58999999999999997;0.070000000000000007;0.28000000000000003;0.059999999999999998;1;2.4011279140772785;11;50;24;1;
2019_03_15 12:50;33;4;0;timed;32;48;1;13;32;0;0;0.90000000000000002;0.10000000000000001;0.0;0.0;24;99;84;94;0.62;0.14999999999999999;0.20000000000000001;0.029999999999999999;1;3.1415899714174884;11;50;24;1;
2019_03_15 12:50;33;4;0;timed;33;8;0;50;36;0;0;0.080000000000000002;0.92000000000000004;0.0;0.0;6;19;84;29;0.54000000000000004;0.070000000000000007;0.17000000000000001;0.22;0;2.49155507689602;11;50;24;1;
2019_03_15 12:50;33;4;0;timed;34;19;0;22;53;0;0;0.13;0.87;0.0;0.0;4;93;96;65;0.46999999999999997;0.059999999999999998;0.26000000000000001;0.20999999999999999;0;2.0913030537835766;11;50;24;1;
2019_03_15 12:50;33;4;0;timed;35;124;0;37;65;15;41;0.17999999999999999;0.45000000000000001;0.02;0.34999999999999998;40;7;98;30;0.070000000000000007;0.45000000000000001;0.45000000000000001;0.029999999999999898;0;5.513294235219746;11;50;24;1;
2019_03_15 12:50;33;4;0;timed;36;105;1;49;74;63;58;0.84999999999999998;0.080000000000000002;0.02;0.050000000000000003;97;5;86;8;0.25;0.52000000000000002;0.070000000000000007;0.16;0;2.321442362461312;11;50;24;1;
2019_03_15 12:50;33;4;0;timed;37;14;0;36;40;0;0;0.54000000000000004;0.46000000000000002;0.0;0.0;99;70;1;11;0.16;0.089999999999999997;0.080000000000000002;0.67000000000000004;0;1.5909977267247086;11;50;24;1;
2019_03_15 12:50;33;4;0;timed;38;120;0;64;40;48;51;0.19;0.02;0.070000000000000007;0.71999999999999997;97;9;79;94;0.23000000000000001;0.54000000000000004;0.01;0.22;0;3.472349299287089;11;50;24;1;
2019_03_15 12:50;33;4;0;timed;39;68;0;84;27;55;62;0.01;0.050000000000000003;0.40999999999999998;0.53000000000000003;9;82;0;0;0.37;0.63;0.0;0.0;0;4.472580218911844;11;50;24;1;
2019_03_15 12:50;33;4;0;timed;40;134;1;57;48;50;55;0.02;0.62;0.17999999999999999;0.17999999999999999;80;96;15;18;0.23999999999999999;0.35999999999999999;0.33000000000000002;0.070000000000000007;0;3.4823538920218198;11;50;24;1;
2019_03_15 12:50;33;4;0;timed;41;150;0;25;21;78;38;0.84999999999999998;0.059999999999999998;0.050000000000000003;0.040000000000000001;31;43;64;95;0.059999999999999998;0.45000000000000001;0.13;0.35999999999999999;0;3.482345232535863;11;50;24;1;
2019_03_15 12:50;33;4;0;timed;42;42;1;70;48;0;0;0.79000000000000004;0.20999999999999999;0.0;0.0;51;8;12;67;0.19;0.26000000000000001;0.28999999999999998;0.26000000000000001;0;2.8117661887486065;11;50;24;1;
2019_03_15 12:50;33;4;0;timed;43;131;1;83;41;81;88;0.23999999999999999;0.58999999999999997;0.10000000000000001;0.070000000000000007;82;97;4;17;0.26000000000000001;0.46999999999999997;0.11;0.16;1;4.8430795312847295;11;50;24;1;
2019_03_15 12:50;33;4;0;timed;44;127;0;89;26;62;79;0.02;0.28999999999999998;0.53000000000000003;0.16;96;6;60;13;0.53000000000000003;0.25;0.17000000000000001;0.050000000000000003;1;3.8325823100171874;11;50;24;1;
2019_03_15 12:50;33;4;0;timed;45;94;1;84;86;93;39;0.78000000000000003;0.20000000000000001;0.01;0.0099999999999999603;9;83;0;0;0.46999999999999997;0.53000000000000003;0.0;0.0;0;2.701350687370905;11;50;24;1;
2019_03_15 12:50;33;4;0;timed;46;147;0;39;43;76;28;0.14000000000000001;0.10000000000000001;0.10000000000000001;0.66000000000000003;6;31;68;85;0.27000000000000002;0.20000000000000001;0.22;0.31;1;3.562371711319429;11;50;24;1;
2019_03_15 12:50;33;4;0;timed;47;2;1;59;32;0;0;0.080000000000000002;0.92000000000000004;0.0;0.0;33;38;85;1;0.28999999999999998;0.050000000000000003;0.070000000000000007;0.58999999999999997;0;3.5118654200427954;11;50;24;1;
2019_03_15 12:50;33;4;0;timed;48;49;1;21;30;0;0;0.53000000000000003;0.46999999999999997;0.0;0.0;93;99;89;25;0.44;0.02;0.11;0.42999999999999999;1;2.821423760603011;11;50;24;1;
2019_03_15 12:50;33;4;0;timed;49;73;1;65;68;70;47;0.25;0.23000000000000001;0.20999999999999999;0.31;27;95;0;0;0.45000000000000001;0.55000000000000004;0.0;0.0;0;2.221389058515342;11;50;24;1;
2019_03_15 12:50;33;4;0;timed;50;31;0;10;59;0;0;0.23999999999999999;0.76000000000000001;0.0;0.0;1;79;53;73;0.23000000000000001;0.58999999999999997;0.050000000000000003;0.13;1;3.372140766037319;11;50;24;1;
2019_03_15 12:50;33;4;0;timed;51;29;1;44;51;0;0;0.78000000000000003;0.22;0.0;0.0;74;1;68;82;0.69999999999999996;0.28000000000000003;0.01;0.01;0;4.663116491253277;11;50;24;1;
2019_03_15 12:50;33;4;0;timed;52;56;0;28;84;37;41;0.68000000000000005;0.28000000000000003;0.02;0.0199999999999999;6;95;0;0;0.72999999999999998;0.27000000000000002;0.0;0.0;0;2.4315265583222754;11;50;24;1;
2019_03_15 12:50;33;4;0;timed;53;21;0;64;28;0;0;0.080000000000000002;0.92000000000000004;0.0;0.0;50;1;88;13;0.57999999999999996;0.13;0.02;0.27000000000000002;0;4.002203358084898;11;50;24;1;
2019_03_15 12:50;33;4;0;timed;54;136;1;29;67;14;75;0.46000000000000002;0.29999999999999999;0.20999999999999999;0.0300000000000001;70;86;1;85;0.31;0.39000000000000001;0.27000000000000002;0.029999999999999898;0;5.653607092824586;11;50;24;1;
2019_03_15 12:50;33;4;0;timed;55;23;1;54;40;0;0;0.93000000000000005;0.070000000000000007;0.0;0.0;36;23;71;86;0.02;0.41999999999999998;0.19;0.37;NA;6.10352255058433;11;50;24;1;
2019_03_15 12:50;33;4;0;timed;56;128;0;70;49;27;54;0.27000000000000002;0.53000000000000003;0.02;0.17999999999999999;72;97;6;20;0.29999999999999999;0.39000000000000001;0.22;0.0899999999999999;0;2.0818093707180196;11;50;24;1;
2019_03_15 12:50;33;4;0;timed;57;85;0;31;22;82;50;0.11;0.69999999999999996;0.01;0.17999999999999999;3;99;0;0;0.62;0.38;0.0;0.0;0;2.2113597702091283;11;50;24;1;
2019_03_15 12:50;33;4;0;timed;58;125;1;37;41;10;35;0.91000000000000003;0.040000000000000001;0.029999999999999999;0.02;7;13;91;93;0.26000000000000001;0.39000000000000001;0.16;0.19;0;3.32209567256632;11;50;24;1;
2019_03_15 12:50;33;4;0;timed;59;33;0;27;70;0;0;0.88;0.12;0.0;0.0;93;3;77;16;0.080000000000000002;0.40000000000000002;0.5;0.02;1;2.011246427160131;11;50;24;1;
2019_03_15 12:50;33;4;0;timed;60;36;0;70;17;0;0;0.33000000000000002;0.67000000000000004;0.0;0.0;84;1;12;88;0.22;0.27000000000000002;0.14000000000000001;0.37;0;3.641933785080255;11;50;24;1;
2019_03_15 12:50;33;4;0;timed;61;118;1;62;52;65;68;0.40999999999999998;0.44;0.10000000000000001;0.0500000000000001;79;20;14;37;0.56999999999999995;0.23999999999999999;0.14000000000000001;0.050000000000000003;0;2.3214397966880824;11;50;24;1;
2019_03_15 12:50;33;4;0;timed;62;55;1;74;55;47;48;0.60999999999999999;0.31;0.070000000000000007;0.01;97;6;0;0;0.42999999999999999;0.56999999999999995;0.0;0.0;0;2.20115953723689;11;50;24;1;
2019_03_15 12:50;33;4;0;timed;63;65;1;75;64;59;52;0.59999999999999998;0.22;0.14000000000000001;0.040000000000000001;1;99;0;0;0.35999999999999999;0.64000000000000001;0.0;0.0;0;1.7307150041306159;11;50;24;1;
2019_03_15 12:50;33;4;0;timed;64;107;0;52;48;13;63;0.68000000000000005;0.19;0.050000000000000003;0.079999999999999905;54;91;33;3;0.19;0.17999999999999999;0.33000000000000002;0.29999999999999999;0;2.841924291718442;11;50;24;1;
2019_03_15 12:50;33;4;0;timed;65;143;1;88;44;56;73;0.95999999999999996;0.02;0.01;0.01;20;3;87;32;0.19;0.40000000000000002;0.28000000000000003;0.13;0;2.301084873225136;11;50;24;1;
2019_03_15 12:50;33;4;0;timed;66;52;1;71;51;10;54;0.22;0.12;0.19;0.46999999999999997;91;1;0;0;0.29999999999999999;0.69999999999999996;0.0;0.0;0;2.511588637215027;11;50;24;1;
2019_03_15 12:50;33;4;0;timed;67;75;0;67;80;36;81;0.81999999999999995;0.080000000000000002;0.059999999999999998;0.040000000000000001;3;97;0;0;0.32000000000000001;0.68000000000000005;0.0;0.0;0;2.4315281619310554;11;50;24;1;
2019_03_15 12:50;33;4;0;timed;68;38;0;40;70;0;0;0.53000000000000003;0.46999999999999997;0.0;0.0;97;90;6;96;0.56999999999999995;0.070000000000000007;0.27000000000000002;0.089999999999999997;0;2.7518733354545475;11;50;24;1;
2019_03_15 12:50;33;4;0;timed;69;27;1;44;26;0;0;0.35999999999999999;0.64000000000000001;0.0;0.0;63;10;3;5;0.58999999999999997;0.19;0.14999999999999999;0.070000000000000007;0;2.531368506668514;11;50;24;1;
2019_03_15 12:50;33;4;0;timed;70;98;1;27;10;31;79;0.23000000000000001;0.67000000000000004;0.070000000000000007;0.029999999999999999;25;99;0;0;0.38;0.62;0.0;0.0;1;3.191644686539348;11;50;24;1;
2019_03_15 12:50;33;4;0;timed;71;101;1;30;96;61;45;0.65000000000000002;0.14000000000000001;0.11;0.10000000000000001;3;98;63;89;0.75;0.19;0.040000000000000001;0.02;0;3.112114684948665;11;50;24;1;
2019_03_15 12:50;33;4;0;timed;72;113;1;85;65;39;64;0.44;0.34000000000000002;0.13;0.089999999999999997;87;2;4;35;0.67000000000000004;0.17000000000000001;0.11;0.049999999999999899;0;4.07258445243815;11;50;24;1;
2019_03_15 12:50;33;4;0;timed;73;149;1;14;89;73;53;0.93999999999999995;0.01;0.01;0.040000000000000001;97;45;6;13;0.34000000000000002;0.01;0.40999999999999998;0.23999999999999999;1;4.062700451063392;11;50;24;1;
2019_03_15 12:50;33;4;0;timed;74;123;0;26;24;51;92;0.72999999999999998;0.16;0.070000000000000007;0.040000000000000001;6;90;82;49;0.64000000000000001;0.25;0.050000000000000003;0.059999999999999998;0;2.4016417102420746;11;50;24;1;
2019_03_15 12:50;33;4;0;timed;75;20;1;44;40;0;0;0.91000000000000003;0.089999999999999997;0.0;0.0;29;5;80;99;0.25;0.40000000000000002;0.26000000000000001;0.089999999999999997;0;2.871458911701211;11;50;24;1;
