date;id;block;order;cond;trial;gameid;leftright;oa1;oa2;oa3;oa4;pa1;pa2;pa3;pa4;ob1;ob2;ob3;ob4;pb1;pb2;pb3;pb4;choice;rt;paytrial;payout;alter;geschlecht;comment
2019_03_21 12:16;44;0;1;practice;1;71;0;94;87;26;75;0.71999999999999997;0.23999999999999999;0.02;0.02;90;27;12;83;0.16;0.73999999999999999;0.02;0.080000000000000002;0;15.38611213385039;63;52;21;2;nein
2019_03_21 12:16;44;0;1;practice;2;47;1;91;99;90;78;0.93000000000000005;0.040000000000000001;0.02;0.0099999999999999499;10;87;0;0;0.23000000000000001;0.77000000000000002;0.0;0.0;0;5.893742374890508;63;52;21;2;nein
2019_03_21 12:16;44;0;1;practice;3;61;0;51;48;56;88;0.91000000000000003;0.02;0.01;0.059999999999999998;78;21;14;82;0.55000000000000004;0.29999999999999999;0.070000000000000007;0.080000000000000002;0;7.5649088450629165;63;52;21;2;nein
2019_03_21 12:16;44;0;1;practice;4;48;0;20;25;24;35;0.32000000000000001;0.13;0.48999999999999999;0.059999999999999901;44;76;0;0;0.29999999999999999;0.69999999999999996;0.0;0.0;1;4.682942654044837;63;52;21;2;nein
2019_03_21 12:16;44;0;1;practice;5;27;1;68;43;98;36;0.54000000000000004;0.44;0.01;0.0099999999999999603;97;13;0;0;0.27000000000000002;0.72999999999999998;0.0;0.0;0;4.5929015762728795;63;52;21;2;nein
2019_03_21 12:16;44;0;1;practice;6;5;0;23;58;0;0;0.71999999999999997;0.28000000000000003;0.0;0.0;94;12;52;3;0.11;0.84999999999999998;0.029999999999999999;0.01;1;9.415992620882434;63;52;21;2;nein
2019_03_21 12:16;44;0;1;practice;7;42;1;23;45;91;22;0.72999999999999998;0.02;0.20000000000000001;0.050000000000000003;2;86;0;0;0.40999999999999998;0.58999999999999997;0.0;0.0;0;7.43464086455748;63;52;21;2;nein
2019_03_21 12:16;44;0;1;practice;8;56;1;47;52;64;10;0.77000000000000002;0.040000000000000001;0.11;0.080000000000000002;1;5;12;99;0.14000000000000001;0.28999999999999998;0.27000000000000002;0.29999999999999999;0;6.924529215635232;63;52;21;2;nein
2019_03_21 12:16;44;0;1;practice;9;51;1;38;13;51;84;0.91000000000000003;0.070000000000000007;0.01;0.0099999999999999603;4;89;35;16;0.80000000000000004;0.089999999999999997;0.059999999999999998;0.050000000000000003;0;7.344803443759247;63;52;21;2;nein
2019_03_21 12:16;44;0;1;practice;10;22;1;84;87;0;0;0.17000000000000001;0.82999999999999996;0.0;0.0;3;24;41;83;0.68000000000000005;0.11;0.10000000000000001;0.11;0;3.9924775207601897;63;52;21;2;nein
2019_03_21 12:16;44;0;1;practice;11;45;0;37;40;75;23;0.54000000000000004;0.38;0.059999999999999998;0.02;1;90;0;0;0.28000000000000003;0.71999999999999997;0.0;0.0;0;3.870714063043181;63;52;21;2;nein
2019_03_21 12:16;44;0;1;practice;12;73;0;99;88;95;28;0.83999999999999997;0.14000000000000001;0.01;0.01;90;93;10;74;0.080000000000000002;0.46000000000000002;0.34999999999999998;0.11;0;5.343543977718923;63;52;21;2;nein
2019_03_21 12:16;44;0;1;practice;13;53;0;47;24;95;38;0.57999999999999996;0.28000000000000003;0.02;0.12;8;22;93;96;0.54000000000000004;0.34000000000000002;0.10000000000000001;0.0199999999999999;0;5.97532383062412;63;52;21;2;nein
2019_03_21 12:16;44;0;1;practice;14;38;0;51;89;10;60;0.57999999999999996;0.029999999999999999;0.080000000000000002;0.31;8;84;0;0;0.33000000000000002;0.67000000000000004;0.0;0.0;0;6.323893164438061;63;52;21;2;nein
2019_03_21 12:16;44;0;1;practice;15;43;0;11;17;21;44;0.16;0.46000000000000002;0.25;0.13;2;66;0;0;0.44;0.56000000000000005;0.0;0.0;0;5.5236931636683835;63;52;21;2;nein
2019_03_21 12:16;44;0;1;practice;16;24;0;19;38;0;0;0.89000000000000001;0.11;0.0;0.0;45;76;95;57;0.29999999999999999;0.22;0.40000000000000002;0.080000000000000002;1;2.981793066554417;63;52;21;2;nein
2019_03_21 12:16;44;0;1;practice;17;41;1;19;54;51;8;0.76000000000000001;0.070000000000000007;0.16;0.0099999999999999794;2;77;0;0;0.54000000000000004;0.46000000000000002;0.0;0.0;1;6.094011586959255;63;52;21;2;nein
2019_03_21 12:16;44;0;1;practice;18;15;1;24;59;0;0;0.56999999999999995;0.42999999999999999;0.0;0.0;9;8;80;22;0.31;0.10000000000000001;0.55000000000000004;0.039999999999999897;0;3.4723562117621896;63;52;21;2;nein
2019_03_21 12:16;44;0;1;practice;19;69;0;38;74;27;73;0.22;0.19;0.45000000000000001;0.14000000000000001;1;97;79;84;0.28000000000000003;0.45000000000000001;0.17000000000000001;0.10000000000000001;0;5.653551264469229;63;52;21;2;nein
2019_03_21 12:16;44;0;1;practice;20;10;0;34;59;0;0;0.16;0.83999999999999997;0.0;0.0;21;61;96;7;0.19;0.01;0.5;0.29999999999999999;0;8.075134990897993;63;52;21;2;nein
2019_03_21 12:16;44;0;1;practice;21;19;1;25;73;0;0;0.69999999999999996;0.29999999999999999;0.0;0.0;87;84;1;86;0.040000000000000001;0.59999999999999998;0.28000000000000003;0.080000000000000002;0;8.47568015014815;63;52;21;2;nein
2019_03_21 12:16;44;0;1;practice;22;64;0;44;60;96;45;0.53000000000000003;0.10000000000000001;0.029999999999999999;0.34000000000000002;88;20;43;31;0.47999999999999998;0.38;0.050000000000000003;0.089999999999999997;0;8.815586846389408;63;52;21;2;nein
2019_03_21 12:16;44;0;1;practice;23;62;0;65;52;74;55;0.16;0.12;0.14999999999999999;0.56999999999999995;72;86;2;68;0.12;0.53000000000000003;0.22;0.13;0;5.2034161132114605;63;52;21;2;nein
2019_03_21 12:16;44;0;1;practice;24;67;0;74;31;10;77;0.11;0.070000000000000007;0.77000000000000002;0.050000000000000003;2;23;8;97;0.56999999999999995;0.01;0.059999999999999998;0.35999999999999999;0;4.773206952688724;63;52;21;2;nein
2019_03_21 12:16;44;0;1;practice;25;7;1;13;31;0;0;0.51000000000000001;0.48999999999999999;0.0;0.0;8;79;42;18;0.85999999999999999;0.089999999999999997;0.02;0.029999999999999999;1;6.274013562592302;63;52;21;2;nein
2019_03_21 12:16;44;0;1;practice;26;74;1;36;46;10;12;0.11;0.19;0.65000000000000002;0.049999999999999899;92;24;79;19;0.51000000000000001;0.40999999999999998;0.02;0.059999999999999998;1;2.681804740749442;63;52;21;2;nein
2019_03_21 12:16;44;0;1;practice;27;50;1;17;12;21;14;0.55000000000000004;0.34000000000000002;0.059999999999999998;0.049999999999999899;13;93;0;0;0.28999999999999998;0.70999999999999996;0.0;0.0;1;3.0719095134426766;63;52;21;2;nein
2019_03_21 12:16;44;0;1;practice;28;33;0;54;82;55;71;0.56000000000000005;0.20999999999999999;0.02;0.20999999999999999;13;99;0;0;0.5;0.5;0.0;0.0;0;3.332206217599321;63;52;21;2;nein
2019_03_21 12:16;44;0;1;practice;29;35;0;84;95;4;35;0.89000000000000001;0.050000000000000003;0.01;0.050000000000000003;5;98;0;0;0.19;0.81000000000000005;0.0;0.0;0;4.552848824305897;63;52;21;2;nein
2019_03_21 12:16;44;0;1;practice;30;16;1;50;42;0;0;0.32000000000000001;0.68000000000000005;0.0;0.0;97;2;56;31;0.35999999999999999;0.16;0.16;0.32000000000000001;0;3.4322059610236124;63;52;21;2;nein
2019_03_21 12:16;44;0;1;practice;31;75;1;21;86;27;62;0.88;0.040000000000000001;0.070000000000000007;0.0099999999999999794;13;3;49;87;0.28999999999999998;0.39000000000000001;0.070000000000000007;0.25;0;4.282695443343584;63;52;21;2;nein
2019_03_21 12:16;44;0;1;practice;32;25;0;7;18;0;0;0.20999999999999999;0.79000000000000004;0.0;0.0;92;45;33;13;0.41999999999999998;0.17999999999999999;0.22;0.17999999999999999;1;3.191990155189842;63;52;21;2;nein
2019_03_21 12:16;44;0;1;practice;33;4;1;40;59;0;0;0.19;0.81000000000000005;0.0;0.0;10;88;13;45;0.56000000000000005;0.28999999999999998;0.01;0.14000000000000001;0;4.432813724748144;63;52;21;2;nein
2019_03_21 12:16;44;0;1;practice;34;1;1;67;36;0;0;0.14999999999999999;0.84999999999999998;0.0;0.0;1;4;81;77;0.25;0.54000000000000004;0.14000000000000001;0.070000000000000007;0;5.7937859286180355;63;52;21;2;nein
2019_03_21 12:16;44;0;1;practice;35;2;0;41;60;0;0;0.97999999999999998;0.02;0.0;0.0;10;14;97;6;0.54000000000000004;0.17000000000000001;0.12;0.17000000000000001;0;8.515377865469645;63;52;21;2;nein
2019_03_21 12:16;44;0;1;practice;36;49;0;14;31;42;22;0.77000000000000002;0.089999999999999997;0.02;0.12;87;28;0;0;0.68000000000000005;0.32000000000000001;0.0;0.0;1;2.911799532262478;63;52;21;2;nein
2019_03_21 12:16;44;0;1;practice;37;39;1;53;65;48;75;0.92000000000000004;0.029999999999999999;0.01;0.040000000000000001;16;83;0;0;0.31;0.68999999999999995;0.0;0.0;0;5.64368304175639;63;52;21;2;nein
2019_03_21 12:16;44;0;1;practice;38;57;0;39;68;59;91;0.73999999999999999;0.040000000000000001;0.14999999999999999;0.070000000000000007;9;22;40;84;0.29999999999999999;0.32000000000000001;0.040000000000000001;0.34000000000000002;0;3.7223475523318257;63;52;21;2;nein
2019_03_21 12:16;44;0;1;practice;39;13;1;15;25;0;0;0.29999999999999999;0.69999999999999996;0.0;0.0;3;43;35;73;0.44;0.40000000000000002;0.01;0.14999999999999999;1;2.1517706290081833;63;52;21;2;nein
2019_03_21 12:16;44;0;1;practice;40;12;1;45;86;0;0;0.97999999999999998;0.02;0.0;0.0;6;23;95;81;0.14999999999999999;0.40999999999999998;0.050000000000000003;0.39000000000000001;0;3.242007025043108;63;52;21;2;nein
2019_03_21 12:16;44;0;1;practice;41;17;1;27;61;0;0;0.68999999999999995;0.31;0.0;0.0;3;91;69;43;0.29999999999999999;0.33000000000000002;0.27000000000000002;0.099999999999999895;0;3.232152593274918;63;52;21;2;nein
2019_03_21 12:16;44;0;1;practice;42;14;0;92;56;0;0;0.11;0.89000000000000001;0.0;0.0;97;31;51;4;0.58999999999999997;0.22;0.080000000000000002;0.11;0;1.7512341291884468;63;52;21;2;nein
2019_03_21 12:16;44;0;1;practice;43;52;1;17;61;57;59;0.070000000000000007;0.050000000000000003;0.33000000000000002;0.55000000000000004;12;93;94;62;0.71999999999999997;0.16;0.080000000000000002;0.040000000000000001;1;3.0420283849713314;63;52;21;2;nein
2019_03_21 12:16;44;0;1;practice;44;6;0;42;59;0;0;0.35999999999999999;0.64000000000000001;0.0;0.0;77;19;6;7;0.44;0.14999999999999999;0.17999999999999999;0.23000000000000001;0;2.3914784149266097;63;52;21;2;nein
2019_03_21 12:16;44;0;1;practice;45;18;1;47;36;0;0;0.089999999999999997;0.91000000000000003;0.0;0.0;2;44;81;9;0.20000000000000001;0.25;0.51000000000000001;0.040000000000000001;0;2.1414405700086263;63;52;21;2;nein
2019_03_21 12:16;44;0;1;practice;46;3;1;20;70;0;0;0.13;0.87;0.0;0.0;95;19;80;73;0.31;0.57999999999999996;0.029999999999999999;0.080000000000000002;0;6.714235911106812;63;52;21;2;nein
2019_03_21 12:16;44;0;1;practice;47;65;1;35;15;77;1;0.62;0.33000000000000002;0.029999999999999999;0.02;68;3;25;96;0.38;0.28000000000000003;0.28000000000000003;0.059999999999999901;1;3.8924675143073273;63;52;21;2;nein
2019_03_21 12:16;44;0;1;practice;48;55;0;53;11;80;74;0.31;0.37;0.28000000000000003;0.039999999999999897;6;93;98;96;0.69999999999999996;0.22;0.050000000000000003;0.029999999999999999;0;3.362134491858228;63;52;21;2;nein
2019_03_21 12:16;44;0;1;practice;49;9;1;57;44;0;0;0.14999999999999999;0.84999999999999998;0.0;0.0;38;35;64;95;0.34000000000000002;0.45000000000000001;0.089999999999999997;0.12;1;3.59226494778045;63;52;21;2;nein
2019_03_21 12:16;44;0;1;practice;50;54;1;69;80;22;55;0.27000000000000002;0.31;0.059999999999999998;0.35999999999999999;52;2;49;90;0.059999999999999998;0.33000000000000002;0.20000000000000001;0.40999999999999998;0;4.0127078744369555;63;52;21;2;nein
2019_03_21 12:16;44;0;1;practice;51;30;1;54;78;85;25;0.20999999999999999;0.60999999999999999;0.089999999999999997;0.090000000000000094;87;20;0;0;0.58999999999999997;0.40999999999999998;0.0;0.0;0;2.59160458603435;63;52;21;2;nein
2019_03_21 12:16;44;0;1;practice;52;63;1;24;82;6;96;0.91000000000000003;0.070000000000000007;0.01;0.0099999999999999603;73;10;71;22;0.31;0.51000000000000001;0.050000000000000003;0.13;1;3.4521656273211647;63;52;21;2;nein
2019_03_21 12:16;44;0;1;practice;53;8;1;20;44;0;0;0.26000000000000001;0.73999999999999999;0.0;0.0;99;3;69;24;0.20999999999999999;0.60999999999999999;0.12;0.060000000000000102;0;2.431691205995662;63;52;21;2;nein
2019_03_21 12:16;44;0;1;practice;54;46;1;79;57;98;81;0.67000000000000004;0.070000000000000007;0.20999999999999999;0.050000000000000003;1;76;0;0;0.56000000000000005;0.44;0.0;0.0;0;3.87266435919571;63;52;21;2;nein
2019_03_21 12:16;44;0;1;practice;55;32;0;21;86;16;78;0.45000000000000001;0.41999999999999998;0.050000000000000003;0.080000000000000099;95;9;0;0;0.42999999999999999;0.56999999999999995;0.0;0.0;0;3.402099366642915;63;52;21;2;nein
2019_03_21 12:16;44;0;1;practice;56;70;0;21;42;14;63;0.96999999999999997;0.01;0.01;0.01;70;2;6;76;0.23999999999999999;0.42999999999999999;0.01;0.32000000000000001;0;4.242878099594918;63;52;21;2;nein
2019_03_21 12:16;44;0;1;practice;57;60;0;39;93;27;78;0.85999999999999999;0.02;0.11;0.01;22;5;62;95;0.059999999999999998;0.56999999999999995;0.14000000000000001;0.23000000000000001;0;6.774459042177227;63;52;21;2;nein
2019_03_21 12:16;44;0;1;practice;58;29;0;66;40;92;49;0.46999999999999997;0.10000000000000001;0.34000000000000002;0.089999999999999997;8;94;0;0;0.44;0.56000000000000005;0.0;0.0;0;5.8437017717835715;63;52;21;2;nein
2019_03_21 12:16;44;0;1;practice;59;58;1;44;50;85;42;0.38;0.57999999999999996;0.02;0.02;37;88;19;12;0.20000000000000001;0.29999999999999999;0.46000000000000002;0.040000000000000001;0;5.683721682059058;63;52;21;2;nein
2019_03_21 12:16;44;0;1;practice;60;26;1;24;46;74;59;0.29999999999999999;0.11;0.25;0.34000000000000002;91;6;0;0;0.28999999999999998;0.70999999999999996;0.0;0.0;0;3.031859327232837;63;52;21;2;nein
2019_03_21 12:16;44;0;1;practice;61;20;1;32;11;0;0;0.40999999999999998;0.58999999999999997;0.0;0.0;1;86;42;65;0.45000000000000001;0.38;0.050000000000000003;0.12;1;3.0620589303101724;63;52;21;2;nein
2019_03_21 12:16;44;0;1;practice;62;37;1;50;66;99;12;0.26000000000000001;0.71999999999999997;0.01;0.01;22;90;0;0;0.37;0.63;0.0;0.0;0;4.3927138269935995;63;52;21;2;nein
2019_03_21 12:16;44;0;1;practice;63;28;0;37;83;75;8;0.83999999999999997;0.070000000000000007;0.01;0.080000000000000002;94;2;0;0;0.19;0.81000000000000005;0.0;0.0;0;2.711692925052944;63;52;21;2;nein
2019_03_21 12:16;44;0;1;practice;64;21;1;59;69;0;0;0.34000000000000002;0.66000000000000003;0.0;0.0;64;18;5;24;0.14999999999999999;0.040000000000000001;0.51000000000000001;0.29999999999999999;0;2.311446676510627;63;52;21;2;nein
2019_03_21 12:16;44;0;1;practice;65;66;1;44;18;63;36;0.47999999999999998;0.10000000000000001;0.029999999999999999;0.39000000000000001;13;93;61;53;0.52000000000000002;0.45000000000000001;0.02;0.0099999999999999707;1;6.884497631164777;63;52;21;2;nein
2019_03_21 12:16;44;0;1;practice;66;68;1;39;58;40;8;0.48999999999999999;0.44;0.02;0.050000000000000003;92;83;51;2;0.57999999999999996;0.13;0.02;0.27000000000000002;0;4.282825976238541;63;52;21;2;nein
2019_03_21 12:16;44;0;1;practice;67;31;1;72;59;40;92;0.59999999999999998;0.34999999999999998;0.02;0.029999999999999999;97;29;0;0;0.38;0.62;0.0;0.0;0;3.752535288782383;63;52;21;2;nein
2019_03_21 12:16;44;0;1;practice;68;36;1;56;89;86;77;0.66000000000000003;0.080000000000000002;0.14999999999999999;0.11;29;91;0;0;0.40999999999999998;0.58999999999999997;0.0;0.0;1;2.8719388913619923;63;52;21;2;nein
2019_03_21 12:16;44;0;1;practice;69;23;0;99;93;0;0;0.57999999999999996;0.41999999999999998;0.0;0.0;64;10;80;81;0.13;0.55000000000000004;0.02;0.29999999999999999;0;1.8312507937811233;63;52;21;2;nein
2019_03_21 12:16;44;0;1;practice;70;59;1;13;27;48;51;0.56999999999999995;0.13;0.13;0.17000000000000001;8;37;97;1;0.65000000000000002;0.16;0.14999999999999999;0.040000000000000001;1;5.883863247709769;63;52;21;2;nein
2019_03_21 12:16;44;0;1;practice;71;40;0;29;65;30;41;0.70999999999999996;0.01;0.14999999999999999;0.13;2;59;0;0;0.32000000000000001;0.68000000000000005;0.0;0.0;0;4.5129852969287185;63;52;21;2;nein
2019_03_21 12:16;44;0;1;practice;72;34;0;57;23;66;79;0.56000000000000005;0.23000000000000001;0.13;0.079999999999999905;85;9;0;0;0.56000000000000005;0.44;0.0;0.0;0;5.313366504296937;63;52;21;2;nein
2019_03_21 12:16;44;0;1;practice;73;44;1;69;48;22;63;0.39000000000000001;0.40999999999999998;0.19;0.01;1;94;0;0;0.22;0.78000000000000003;0.0;0.0;0;2.5615877931537625;63;52;21;2;nein
2019_03_21 12:16;44;0;1;practice;74;11;1;10;44;0;0;0.48999999999999999;0.51000000000000001;0.0;0.0;88;12;54;50;0.17000000000000001;0.75;0.02;0.059999999999999998;1;4.593016073185709;63;52;21;2;nein
2019_03_21 12:16;44;0;1;practice;75;72;0;86;85;97;43;0.51000000000000001;0.14999999999999999;0.33000000000000002;0.0099999999999999499;72;29;10;90;0.01;0.11;0.65000000000000002;0.23000000000000001;0;3.2420230610251792;63;52;21;2;nein
2019_03_21 12:16;44;1;1;timed;1;41;1;99;40;0;0;0.89000000000000001;0.11;0.0;0.0;1;67;52;46;0.51000000000000001;0.38;0.029999999999999999;0.080000000000000002;0;1.8701120722722635;63;52;21;2;nein
2019_03_21 12:16;44;1;1;timed;2;139;1;44;31;16;8;0.79000000000000004;0.070000000000000007;0.13;0.0099999999999999499;92;58;2;88;0.55000000000000004;0.070000000000000007;0.34000000000000002;0.039999999999999897;1;2.8517855103996226;63;52;21;2;nein
2019_03_21 12:16;44;1;1;timed;3;99;0;8;24;15;73;0.56000000000000005;0.35999999999999999;0.070000000000000007;0.0099999999999999499;88;12;0;0;0.52000000000000002;0.47999999999999998;0.0;0.0;1;1.7710956552751895;63;52;21;2;nein
2019_03_21 12:16;44;1;1;timed;4;28;0;47;30;0;0;0.97999999999999998;0.02;0.0;0.0;55;48;77;13;0.070000000000000007;0.26000000000000001;0.42999999999999999;0.23999999999999999;1;1.981224430626412;63;52;21;2;nein
2019_03_21 12:16;44;1;1;timed;5;128;0;70;49;27;54;0.27000000000000002;0.53000000000000003;0.02;0.17999999999999999;72;97;6;20;0.29999999999999999;0.39000000000000001;0.22;0.0899999999999999;0;2.5617552088076536;63;52;21;2;nein
2019_03_21 12:16;44;1;1;timed;6;46;1;5;19;0;0;0.32000000000000001;0.68000000000000005;0.0;0.0;88;38;97;66;0.60999999999999999;0.20000000000000001;0.040000000000000001;0.14999999999999999;1;2.3517024440119485;63;52;21;2;nein
2019_03_21 12:16;44;1;1;timed;7;62;1;12;45;16;50;0.20999999999999999;0.76000000000000001;0.02;0.01;92;15;0;0;0.20999999999999999;0.79000000000000004;0.0;0.0;0;2.161499659395645;63;52;21;2;nein
2019_03_21 12:16;44;1;1;timed;8;50;1;15;20;0;0;0.82999999999999996;0.17000000000000001;0.0;0.0;97;18;88;87;0.56999999999999995;0.39000000000000001;0.01;0.029999999999999999;NA;3.2220454344276277;63;52;21;2;nein
2019_03_21 12:16;44;1;1;timed;9;33;1;27;70;0;0;0.88;0.12;0.0;0.0;93;3;77;16;0.080000000000000002;0.40000000000000002;0.5;0.02;1;1.611621661148206;63;52;21;2;nein
2019_03_21 12:16;44;1;1;timed;10;36;1;70;17;0;0;0.33000000000000002;0.67000000000000004;0.0;0.0;84;1;12;88;0.22;0.27000000000000002;0.14000000000000001;0.37;0;1.5110420566082894;63;52;21;2;nein
2019_03_21 12:16;44;1;1;timed;11;37;0;14;98;0;0;0.93000000000000005;0.070000000000000007;0.0;0.0;41;2;87;66;0.17999999999999999;0.48999999999999999;0.32000000000000001;0.010000000000000101;1;1.951161133397477;63;52;21;2;nein
2019_03_21 12:16;44;1;1;timed;12;60;0;64;59;57;96;0.83999999999999997;0.13;0.02;0.01;83;6;0;0;0.54000000000000004;0.46000000000000002;0.0;0.0;0;1.4308797852974067;63;52;21;2;nein
2019_03_21 12:16;44;1;1;timed;13;55;0;74;55;47;48;0.60999999999999999;0.31;0.070000000000000007;0.01;97;6;0;0;0.42999999999999999;0.56999999999999995;0.0;0.0;0;1.540917732845628;63;52;21;2;nein
2019_03_21 12:16;44;1;1;timed;14;104;0;55;85;93;3;0.87;0.02;0.089999999999999997;0.02;1;2;90;8;0.35999999999999999;0.070000000000000007;0.40000000000000002;0.17000000000000001;0;1.6011004532409743;63;52;21;2;nein
2019_03_21 12:16;44;1;1;timed;15;77;1;24;17;99;41;0.17999999999999999;0.13;0.10000000000000001;0.58999999999999997;12;97;0;0;0.59999999999999998;0.40000000000000002;0.0;0.0;0;1.7510506775522572;63;52;21;2;nein
2019_03_21 12:16;44;1;1;timed;16;81;0;67;38;52;65;0.27000000000000002;0.35999999999999999;0.01;0.35999999999999999;2;77;0;0;0.14000000000000001;0.85999999999999999;0.0;0.0;0;1.6710490867828867;63;52;21;2;nein
2019_03_21 12:16;44;1;1;timed;17;10;0;45;62;0;0;0.059999999999999998;0.93999999999999995;0.0;0.0;17;99;28;67;0.58999999999999997;0.34000000000000002;0.01;0.059999999999999998;1;1.2407716129760047;63;52;21;2;nein
2019_03_21 12:16;44;1;1;timed;18;40;1;45;49;0;0;0.68999999999999995;0.31;0.0;0.0;2;92;65;73;0.23999999999999999;0.59999999999999998;0.11;0.050000000000000003;1;1.1106781039568432;63;52;21;2;nein
2019_03_21 12:16;44;1;1;timed;19;87;0;10;30;63;4;0.56999999999999995;0.12;0.16;0.14999999999999999;86;2;0;0;0.42999999999999999;0.56999999999999995;0.0;0.0;0;1.6309828645908055;63;52;21;2;nein
2019_03_21 12:16;44;1;1;timed;20;4;0;40;43;0;0;0.58999999999999997;0.40999999999999998;0.0;0.0;2;33;88;81;0.69999999999999996;0.14000000000000001;0.13;0.029999999999999999;0;1.6310075600033542;63;52;21;2;nein
2019_03_21 12:16;44;1;1;timed;21;127;0;89;26;62;79;0.02;0.28999999999999998;0.53000000000000003;0.16;96;6;60;13;0.53000000000000003;0.25;0.17000000000000001;0.050000000000000003;0;2.0112277532819007;63;52;21;2;nein
2019_03_21 12:16;44;1;1;timed;22;112;1;70;44;98;64;0.02;0.75;0.12;0.11;33;2;63;85;0.23999999999999999;0.31;0.080000000000000002;0.37;0;1.4409673802465477;63;52;21;2;nein
2019_03_21 12:16;44;1;1;timed;23;66;1;89;23;27;15;0.070000000000000007;0.54000000000000004;0.17000000000000001;0.22;9;73;0;0;0.72999999999999998;0.27000000000000002;0.0;0.0;0;1.3008026329799804;63;52;21;2;nein
2019_03_21 12:16;44;1;1;timed;24;45;0;97;87;0;0;0.71999999999999997;0.28000000000000003;0.0;0.0;96;11;14;4;0.25;0.029999999999999999;0.14000000000000001;0.57999999999999996;0;1.1908115104997705;63;52;21;2;nein
2019_03_21 12:16;44;1;1;timed;25;97;1;17;33;32;74;0.94999999999999996;0.01;0.029999999999999999;0.01;76;23;0;0;0.33000000000000002;0.67000000000000004;0.0;0.0;0;1.3309169246321062;63;52;21;2;nein
2019_03_21 12:16;44;1;1;timed;26;73;1;65;68;70;47;0.25;0.23000000000000001;0.20999999999999999;0.31;27;95;0;0;0.45000000000000001;0.55000000000000004;0.0;0.0;0;1.5109326912097458;63;52;21;2;nein
2019_03_21 12:16;44;1;1;timed;27;57;0;52;35;23;47;0.22;0.68000000000000005;0.040000000000000001;0.059999999999999998;71;7;0;0;0.28999999999999998;0.70999999999999996;0.0;0.0;0;1.420876218895046;63;52;21;2;nein
2019_03_21 12:16;44;1;1;timed;28;22;0;32;55;0;0;0.39000000000000001;0.60999999999999999;0.0;0.0;93;72;59;22;0.20000000000000001;0.11;0.14000000000000001;0.55000000000000004;1;1.3108052372234624;63;52;21;2;nein
2019_03_21 12:16;44;1;1;timed;29;74;1;66;47;52;44;0.41999999999999998;0.26000000000000001;0.17999999999999999;0.14000000000000001;17;99;0;0;0.47999999999999998;0.52000000000000002;0.0;0.0;0;1.7110380155407938;63;52;21;2;nein
2019_03_21 12:16;44;1;1;timed;30;78;0;74;36;34;3;0.14999999999999999;0.64000000000000001;0.13;0.080000000000000002;1;83;0;0;0.41999999999999998;0.57999999999999996;0.0;0.0;0;2.151340223246507;63;52;21;2;nein
2019_03_21 12:16;44;1;1;timed;31;42;0;70;48;0;0;0.79000000000000004;0.20999999999999999;0.0;0.0;51;8;12;67;0.19;0.26000000000000001;0.28999999999999998;0.26000000000000001;0;2.031263430135027;63;52;21;2;nein
2019_03_21 12:16;44;1;1;timed;32;31;1;10;59;0;0;0.23999999999999999;0.76000000000000001;0.0;0.0;1;79;53;73;0.23000000000000001;0.58999999999999997;0.050000000000000003;0.13;1;2.301415528218854;63;52;21;2;nein
2019_03_21 12:16;44;1;1;timed;33;71;0;68;55;36;51;0.20000000000000001;0.75;0.02;0.029999999999999999;38;81;0;0;0.52000000000000002;0.47999999999999998;0.0;0.0;0;1.9912405050949928;63;52;21;2;nein
2019_03_21 12:16;44;1;1;timed;34;133;1;59;88;60;36;0.67000000000000004;0.070000000000000007;0.12;0.14000000000000001;7;91;66;61;0.25;0.68999999999999995;0.01;0.0500000000000001;0;1.6810266748941558;63;52;21;2;nein
2019_03_21 12:16;44;1;1;timed;35;80;0;47;39;45;10;0.13;0.76000000000000001;0.059999999999999998;0.050000000000000003;2;87;0;0;0.48999999999999999;0.51000000000000001;0.0;0.0;0;1.4309907542941573;63;52;21;2;nein
2019_03_21 12:16;44;1;1;timed;36;69;0;54;34;64;49;0.34000000000000002;0.25;0.20999999999999999;0.20000000000000001;14;98;0;0;0.62;0.38;0.0;0.0;0;1.3408159364308858;63;52;21;2;nein
2019_03_21 12:16;44;1;1;timed;37;149;0;14;89;73;53;0.93999999999999995;0.01;0.01;0.040000000000000001;97;45;6;13;0.34000000000000002;0.01;0.40999999999999998;0.23999999999999999;0;2.4415135657994824;63;52;21;2;nein
2019_03_21 12:16;44;1;1;timed;38;117;0;65;85;92;41;0.23000000000000001;0.17999999999999999;0.54000000000000004;0.050000000000000003;99;93;10;13;0.64000000000000001;0.16;0.01;0.19;1;2.681824304647648;63;52;21;2;nein
2019_03_21 12:16;44;1;1;timed;39;92;0;90;86;65;94;0.16;0.34000000000000002;0.28000000000000003;0.22;79;22;0;0;0.35999999999999999;0.64000000000000001;0.0;0.0;0;1.3508255965064109;63;52;21;2;nein
2019_03_21 12:16;44;1;1;timed;40;17;0;81;52;0;0;0.059999999999999998;0.93999999999999995;0.0;0.0;34;3;69;41;0.01;0.22;0.75;0.02;0;1.8811605432733813;63;52;21;2;nein
2019_03_21 12:16;44;1;1;timed;41;95;1;93;88;68;85;0.83999999999999997;0.14000000000000001;0.01;0.01;2;82;0;0;0.41999999999999998;0.57999999999999996;0.0;0.0;0;1.4316831880045129;63;52;21;2;nein
2019_03_21 12:16;44;1;1;timed;42;18;1;68;50;0;0;0.029999999999999999;0.96999999999999997;0.0;0.0;34;64;15;89;0.65000000000000002;0.029999999999999999;0.050000000000000003;0.27000000000000002;0;1.8711425444870429;63;52;21;2;nein
2019_03_21 12:16;44;1;1;timed;43;116;1;53;65;43;99;0.56999999999999995;0.37;0.050000000000000003;0.010000000000000101;57;72;11;87;0.67000000000000004;0.13;0.14999999999999999;0.050000000000000003;0;1.6411506394508706;63;52;21;2;nein
2019_03_21 12:16;44;1;1;timed;44;14;0;36;40;0;0;0.54000000000000004;0.46000000000000002;0.0;0.0;99;70;1;11;0.16;0.089999999999999997;0.080000000000000002;0.67000000000000004;0;1.87124228829623;63;52;21;2;nein
2019_03_21 12:16;44;1;1;timed;45;147;0;39;43;76;28;0.14000000000000001;0.10000000000000001;0.10000000000000001;0.66000000000000003;6;31;68;85;0.27000000000000002;0.20000000000000001;0.22;0.31;0;2.0013653035226753;63;52;21;2;nein
2019_03_21 12:16;44;1;1;timed;46;124;1;37;65;15;41;0.17999999999999999;0.45000000000000001;0.02;0.34999999999999998;40;7;98;30;0.070000000000000007;0.45000000000000001;0.45000000000000001;0.029999999999999898;0;1.3209223383797735;63;52;21;2;nein
2019_03_21 12:16;44;1;1;timed;47;19;1;22;53;0;0;0.13;0.87;0.0;0.0;4;93;96;65;0.46999999999999997;0.059999999999999998;0.26000000000000001;0.20999999999999999;0;1.9912972724717974;63;52;21;2;nein
2019_03_21 12:16;44;1;1;timed;48;63;0;56;78;42;36;0.93000000000000005;0.040000000000000001;0.01;0.0199999999999999;2;72;0;0;0.32000000000000001;0.68000000000000005;0.0;0.0;0;1.7514939120997042;63;52;21;2;nein
2019_03_21 12:16;44;1;1;timed;49;26;0;76;41;0;0;0.57999999999999996;0.41999999999999998;0.0;0.0;61;79;84;2;0.13;0.029999999999999999;0.67000000000000004;0.17000000000000001;0;2.1213038664677697;63;52;21;2;nein
2019_03_21 12:16;44;1;1;timed;50;72;1;63;82;51;61;0.01;0.96999999999999997;0.01;0.01;92;12;0;0;0.89000000000000001;0.11;0.0;0.0;0;1.5511076373609285;63;52;21;2;nein
2019_03_21 12:16;44;1;1;timed;51;44;0;79;74;0;0;0.71999999999999997;0.28000000000000003;0.0;0.0;3;67;15;36;0.41999999999999998;0.53000000000000003;0.02;0.029999999999999999;0;1.5009300869663775;63;52;21;2;nein
2019_03_21 12:16;44;1;1;timed;52;150;1;25;21;78;38;0.84999999999999998;0.059999999999999998;0.050000000000000003;0.040000000000000001;31;43;64;95;0.059999999999999998;0.45000000000000001;0.13;0.35999999999999999;1;1.7211756427542468;63;52;21;2;nein
2019_03_21 12:16;44;1;1;timed;53;48;1;13;32;0;0;0.90000000000000002;0.10000000000000001;0.0;0.0;24;99;84;94;0.62;0.14999999999999999;0.20000000000000001;0.029999999999999999;1;1.5010561297863205;63;52;21;2;nein
2019_03_21 12:16;44;1;1;timed;54;96;1;51;54;39;7;0.17000000000000001;0.26000000000000001;0.10000000000000001;0.46999999999999997;24;96;0;0;0.28000000000000003;0.71999999999999997;0.0;0.0;1;1.9513535651836946;63;52;21;2;nein
2019_03_21 12:16;44;1;1;timed;55;86;0;56;30;57;88;0.20000000000000001;0.35999999999999999;0.080000000000000002;0.35999999999999999;98;2;0;0;0.77000000000000002;0.23000000000000001;0.0;0.0;0;1.9911760404465895;63;52;21;2;nein
2019_03_21 12:16;44;1;1;timed;56;88;0;77;13;12;7;0.12;0.19;0.66000000000000003;0.029999999999999898;94;2;0;0;0.40999999999999998;0.58999999999999997;0.0;0.0;1;2.6716760936860737;63;52;21;2;nein
2019_03_21 12:16;44;1;1;timed;57;132;0;27;70;21;19;0.64000000000000001;0.23000000000000001;0.029999999999999999;0.10000000000000001;11;85;55;6;0.39000000000000001;0.46999999999999997;0.029999999999999999;0.11;0;2.291432487873635;63;52;21;2;nein
2019_03_21 12:16;44;1;1;timed;58;84;0;43;10;5;45;0.78000000000000003;0.13;0.059999999999999998;0.029999999999999999;87;1;0;0;0.57999999999999996;0.41999999999999998;0.0;0.0;0;2.141469755496246;63;52;21;2;nein
2019_03_21 12:16;44;1;1;timed;59;98;1;27;10;31;79;0.23000000000000001;0.67000000000000004;0.070000000000000007;0.029999999999999999;25;99;0;0;0.38;0.62;0.0;0.0;1;2.1112271759866417;63;52;21;2;nein
2019_03_21 12:16;44;1;1;timed;60;58;1;37;58;76;34;0.20999999999999999;0.57999999999999996;0.19;0.020000000000000101;86;5;0;0;0.47999999999999998;0.52000000000000002;0.0;0.0;0;1.6410059948916569;63;52;21;2;nein
2019_03_21 12:16;44;1;1;timed;61;30;0;33;30;0;0;0.71999999999999997;0.28000000000000003;0.0;0.0;9;88;1;14;0.55000000000000004;0.39000000000000001;0.01;0.049999999999999899;0;1.9112979267398487;63;52;21;2;nein
2019_03_21 12:16;44;1;1;timed;62;38;1;40;70;0;0;0.53000000000000003;0.46999999999999997;0.0;0.0;97;90;6;96;0.56999999999999995;0.070000000000000007;0.27000000000000002;0.089999999999999997;1;2.181474720236224;63;52;21;2;nein
2019_03_21 12:16;44;1;1;timed;63;39;1;14;33;0;0;0.78000000000000003;0.22;0.0;0.0;93;84;1;25;0.14000000000000001;0.23999999999999999;0.39000000000000001;0.23000000000000001;1;2.901803021692217;63;52;21;2;nein
2019_03_21 12:16;44;1;1;timed;64;118;1;62;52;65;68;0.40999999999999998;0.44;0.10000000000000001;0.0500000000000001;79;20;14;37;0.56999999999999995;0.23999999999999999;0.14000000000000001;0.050000000000000003;0;2.081310126915241;63;52;21;2;nein
2019_03_21 12:16;44;1;1;timed;65;11;0;17;36;0;0;0.14000000000000001;0.85999999999999999;0.0;0.0;19;41;34;95;0.88;0.02;0.050000000000000003;0.050000000000000003;0;2.3414965035144633;63;52;21;2;nein
2019_03_21 12:16;44;1;1;timed;66;114;1;57;39;79;97;0.77000000000000002;0.02;0.13;0.080000000000000002;92;36;6;1;0.54000000000000004;0.12;0.13;0.20999999999999999;0;2.0414219041252863;63;52;21;2;nein
2019_03_21 12:16;44;1;1;timed;67;15;1;77;81;0;0;0.28000000000000003;0.71999999999999997;0.0;0.0;98;14;87;18;0.55000000000000004;0.23000000000000001;0.16;0.059999999999999901;0;1.7912413389660742;63;52;21;2;nein
2019_03_21 12:16;44;1;1;timed;68;91;0;74;81;86;48;0.93000000000000005;0.02;0.01;0.039999999999999897;7;64;0;0;0.13;0.87;0.0;0.0;0;1.341048458172395;63;52;21;2;nein
2019_03_21 12:16;44;1;1;timed;69;113;0;85;65;39;64;0.44;0.34000000000000002;0.13;0.089999999999999997;87;2;4;35;0.67000000000000004;0.17000000000000001;0.11;0.049999999999999899;0;1.5609511646613328;63;52;21;2;nein
2019_03_21 12:16;44;1;1;timed;70;129;0;12;29;81;36;0.17999999999999999;0.79000000000000004;0.01;0.02;5;19;95;92;0.47999999999999998;0.26000000000000001;0.13;0.13;0;1.6412141419401678;63;52;21;2;nein
2019_03_21 12:16;44;1;1;timed;71;43;0;60;83;0;0;0.23000000000000001;0.77000000000000002;0.0;0.0;72;5;70;12;0.29999999999999999;0.40999999999999998;0.12;0.17000000000000001;0;1.7911168997443383;63;52;21;2;nein
2019_03_21 12:16;44;1;1;timed;72;138;1;8;20;43;51;0.38;0.5;0.02;0.10000000000000001;72;82;70;1;0.39000000000000001;0.050000000000000003;0.070000000000000007;0.48999999999999999;0;1.801114693193199;63;52;21;2;nein
2019_03_21 12:16;44;1;1;timed;73;1;0;22;51;0;0;0.26000000000000001;0.73999999999999999;0.0;0.0;14;11;92;31;0.29999999999999999;0.40999999999999998;0.14999999999999999;0.14000000000000001;0;2.031384662160349;63;52;21;2;nein
2019_03_21 12:16;44;1;1;timed;74;12;0;53;68;0;0;0.31;0.68999999999999995;0.0;0.0;69;54;97;29;0.25;0.20999999999999999;0.20000000000000001;0.34000000000000002;1;1.9912748220967842;63;52;21;2;nein
2019_03_21 12:16;44;1;1;timed;75;110;0;47;44;23;52;0.13;0.27000000000000002;0.040000000000000001;0.56000000000000005;99;2;30;22;0.28999999999999998;0.5;0.11;0.10000000000000001;0;2.041420300527193;63;52;21;2;nein
2019_03_21 12:16;44;2;1;control;1;6;0;9;51;0;0;0.14999999999999999;0.84999999999999998;0.0;0.0;6;40;50;73;0.42999999999999999;0.26000000000000001;0.059999999999999998;0.25;0;4.60630990241134;63;52;21;2;nein
2019_03_21 12:16;44;2;1;control;2;66;0;89;23;27;15;0.070000000000000007;0.54000000000000004;0.17000000000000001;0.22;9;73;0;0;0.72999999999999998;0.27000000000000002;0.0;0.0;0;4.112704731384383;63;52;21;2;nein
2019_03_21 12:16;44;2;1;control;3;139;0;44;31;16;8;0.79000000000000004;0.070000000000000007;0.13;0.0099999999999999499;92;58;2;88;0.55000000000000004;0.070000000000000007;0.34000000000000002;0.039999999999999897;0;5.243315240469201;63;52;21;2;nein
2019_03_21 12:16;44;2;1;control;4;67;0;44;42;8;89;0.88;0.070000000000000007;0.029999999999999999;0.02;10;63;0;0;0.39000000000000001;0.60999999999999999;0.0;0.0;0;3.5922591748267223;63;52;21;2;nein
2019_03_21 12:16;44;2;1;control;5;19;1;22;53;0;0;0.13;0.87;0.0;0.0;4;93;96;65;0.46999999999999997;0.059999999999999998;0.26000000000000001;0.20999999999999999;0;3.141942496250749;63;52;21;2;nein
2019_03_21 12:16;44;2;1;control;6;146;0;25;5;64;35;0.94999999999999996;0.02;0.01;0.02;47;97;12;79;0.20999999999999999;0.029999999999999999;0.02;0.73999999999999999;1;2.3215682677418954;63;52;21;2;nein
2019_03_21 12:16;44;2;1;control;7;73;0;65;68;70;47;0.25;0.23000000000000001;0.20999999999999999;0.31;27;95;0;0;0.45000000000000001;0.55000000000000004;0.0;0.0;0;1.3908571809770365;63;52;21;2;nein
2019_03_21 12:16;44;2;1;control;8;14;0;36;40;0;0;0.54000000000000004;0.46000000000000002;0.0;0.0;99;70;1;11;0.16;0.089999999999999997;0.080000000000000002;0.67000000000000004;0;3.4222565962409135;63;52;21;2;nein
2019_03_21 12:16;44;2;1;control;9;12;0;53;68;0;0;0.31;0.68999999999999995;0.0;0.0;69;54;97;29;0.25;0.20999999999999999;0.20000000000000001;0.34000000000000002;1;2.5117139642616166;63;52;21;2;nein
2019_03_21 12:16;44;2;1;control;10;129;1;12;29;81;36;0.17999999999999999;0.79000000000000004;0.01;0.02;5;19;95;92;0.47999999999999998;0.26000000000000001;0.13;0.13;0;4.052492504781867;63;52;21;2;nein
2019_03_21 12:16;44;2;1;control;11;2;1;59;32;0;0;0.080000000000000002;0.92000000000000004;0.0;0.0;33;38;85;1;0.28999999999999998;0.050000000000000003;0.070000000000000007;0.58999999999999997;0;1.941209844297191;63;52;21;2;nein
2019_03_21 12:16;44;2;1;control;12;8;0;50;36;0;0;0.080000000000000002;0.92000000000000004;0.0;0.0;6;19;84;29;0.54000000000000004;0.070000000000000007;0.17000000000000001;0.22;0;3.3922968914569083;63;52;21;2;nein
2019_03_21 12:16;44;2;1;control;13;110;0;47;44;23;52;0.13;0.27000000000000002;0.040000000000000001;0.56000000000000005;99;2;30;22;0.28999999999999998;0.5;0.11;0.10000000000000001;0;2.4416428158158396;63;52;21;2;nein
2019_03_21 12:16;44;2;1;control;14;117;1;65;85;92;41;0.23000000000000001;0.17999999999999999;0.54000000000000004;0.050000000000000003;99;93;10;13;0.64000000000000001;0.16;0.01;0.19;0;1.8112888824459787;63;52;21;2;nein
2019_03_21 12:16;44;2;1;control;15;109;0;75;28;16;56;0.19;0.070000000000000007;0.059999999999999998;0.68000000000000005;3;50;98;44;0.5;0.02;0.34999999999999998;0.13;0;3.0420145940265684;63;52;21;2;nein
2019_03_21 12:16;44;2;1;control;16;51;1;52;23;43;16;0.60999999999999999;0.20999999999999999;0.01;0.17000000000000001;92;7;0;0;0.14999999999999999;0.84999999999999998;0.0;0.0;0;2.0313798513655;63;52;21;2;nein
2019_03_21 12:16;44;2;1;control;17;22;0;32;55;0;0;0.39000000000000001;0.60999999999999999;0.0;0.0;93;72;59;22;0.20000000000000001;0.11;0.14000000000000001;0.55000000000000004;1;2.2513880746173527;63;52;21;2;nein
2019_03_21 12:16;44;2;1;control;18;21;1;64;28;0;0;0.080000000000000002;0.92000000000000004;0.0;0.0;50;1;88;13;0.57999999999999996;0.13;0.02;0.27000000000000002;0;2.0613148607369567;63;52;21;2;nein
2019_03_21 12:16;44;2;1;control;19;52;0;71;51;10;54;0.22;0.12;0.19;0.46999999999999997;91;1;0;0;0.29999999999999999;0.69999999999999996;0.0;0.0;0;2.351564855284778;63;52;21;2;nein
2019_03_21 12:16;44;2;1;control;20;11;1;17;36;0;0;0.14000000000000001;0.85999999999999999;0.0;0.0;19;41;34;95;0.88;0.02;0.050000000000000003;0.050000000000000003;1;2.221407202336877;63;52;21;2;nein
2019_03_21 12:16;44;2;1;control;21;45;1;97;87;0;0;0.71999999999999997;0.28000000000000003;0.0;0.0;96;11;14;4;0.25;0.029999999999999999;0.14000000000000001;0.57999999999999996;0;1.5509459946608786;63;52;21;2;nein
2019_03_21 12:16;44;2;1;control;22;77;1;24;17;99;41;0.17999999999999999;0.13;0.10000000000000001;0.58999999999999997;12;97;0;0;0.59999999999999998;0.40000000000000002;0.0;0.0;0;2.5517144389266377;63;52;21;2;nein
2019_03_21 12:16;44;2;1;control;23;24;0;35;27;0;0;0.070000000000000007;0.93000000000000005;0.0;0.0;62;3;81;95;0.35999999999999999;0.55000000000000004;0.01;0.080000000000000002;0;1.82124049226627;63;52;21;2;nein
2019_03_21 12:16;44;2;1;control;24;95;0;93;88;68;85;0.83999999999999997;0.14000000000000001;0.01;0.01;2;82;0;0;0.41999999999999998;0.57999999999999996;0.0;0.0;0;1.3107353203411094;63;52;21;2;nein
2019_03_21 12:16;44;2;1;control;25;133;1;59;88;60;36;0.67000000000000004;0.070000000000000007;0.12;0.14000000000000001;7;91;66;61;0.25;0.68999999999999995;0.01;0.0500000000000001;0;1.5210157960839297;63;52;21;2;nein
2019_03_21 12:16;44;2;1;control;26;87;0;10;30;63;4;0.56999999999999995;0.12;0.16;0.14999999999999999;86;2;0;0;0.42999999999999999;0.56999999999999995;0.0;0.0;0;2.911945780419728;63;52;21;2;nein
2019_03_21 12:16;44;2;1;control;27;84;1;43;10;5;45;0.78000000000000003;0.13;0.059999999999999998;0.029999999999999999;87;1;0;0;0.57999999999999996;0.41999999999999998;0.0;0.0;0;2.551600262733473;63;52;21;2;nein
2019_03_21 12:16;44;2;1;control;28;39;0;14;33;0;0;0.78000000000000003;0.22;0.0;0.0;93;84;1;25;0.14000000000000001;0.23999999999999999;0.39000000000000001;0.23000000000000001;0;3.3522210476755845;63;52;21;2;nein
2019_03_21 12:16;44;2;1;control;29;60;0;64;59;57;96;0.83999999999999997;0.13;0.02;0.01;83;6;0;0;0.54000000000000004;0.46000000000000002;0.0;0.0;0;1.8813067914309158;63;52;21;2;nein
2019_03_21 12:16;44;2;1;control;30;16;1;64;53;0;0;0.65000000000000002;0.34999999999999998;0.0;0.0;29;17;81;46;0.10000000000000001;0.01;0.44;0.45000000000000001;0;2.261401904048398;63;52;21;2;nein
2019_03_21 12:16;44;2;1;control;31;141;0;93;28;60;91;0.81999999999999995;0.10000000000000001;0.01;0.070000000000000007;14;85;7;89;0.45000000000000001;0.070000000000000007;0.23999999999999999;0.23999999999999999;0;2.5617337205917465;63;52;21;2;nein
2019_03_21 12:16;44;2;1;control;32;92;1;90;86;65;94;0.16;0.34000000000000002;0.28000000000000003;0.22;79;22;0;0;0.35999999999999999;0.64000000000000001;0.0;0.0;0;2.6416012505501385;63;52;21;2;nein
2019_03_21 12:16;44;2;1;control;33;47;0;2;40;0;0;0.45000000000000001;0.55000000000000004;0.0;0.0;93;89;11;56;0.58999999999999997;0.070000000000000007;0.28000000000000003;0.059999999999999998;1;1.8411244687279122;63;52;21;2;nein
2019_03_21 12:16;44;2;1;control;34;128;1;70;49;27;54;0.27000000000000002;0.53000000000000003;0.02;0.17999999999999999;72;97;6;20;0.29999999999999999;0.39000000000000001;0.22;0.0899999999999999;0;3.041881174654918;63;52;21;2;nein
2019_03_21 12:16;44;2;1;control;35;126;1;16;55;51;42;0.68999999999999995;0.23999999999999999;0.01;0.060000000000000102;66;4;1;5;0.46999999999999997;0.38;0.089999999999999997;0.059999999999999998;0;1.6311278298696834;63;52;21;2;nein
2019_03_21 12:16;44;2;1;control;36;88;1;77;13;12;7;0.12;0.19;0.66000000000000003;0.029999999999999898;94;2;0;0;0.40999999999999998;0.58999999999999997;0.0;0.0;0;1.4709803244913928;63;52;21;2;nein
2019_03_21 12:16;44;2;1;control;37;98;1;27;10;31;79;0.23000000000000001;0.67000000000000004;0.070000000000000007;0.029999999999999999;25;99;0;0;0.38;0.62;0.0;0.0;1;4.082697560093266;63;52;21;2;nein
2019_03_21 12:16;44;2;1;control;38;79;1;52;46;29;22;0.17999999999999999;0.51000000000000001;0.23999999999999999;0.070000000000000104;93;14;0;0;0.45000000000000001;0.55000000000000004;0.0;0.0;0;3.702489874880939;63;52;21;2;nein
2019_03_21 12:16;44;2;1;control;39;148;0;37;63;55;10;0.72999999999999998;0.070000000000000007;0.029999999999999999;0.17000000000000001;80;14;23;70;0.46999999999999997;0.10000000000000001;0.23000000000000001;0.20000000000000001;1;3.602556520422695;63;52;21;2;nein
2019_03_21 12:16;44;2;1;control;40;86;0;56;30;57;88;0.20000000000000001;0.35999999999999999;0.080000000000000002;0.35999999999999999;98;2;0;0;0.77000000000000002;0.23000000000000001;0.0;0.0;0;1.470914897683997;63;52;21;2;nein
2019_03_21 12:16;44;2;1;control;41;121;1;42;51;47;70;0.41999999999999998;0.17000000000000001;0.23999999999999999;0.17000000000000001;21;76;48;9;0.14999999999999999;0.34000000000000002;0.40999999999999998;0.10000000000000001;0;1.7312661241799105;63;52;21;2;nein
2019_03_21 12:16;44;2;1;control;42;4;1;40;43;0;0;0.58999999999999997;0.40999999999999998;0.0;0.0;2;33;88;81;0.69999999999999996;0.14000000000000001;0.13;0.029999999999999999;0;1.5509617099232855;63;52;21;2;nein
2019_03_21 12:16;44;2;1;control;43;48;1;13;32;0;0;0.90000000000000002;0.10000000000000001;0.0;0.0;24;99;84;94;0.62;0.14999999999999999;0.20000000000000001;0.029999999999999999;1;1.8711730128532054;63;52;21;2;nein
2019_03_21 12:16;44;2;1;control;44;130;0;37;79;23;95;0.94999999999999996;0.029999999999999999;0.01;0.01;94;4;58;49;0.46000000000000002;0.5;0.029999999999999999;0.01;0;2.041245508321481;63;52;21;2;nein
2019_03_21 12:16;44;2;1;control;45;120;0;64;40;48;51;0.19;0.02;0.070000000000000007;0.71999999999999997;97;9;79;94;0.23000000000000001;0.54000000000000004;0.01;0.22;0;2.2413710379896656;63;52;21;2;nein
2019_03_21 12:16;44;2;1;control;46;31;1;10;59;0;0;0.23999999999999999;0.76000000000000001;0.0;0.0;1;79;53;73;0.23000000000000001;0.58999999999999997;0.050000000000000003;0.13;0;2.2715485114117655;63;52;21;2;nein
2019_03_21 12:16;44;2;1;control;47;28;0;47;30;0;0;0.97999999999999998;0.02;0.0;0.0;55;48;77;13;0.070000000000000007;0.26000000000000001;0.42999999999999999;0.23999999999999999;1;2.7117025466423;63;52;21;2;nein
2019_03_21 12:16;44;2;1;control;48;23;1;54;40;0;0;0.93000000000000005;0.070000000000000007;0.0;0.0;36;23;71;86;0.02;0.41999999999999998;0.19;0.37;1;1.961170152033901;63;52;21;2;nein
2019_03_21 12:16;44;2;1;control;49;106;1;85;69;22;61;0.10000000000000001;0.58999999999999997;0.17999999999999999;0.13;20;79;91;84;0.55000000000000004;0.14999999999999999;0.26000000000000001;0.039999999999999897;0;2.8518897442838806;63;52;21;2;nein
2019_03_21 12:16;44;2;1;control;50;49;1;21;30;0;0;0.53000000000000003;0.46999999999999997;0.0;0.0;93;99;89;25;0.44;0.02;0.11;0.42999999999999999;1;2.3013950021615983;63;52;21;2;nein
2019_03_21 12:16;44;2;1;control;51;34;0;32;48;0;0;0.28000000000000003;0.71999999999999997;0.0;0.0;97;83;7;62;0.040000000000000001;0.54000000000000004;0.35999999999999999;0.059999999999999901;0;3.242028833978793;63;52;21;2;nein
2019_03_21 12:16;44;2;1;control;52;93;0;87;81;73;98;0.80000000000000004;0.040000000000000001;0.14999999999999999;0.0099999999999999499;5;71;0;0;0.51000000000000001;0.48999999999999999;0.0;0.0;0;1.561095488500996;63;52;21;2;nein
2019_03_21 12:16;44;2;1;control;53;35;0;33;37;0;0;0.88;0.12;0.0;0.0;63;4;79;98;0.16;0.46000000000000002;0.17000000000000001;0.20999999999999999;0;3.6322689503615493;63;52;21;2;nein
2019_03_21 12:16;44;2;1;control;54;137;1;71;22;28;17;0.25;0.46000000000000002;0.050000000000000003;0.23999999999999999;3;98;92;69;0.42999999999999999;0.23999999999999999;0.20000000000000001;0.13;0;6.0838450949777325;63;52;21;2;nein
2019_03_21 12:16;44;2;1;control;55;57;0;52;35;23;47;0.22;0.68000000000000005;0.040000000000000001;0.059999999999999998;71;7;0;0;0.28999999999999998;0.70999999999999996;0.0;0.0;0;2.08146535522269;63;52;21;2;nein
2019_03_21 12:16;44;2;1;control;56;144;1;99;93;90;71;0.65000000000000002;0.32000000000000001;0.01;0.02;97;14;48;73;0.23000000000000001;0.46000000000000002;0.13;0.17999999999999999;0;3.162096518652561;63;52;21;2;nein
2019_03_21 12:16;44;2;1;control;57;94;0;84;86;93;39;0.78000000000000003;0.20000000000000001;0.01;0.0099999999999999603;9;83;0;0;0.46999999999999997;0.53000000000000003;0.0;0.0;0;1.6309886375443057;63;52;21;2;nein
2019_03_21 12:16;44;2;1;control;58;70;1;66;55;69;50;0.22;0.29999999999999999;0.29999999999999999;0.17999999999999999;2;90;0;0;0.34000000000000002;0.66000000000000003;0.0;0.0;0;3.3521113615574905;63;52;21;2;nein
2019_03_21 12:16;44;2;1;control;59;123;0;26;24;51;92;0.72999999999999998;0.16;0.070000000000000007;0.040000000000000001;6;90;82;49;0.64000000000000001;0.25;0.050000000000000003;0.059999999999999998;0;2.4015002623486907;63;52;21;2;nein
2019_03_21 12:16;44;2;1;control;60;140;0;36;32;26;27;0.39000000000000001;0.14999999999999999;0.19;0.27000000000000002;44;3;99;25;0.29999999999999999;0.34000000000000002;0.34000000000000002;0.0199999999999999;0;2.2413809802988;63;52;21;2;nein
2019_03_21 12:16;44;2;1;control;61;32;0;19;81;0;0;0.93000000000000005;0.070000000000000007;0.0;0.0;1;65;41;68;0.45000000000000001;0.050000000000000003;0.059999999999999998;0.44;0;3.6122759292211413;63;52;21;2;nein
2019_03_21 12:16;44;2;1;control;62;108;0;48;72;39;70;0.14000000000000001;0.66000000000000003;0.02;0.17999999999999999;81;44;98;8;0.59999999999999998;0.029999999999999999;0.050000000000000003;0.32000000000000001;0;2.6016787107582786;63;52;21;2;nein
2019_03_21 12:16;44;2;1;control;63;107;0;52;48;13;63;0.68000000000000005;0.19;0.050000000000000003;0.079999999999999905;54;91;33;3;0.19;0.17999999999999999;0.33000000000000002;0.29999999999999999;0;3.9231459518125575;63;52;21;2;nein
2019_03_21 12:16;44;2;1;control;64;43;0;60;83;0;0;0.23000000000000001;0.77000000000000002;0.0;0.0;72;5;70;12;0.29999999999999999;0.40999999999999998;0.12;0.17000000000000001;0;2.3614975426460205;63;52;21;2;nein
2019_03_21 12:16;44;2;1;control;65;82;1;78;66;30;27;0.28999999999999998;0.58999999999999997;0.080000000000000002;0.040000000000000001;90;6;0;0;0.82999999999999996;0.17000000000000001;0.0;0.0;0;1.9111712424808047;63;52;21;2;nein
2019_03_21 12:16;44;2;1;control;66;72;0;63;82;51;61;0.01;0.96999999999999997;0.01;0.01;92;12;0;0;0.89000000000000001;0.11;0.0;0.0;0;2.3816826748532094;63;52;21;2;nein
2019_03_21 12:16;44;2;1;control;67;143;0;88;44;56;73;0.95999999999999996;0.02;0.01;0.01;20;3;87;32;0.19;0.40000000000000002;0.28000000000000003;0.13;0;2.5617359656291683;63;52;21;2;nein
2019_03_21 12:16;44;2;1;control;68;50;0;15;20;0;0;0.82999999999999996;0.17000000000000001;0.0;0.0;97;18;88;87;0.56999999999999995;0.39000000000000001;0.01;0.029999999999999999;1;1.961383751316589;63;52;21;2;nein
2019_03_21 12:16;44;2;1;control;69;116;0;53;65;43;99;0.56999999999999995;0.37;0.050000000000000003;0.010000000000000101;57;72;11;87;0.67000000000000004;0.13;0.14999999999999999;0.050000000000000003;0;1.7210556936076955;63;52;21;2;nein
2019_03_21 12:16;44;2;1;control;70;62;0;12;45;16;50;0.20999999999999999;0.76000000000000001;0.02;0.01;92;15;0;0;0.20999999999999999;0.79000000000000004;0.0;0.0;0;4.112663358550435;63;52;21;2;nein
2019_03_21 12:16;44;2;1;control;71;18;0;68;50;0;0;0.029999999999999999;0.96999999999999997;0.0;0.0;34;64;15;89;0.65000000000000002;0.029999999999999999;0.050000000000000003;0.27000000000000002;1;3.4321642674699433;63;52;21;2;nein
2019_03_21 12:16;44;2;1;control;72;89;1;26;41;13;56;0.059999999999999998;0.40999999999999998;0.050000000000000003;0.47999999999999998;5;97;0;0;0.37;0.63;0.0;0.0;0;3.011844817876181;63;52;21;2;nein
2019_03_21 12:16;44;2;1;control;73;90;0;27;44;50;72;0.68000000000000005;0.28999999999999998;0.02;0.0099999999999999707;6;96;0;0;0.46999999999999997;0.53000000000000003;0.0;0.0;0;3.54223941849682;63;52;21;2;nein
2019_03_21 12:16;44;2;1;control;74;33;0;27;70;0;0;0.88;0.12;0.0;0.0;93;3;77;16;0.080000000000000002;0.40000000000000002;0.5;0.02;0;3.6724272190913325;63;52;21;2;nein
2019_03_21 12:16;44;2;1;control;75;75;1;67;80;36;81;0.81999999999999995;0.080000000000000002;0.059999999999999998;0.040000000000000001;3;97;0;0;0.32000000000000001;0.68000000000000005;0.0;0.0;0;2.3114431485946625;63;52;21;2;nein
2019_03_21 12:16;44;3;1;timed;1;130;0;37;79;23;95;0.94999999999999996;0.029999999999999999;0.01;0.01;94;4;58;49;0.46000000000000002;0.5;0.029999999999999999;0.01;0;1.4457858721714274;63;52;21;2;nein
2019_03_21 12:16;44;3;1;timed;2;83;0;17;12;7;41;0.65000000000000002;0.19;0.089999999999999997;0.070000000000000007;6;84;0;0;0.72999999999999998;0.27000000000000002;0.0;0.0;1;1.320826122486551;63;52;21;2;nein
2019_03_21 12:16;44;3;1;timed;3;115;0;50;28;61;79;0.83999999999999997;0.040000000000000001;0.059999999999999998;0.059999999999999998;1;26;97;55;0.45000000000000001;0.080000000000000002;0.40999999999999998;0.060000000000000102;0;1.3208036721116514;63;52;21;2;nein
2019_03_21 12:16;44;3;1;timed;4;76;0;39;62;9;28;0.01;0.51000000000000001;0.26000000000000001;0.22;77;7;0;0;0.57999999999999996;0.41999999999999998;0.0;0.0;0;1.3808173732547857;63;52;21;2;nein
2019_03_21 12:16;44;3;1;timed;5;5;0;70;5;0;0;0.98999999999999999;0.01;0.0;0.0;92;87;47;1;0.44;0.02;0.16;0.38;1;1.1406952175568676;63;52;21;2;nein
2019_03_21 12:16;44;3;1;timed;6;120;0;64;40;48;51;0.19;0.02;0.070000000000000007;0.71999999999999997;97;9;79;94;0.23000000000000001;0.54000000000000004;0.01;0.22;0;1.0807527161746293;63;52;21;2;nein
2019_03_21 12:16;44;3;1;timed;7;119;1;60;58;11;18;0.25;0.72999999999999998;0.01;0.01;96;23;42;85;0.44;0.48999999999999999;0.059999999999999998;0.010000000000000101;0;1.2007153330930578;63;52;21;2;nein
2019_03_21 12:16;44;3;1;timed;8;70;1;66;55;69;50;0.22;0.29999999999999999;0.29999999999999999;0.17999999999999999;2;90;0;0;0.34000000000000002;0.66000000000000003;0.0;0.0;0;1.4009957703492546;63;52;21;2;nein
2019_03_21 12:16;44;3;1;timed;9;94;0;84;86;93;39;0.78000000000000003;0.20000000000000001;0.01;0.0099999999999999603;9;83;0;0;0.46999999999999997;0.53000000000000003;0.0;0.0;0;1.110795487346195;63;52;21;2;nein
2019_03_21 12:16;44;3;1;timed;10;52;1;71;51;10;54;0.22;0.12;0.19;0.46999999999999997;91;1;0;0;0.29999999999999999;0.69999999999999996;0.0;0.0;0;1.5110337178975897;63;52;21;2;nein
2019_03_21 12:16;44;3;1;timed;11;126;0;16;55;51;42;0.68999999999999995;0.23999999999999999;0.01;0.060000000000000102;66;4;1;5;0.46999999999999997;0.38;0.089999999999999997;0.059999999999999998;0;1.160833524696045;63;52;21;2;nein
2019_03_21 12:16;44;3;1;timed;12;67;1;44;42;8;89;0.88;0.070000000000000007;0.029999999999999999;0.02;10;63;0;0;0.39000000000000001;0.60999999999999999;0.0;0.0;0;1.5509594648856364;63;52;21;2;nein
2019_03_21 12:16;44;3;1;timed;13;107;1;52;48;13;63;0.68000000000000005;0.19;0.050000000000000003;0.079999999999999905;54;91;33;3;0.19;0.17999999999999999;0.33000000000000002;0.29999999999999999;1;1.3708506896111885;63;52;21;2;nein
2019_03_21 12:16;44;3;1;timed;14;134;1;57;48;50;55;0.02;0.62;0.17999999999999999;0.17999999999999999;80;96;15;18;0.23999999999999999;0.35999999999999999;0.33000000000000002;0.070000000000000007;0;1.7612463550212851;63;52;21;2;nein
2019_03_21 12:16;44;3;1;timed;15;121;1;42;51;47;70;0.41999999999999998;0.17000000000000001;0.23999999999999999;0.17000000000000001;21;76;48;9;0.14999999999999999;0.34000000000000002;0.40999999999999998;0.10000000000000001;0;1.5609684835221742;63;52;21;2;nein
2019_03_21 12:16;44;3;1;timed;16;135;0;48;60;41;51;0.14000000000000001;0.40000000000000002;0.089999999999999997;0.37;94;1;85;65;0.64000000000000001;0.29999999999999999;0.01;0.050000000000000003;0;1.2006226451160273;63;52;21;2;nein
2019_03_21 12:16;44;3;1;timed;17;24;0;35;27;0;0;0.070000000000000007;0.93000000000000005;0.0;0.0;62;3;81;95;0.35999999999999999;0.55000000000000004;0.01;0.080000000000000002;1;1.901297567533902;63;52;21;2;nein
2019_03_21 12:16;44;3;1;timed;18;68;0;84;27;55;62;0.01;0.050000000000000003;0.40999999999999998;0.53000000000000003;9;82;0;0;0.37;0.63;0.0;0.0;0;1.3910284452667838;63;52;21;2;nein
2019_03_21 12:16;44;3;1;timed;19;53;1;26;70;50;80;0.29999999999999999;0.59999999999999998;0.040000000000000001;0.059999999999999998;89;1;0;0;0.40999999999999998;0.58999999999999997;0.0;0.0;0;1.270790650894014;63;52;21;2;nein
2019_03_21 12:16;44;3;1;timed;20;146;1;25;5;64;35;0.94999999999999996;0.02;0.01;0.02;47;97;12;79;0.20999999999999999;0.029999999999999999;0.02;0.73999999999999999;1;1.2008606190915998;63;52;21;2;nein
2019_03_21 12:16;44;3;1;timed;21;90;0;27;44;50;72;0.68000000000000005;0.28999999999999998;0.02;0.0099999999999999707;6;96;0;0;0.46999999999999997;0.53000000000000003;0.0;0.0;0;1.4610206966799524;63;52;21;2;nein
2019_03_21 12:16;44;3;1;timed;22;131;1;83;41;81;88;0.23999999999999999;0.58999999999999997;0.10000000000000001;0.070000000000000007;82;97;4;17;0.26000000000000001;0.46999999999999997;0.11;0.16;0;1.4510100744453212;63;52;21;2;nein
2019_03_21 12:16;44;3;1;timed;23;82;1;78;66;30;27;0.28999999999999998;0.58999999999999997;0.080000000000000002;0.040000000000000001;90;6;0;0;0.82999999999999996;0.17000000000000001;0.0;0.0;0;1.150448622637441;63;52;21;2;nein
2019_03_21 12:16;44;3;1;timed;24;21;1;64;28;0;0;0.080000000000000002;0.92000000000000004;0.0;0.0;50;1;88;13;0.57999999999999996;0.13;0.02;0.27000000000000002;0;1.8312475865848228;63;52;21;2;nein
2019_03_21 12:16;44;3;1;timed;25;108;0;48;72;39;70;0.14000000000000001;0.66000000000000003;0.02;0.17999999999999999;81;44;98;8;0.59999999999999998;0.029999999999999999;0.050000000000000003;0.32000000000000001;0;1.2812573364619766;63;52;21;2;nein
2019_03_21 12:16;44;3;1;timed;26;137;1;71;22;28;17;0.25;0.46000000000000002;0.050000000000000003;0.23999999999999999;3;98;92;69;0.42999999999999999;0.23999999999999999;0.20000000000000001;0.13;0;1.801121749025242;63;52;21;2;nein
2019_03_21 12:16;44;3;1;timed;27;23;1;54;40;0;0;0.93000000000000005;0.070000000000000007;0.0;0.0;36;23;71;86;0.02;0.41999999999999998;0.19;0.37;1;1.1508450321168766;63;52;21;2;nein
2019_03_21 12:16;44;3;1;timed;28;75;1;67;80;36;81;0.81999999999999995;0.080000000000000002;0.059999999999999998;0.040000000000000001;3;97;0;0;0.32000000000000001;0.68000000000000005;0.0;0.0;0;1.471040299064498;63;52;21;2;nein
2019_03_21 12:16;44;3;1;timed;29;125;1;37;41;10;35;0.91000000000000003;0.040000000000000001;0.029999999999999999;0.02;7;13;91;93;0.26000000000000001;0.39000000000000001;0.16;0.19;0;1.441016450351981;63;52;21;2;nein
2019_03_21 12:16;44;3;1;timed;30;143;0;88;44;56;73;0.95999999999999996;0.02;0.01;0.01;20;3;87;32;0.19;0.40000000000000002;0.28000000000000003;0.13;0;2.0013136676600425;63;52;21;2;nein
2019_03_21 12:16;44;3;1;timed;31;54;1;44;79;78;52;0.79000000000000004;0.19;0.01;0.0099999999999999603;96;1;0;0;0.28000000000000003;0.71999999999999997;0.0;0.0;0;1.5110590547494667;63;52;21;2;nein
2019_03_21 12:16;44;3;1;timed;32;34;0;32;48;0;0;0.28000000000000003;0.71999999999999997;0.0;0.0;97;83;7;62;0.040000000000000001;0.54000000000000004;0.35999999999999999;0.059999999999999901;0;1.9912251105520227;63;52;21;2;nein
2019_03_21 12:16;44;3;1;timed;33;6;1;9;51;0;0;0.14999999999999999;0.84999999999999998;0.0;0.0;6;40;50;73;0.42999999999999999;0.26000000000000001;0.059999999999999998;0.25;1;1.9411989398290643;63;52;21;2;nein
2019_03_21 12:16;44;3;1;timed;34;29;0;44;51;0;0;0.78000000000000003;0.22;0.0;0.0;74;1;68;82;0.69999999999999996;0.28000000000000003;0.01;0.01;0;1.7010479193634183;63;52;21;2;nein
2019_03_21 12:16;44;3;1;timed;35;9;1;61;69;0;0;0.93999999999999995;0.060000000000000102;0.0;0.0;18;93;72;16;0.40999999999999998;0.34999999999999998;0.089999999999999997;0.14999999999999999;1;1.460915179917265;63;52;21;2;nein
2019_03_21 12:16;44;3;1;timed;36;105;1;49;74;63;58;0.84999999999999998;0.080000000000000002;0.02;0.050000000000000003;97;5;86;8;0.25;0.52000000000000002;0.070000000000000007;0.16;0;1.5608174245699047;63;52;21;2;nein
2019_03_21 12:16;44;3;1;timed;37;109;1;75;28;16;56;0.19;0.070000000000000007;0.059999999999999998;0.68000000000000005;3;50;98;44;0.5;0.02;0.34999999999999998;0.13;0;1.9613295496967567;63;52;21;2;nein
2019_03_21 12:16;44;3;1;timed;38;16;1;64;53;0;0;0.65000000000000002;0.34999999999999998;0.0;0.0;29;17;81;46;0.10000000000000001;0.01;0.44;0.45000000000000001;0;1.8511344495232152;63;52;21;2;nein
2019_03_21 12:16;44;3;1;timed;39;47;1;2;40;0;0;0.45000000000000001;0.55000000000000004;0.0;0.0;93;89;11;56;0.58999999999999997;0.070000000000000007;0.28000000000000003;0.059999999999999998;1;1.4909088809836248;63;52;21;2;nein
2019_03_21 12:16;44;3;1;timed;40;27;1;44;26;0;0;0.35999999999999999;0.64000000000000001;0.0;0.0;63;10;3;5;0.58999999999999997;0.19;0.14999999999999999;0.070000000000000007;0;1.7012977599656551;63;52;21;2;nein
2019_03_21 12:16;44;3;1;timed;41;65;1;75;64;59;52;0.59999999999999998;0.22;0.14000000000000001;0.040000000000000001;1;99;0;0;0.35999999999999999;0.64000000000000001;0.0;0.0;0;1.7912211336285964;63;52;21;2;nein
2019_03_21 12:16;44;3;1;timed;42;2;0;59;32;0;0;0.080000000000000002;0.92000000000000004;0.0;0.0;33;38;85;1;0.28999999999999998;0.050000000000000003;0.070000000000000007;0.58999999999999997;0;1.9411691129021165;63;52;21;2;nein
2019_03_21 12:16;44;3;1;timed;43;51;0;52;23;43;16;0.60999999999999999;0.20999999999999999;0.01;0.17000000000000001;92;7;0;0;0.14999999999999999;0.84999999999999998;0.0;0.0;0;1.6013114867664626;63;52;21;2;nein
2019_03_21 12:16;44;3;1;timed;44;102;1;40;56;53;17;0.28000000000000003;0.26000000000000001;0.14999999999999999;0.31;1;76;29;62;0.68000000000000005;0.23000000000000001;0.050000000000000003;0.039999999999999897;0;1.5609575790540475;63;52;21;2;nein
2019_03_21 12:16;44;3;1;timed;45;100;0;27;14;59;52;0.02;0.95999999999999996;0.01;0.01;17;98;0;0;0.48999999999999999;0.51000000000000001;0.0;0.0;0;1.931141492526649;63;52;21;2;nein
2019_03_21 12:16;44;3;1;timed;46;25;1;50;53;0;0;0.82999999999999996;0.17000000000000001;0.0;0.0;83;16;97;4;0.45000000000000001;0.29999999999999999;0.11;0.14000000000000001;0;1.7912955405859066;63;52;21;2;nein
2019_03_21 12:16;44;3;1;timed;47;49;0;21;30;0;0;0.53000000000000003;0.46999999999999997;0.0;0.0;93;99;89;25;0.44;0.02;0.11;0.42999999999999999;1;1.5110725249744519;63;52;21;2;nein
2019_03_21 12:16;44;3;1;timed;48;7;1;49;29;0;0;0.95999999999999996;0.040000000000000001;0.0;0.0;23;99;64;25;0.68999999999999995;0.12;0.059999999999999998;0.13;1;1.2608477005044278;63;52;21;2;nein
2019_03_21 12:16;44;3;1;timed;49;145;0;91;89;90;74;0.57999999999999996;0.29999999999999999;0.11;0.010000000000000101;2;75;84;39;0.32000000000000001;0.27000000000000002;0.39000000000000001;0.0199999999999999;0;1.6009849941692664;63;52;21;2;nein
2019_03_21 12:16;44;3;1;timed;50;111;1;51;36;48;27;0.93000000000000005;0.01;0.01;0.049999999999999899;31;78;30;53;0.55000000000000004;0.16;0.029999999999999999;0.26000000000000001;1;2.741831912117732;63;52;21;2;nein
2019_03_21 12:16;44;3;1;timed;51;122;1;35;58;25;31;0.81999999999999995;0.070000000000000007;0.080000000000000002;0.029999999999999999;18;64;68;89;0.63;0.17000000000000001;0.11;0.089999999999999997;0;2.241356284886251;63;52;21;2;nein
2019_03_21 12:16;44;3;1;timed;52;13;1;52;56;0;0;0.46999999999999997;0.53000000000000003;0.0;0.0;94;71;27;2;0.089999999999999997;0.31;0.57999999999999996;0.020000000000000101;0;1.7612277532819007;63;52;21;2;nein
2019_03_21 12:16;44;3;1;timed;53;136;0;29;67;14;75;0.46000000000000002;0.29999999999999999;0.20999999999999999;0.0300000000000001;70;86;1;85;0.31;0.39000000000000001;0.27000000000000002;0.029999999999999898;0;1.7612303190389866;63;52;21;2;nein
2019_03_21 12:16;44;3;1;timed;54;59;1;56;47;83;90;0.31;0.12;0.54000000000000004;0.029999999999999898;10;98;0;0;0.46999999999999997;0.53000000000000003;0.0;0.0;0;1.5909576945132358;63;52;21;2;nein
2019_03_21 12:16;44;3;1;timed;55;89;0;26;41;13;56;0.059999999999999998;0.40999999999999998;0.050000000000000003;0.47999999999999998;5;97;0;0;0.37;0.63;0.0;0.0;0;1.6310768354464926;63;52;21;2;nein
2019_03_21 12:16;44;3;1;timed;56;85;0;31;22;82;50;0.11;0.69999999999999996;0.01;0.17999999999999999;3;99;0;0;0.62;0.38;0.0;0.0;0;1.9511912810439753;63;52;21;2;nein
2019_03_21 12:16;44;3;1;timed;57;32;1;19;81;0;0;0.93000000000000005;0.070000000000000007;0.0;0.0;1;65;41;68;0.45000000000000001;0.050000000000000003;0.059999999999999998;0.44;0;2.351475374504389;63;52;21;2;nein
2019_03_21 12:16;44;3;1;timed;58;141;0;93;28;60;91;0.81999999999999995;0.10000000000000001;0.01;0.070000000000000007;14;85;7;89;0.45000000000000001;0.070000000000000007;0.23999999999999999;0.23999999999999999;0;1.44095294786257;63;52;21;2;nein
2019_03_21 12:16;44;3;1;timed;59;106;0;85;69;22;61;0.10000000000000001;0.58999999999999997;0.17999999999999999;0.13;20;79;91;84;0.55000000000000004;0.14999999999999999;0.26000000000000001;0.039999999999999897;0;1.8811643919091239;63;52;21;2;nein
2019_03_21 12:16;44;3;1;timed;60;144;0;99;93;90;71;0.65000000000000002;0.32000000000000001;0.01;0.02;97;14;48;73;0.23000000000000001;0.46000000000000002;0.13;0.17999999999999999;0;1.9211789782384585;63;52;21;2;nein
2019_03_21 12:16;44;3;1;timed;61;101;1;30;96;61;45;0.65000000000000002;0.14000000000000001;0.11;0.10000000000000001;3;98;63;89;0.75;0.19;0.040000000000000001;0.02;0;2.461556939924094;63;52;21;2;nein
2019_03_21 12:16;44;3;1;timed;62;35;0;33;37;0;0;0.88;0.12;0.0;0.0;63;4;79;98;0.16;0.46000000000000002;0.17000000000000001;0.20999999999999999;0;1.8712740395408218;63;52;21;2;nein
2019_03_21 12:16;44;3;1;timed;63;148;1;37;63;55;10;0.72999999999999998;0.070000000000000007;0.029999999999999999;0.17000000000000001;80;14;23;70;0.46999999999999997;0.10000000000000001;0.23000000000000001;0.20000000000000001;1;1.8111163352778021;63;52;21;2;nein
2019_03_21 12:16;44;3;1;timed;64;79;1;52;46;29;22;0.17999999999999999;0.51000000000000001;0.23999999999999999;0.070000000000000104;93;14;0;0;0.45000000000000001;0.55000000000000004;0.0;0.0;0;1.3609661101968413;63;52;21;2;nein
2019_03_21 12:16;44;3;1;timed;65;20;0;44;40;0;0;0.91000000000000003;0.089999999999999997;0.0;0.0;29;5;80;99;0.25;0.40000000000000002;0.26000000000000001;0.089999999999999997;0;1.8112446231352806;63;52;21;2;nein
2019_03_21 12:16;44;3;1;timed;66;123;1;26;24;51;92;0.72999999999999998;0.16;0.070000000000000007;0.040000000000000001;6;90;82;49;0.64000000000000001;0.25;0.050000000000000003;0.059999999999999998;0;1.6809772840690584;63;52;21;2;nein
2019_03_21 12:16;44;3;1;timed;67;142;0;98;65;64;84;0.88;0.070000000000000007;0.01;0.040000000000000001;5;68;60;16;0.46000000000000002;0.080000000000000002;0.27000000000000002;0.19;0;1.280769201164503;63;52;21;2;nein
2019_03_21 12:16;44;3;1;timed;68;3;1;53;40;0;0;0.31;0.68999999999999995;0.0;0.0;96;24;7;88;0.11;0.27000000000000002;0.58999999999999997;0.029999999999999999;0;1.711480287929362;63;52;21;2;nein
2019_03_21 12:16;44;3;1;timed;69;140;0;36;32;26;27;0.39000000000000001;0.14999999999999999;0.19;0.27000000000000002;44;3;99;25;0.29999999999999999;0.34000000000000002;0.34000000000000002;0.0199999999999999;0;2.0012270733564037;63;52;21;2;nein
2019_03_21 12:16;44;3;1;timed;70;8;0;50;36;0;0;0.080000000000000002;0.92000000000000004;0.0;0.0;6;19;84;29;0.54000000000000004;0.070000000000000007;0.17000000000000001;0.22;0;1.6710275985667522;63;52;21;2;nein
2019_03_21 12:16;44;3;1;timed;71;56;0;28;84;37;41;0.68000000000000005;0.28000000000000003;0.02;0.0199999999999999;6;95;0;0;0.72999999999999998;0.27000000000000002;0.0;0.0;0;1.7911233141371667;63;52;21;2;nein
2019_03_21 12:16;44;3;1;timed;72;103;0;38;49;89;50;0.89000000000000001;0.070000000000000007;0.01;0.029999999999999999;6;64;99;27;0.70999999999999996;0.17999999999999999;0.059999999999999998;0.050000000000000003;0;1.9212344627369475;63;52;21;2;nein
2019_03_21 12:16;44;3;1;timed;73;61;0;43;18;39;70;0.75;0.089999999999999997;0.089999999999999997;0.070000000000000007;16;66;0;0;0.64000000000000001;0.35999999999999999;0.0;0.0;0;2.211967781787507;63;52;21;2;nein
2019_03_21 12:16;44;3;1;timed;74;64;0;48;39;34;19;0.46000000000000002;0.5;0.02;0.02;13;92;0;0;0.68999999999999995;0.31;0.0;0.0;0;1.811261941995781;63;52;21;2;nein
2019_03_21 12:16;44;3;1;timed;75;93;0;87;81;73;98;0.80000000000000004;0.040000000000000001;0.14999999999999999;0.0099999999999999499;5;71;0;0;0.51000000000000001;0.48999999999999999;0.0;0.0;0;1.5010452253184212;63;52;21;2;nein
2019_03_21 12:16;44;4;1;control;1;85;1;31;22;82;50;0.11;0.69999999999999996;0.01;0.17999999999999999;3;99;0;0;0.62;0.38;0.0;0.0;0;3.309795611785603;63;52;21;2;nein
2019_03_21 12:16;44;4;1;control;2;119;1;60;58;11;18;0.25;0.72999999999999998;0.01;0.01;96;23;42;85;0.44;0.48999999999999999;0.059999999999999998;0.010000000000000101;0;4.372728182404671;63;52;21;2;nein
2019_03_21 12:16;44;4;1;control;3;1;0;22;51;0;0;0.26000000000000001;0.73999999999999999;0.0;0.0;14;11;92;31;0.29999999999999999;0.40999999999999998;0.14999999999999999;0.14000000000000001;0;2.351768191538895;63;52;21;2;nein
2019_03_21 12:16;44;4;1;control;4;115;0;50;28;61;79;0.83999999999999997;0.040000000000000001;0.059999999999999998;0.059999999999999998;1;26;97;55;0.45000000000000001;0.080000000000000002;0.40999999999999998;0.060000000000000102;0;2.5615861895555554;63;52;21;2;nein
2019_03_21 12:16;44;4;1;control;5;44;1;79;74;0;0;0.71999999999999997;0.28000000000000003;0.0;0.0;3;67;15;36;0.41999999999999998;0.53000000000000003;0.02;0.029999999999999999;0;2.191506189247775;63;52;21;2;nein
2019_03_21 12:16;44;4;1;control;6;37;0;14;98;0;0;0.93000000000000005;0.070000000000000007;0.0;0.0;41;2;87;66;0.17999999999999999;0.48999999999999999;0.32000000000000001;0.010000000000000101;0;1.981387035485568;63;52;21;2;nein
2019_03_21 12:16;44;4;1;control;7;122;1;35;58;25;31;0.81999999999999995;0.070000000000000007;0.080000000000000002;0.029999999999999999;18;64;68;89;0.63;0.17000000000000001;0.11;0.089999999999999997;0;2.681663944825914;63;52;21;2;nein
2019_03_21 12:16;44;4;1;control;8;78;0;74;36;34;3;0.14999999999999999;0.64000000000000001;0.13;0.080000000000000002;1;83;0;0;0.41999999999999998;0.57999999999999996;0.0;0.0;0;2.5917675116131704;63;52;21;2;nein
2019_03_21 12:16;44;4;1;control;9;100;1;27;14;59;52;0.02;0.95999999999999996;0.01;0.01;17;98;0;0;0.48999999999999999;0.51000000000000001;0.0;0.0;0;2.591633130082755;63;52;21;2;nein
2019_03_21 12:16;44;4;1;control;10;104;0;55;85;93;3;0.87;0.02;0.089999999999999997;0.02;1;2;90;8;0.35999999999999999;0.070000000000000007;0.40000000000000002;0.17000000000000001;0;3.762337763968162;63;52;21;2;nein
2019_03_21 12:16;44;4;1;control;11;5;0;70;5;0;0;0.98999999999999999;0.01;0.0;0.0;92;87;47;1;0.44;0.02;0.16;0.38;0;2.8418845742830854;63;52;21;2;nein
2019_03_21 12:16;44;4;1;control;12;83;1;17;12;7;41;0.65000000000000002;0.19;0.089999999999999997;0.070000000000000007;6;84;0;0;0.72999999999999998;0.27000000000000002;0.0;0.0;0;5.033155034592937;63;52;21;2;nein
2019_03_21 12:16;44;4;1;control;13;63;1;56;78;42;36;0.93000000000000005;0.040000000000000001;0.01;0.0199999999999999;2;72;0;0;0.32000000000000001;0.68000000000000005;0.0;0.0;0;2.19148021095657;63;52;21;2;nein
2019_03_21 12:16;44;4;1;control;14;38;0;40;70;0;0;0.53000000000000003;0.46999999999999997;0.0;0.0;97;90;6;96;0.56999999999999995;0.070000000000000007;0.27000000000000002;0.089999999999999997;0;2.5815904358837543;63;52;21;2;nein
2019_03_21 12:16;44;4;1;control;15;80;0;47;39;45;10;0.13;0.76000000000000001;0.059999999999999998;0.050000000000000003;2;87;0;0;0.48999999999999999;0.51000000000000001;0.0;0.0;0;2.501539133569395;63;52;21;2;nein
2019_03_21 12:16;44;4;1;control;16;124;0;37;65;15;41;0.17999999999999999;0.45000000000000001;0.02;0.34999999999999998;40;7;98;30;0.070000000000000007;0.45000000000000001;0.45000000000000001;0.029999999999999898;0;4.242663538153465;63;52;21;2;nein
2019_03_21 12:16;44;4;1;control;17;132;1;27;70;21;19;0.64000000000000001;0.23000000000000001;0.029999999999999999;0.10000000000000001;11;85;55;6;0.39000000000000001;0.46999999999999997;0.029999999999999999;0.11;0;4.1025824987139;63;52;21;2;nein
2019_03_21 12:16;44;4;1;control;18;134;1;57;48;50;55;0.02;0.62;0.17999999999999999;0.17999999999999999;80;96;15;18;0.23999999999999999;0.35999999999999999;0.33000000000000002;0.070000000000000007;0;2.6817749138226645;63;52;21;2;nein
2019_03_21 12:16;44;4;1;control;19;145;1;91;89;90;74;0.57999999999999996;0.29999999999999999;0.11;0.010000000000000101;2;75;84;39;0.32000000000000001;0.27000000000000002;0.39000000000000001;0.0199999999999999;0;2.2413643028774004;63;52;21;2;nein
2019_03_21 12:16;44;4;1;control;20;56;1;28;84;37;41;0.68000000000000005;0.28000000000000003;0.02;0.0199999999999999;6;95;0;0;0.72999999999999998;0.27000000000000002;0.0;0.0;0;1.7110617487944637;63;52;21;2;nein
2019_03_21 12:16;44;4;1;control;21;10;1;45;62;0;0;0.059999999999999998;0.93999999999999995;0.0;0.0;17;99;28;67;0.58999999999999997;0.34000000000000002;0.01;0.059999999999999998;0;3.1319495135967372;63;52;21;2;nein
2019_03_21 12:16;44;4;1;control;22;61;1;43;18;39;70;0.75;0.089999999999999997;0.089999999999999997;0.070000000000000007;16;66;0;0;0.64000000000000001;0.35999999999999999;0.0;0.0;0;4.56299479023005;63;52;21;2;nein
2019_03_21 12:16;44;4;1;control;23;142;0;98;65;64;84;0.88;0.070000000000000007;0.01;0.040000000000000001;5;68;60;16;0.46000000000000002;0.080000000000000002;0.27000000000000002;0.19;0;1.921246650083276;63;52;21;2;nein
2019_03_21 12:16;44;4;1;control;24;118;1;62;52;65;68;0.40999999999999998;0.44;0.10000000000000001;0.0500000000000001;79;20;14;37;0.56999999999999995;0.23999999999999999;0.14000000000000001;0.050000000000000003;0;1.8811489973661537;63;52;21;2;nein
2019_03_21 12:16;44;4;1;control;25;13;0;52;56;0;0;0.46999999999999997;0.53000000000000003;0.0;0.0;94;71;27;2;0.089999999999999997;0.31;0.57999999999999996;0.020000000000000101;0;2.3115403266465364;63;52;21;2;nein
2019_03_21 12:16;44;4;1;control;26;147;1;39;43;76;28;0.14000000000000001;0.10000000000000001;0.10000000000000001;0.66000000000000003;6;31;68;85;0.27000000000000002;0.20000000000000001;0.22;0.31;0;2.9619918357607276;63;52;21;2;nein
2019_03_21 12:16;44;4;1;control;27;29;0;44;51;0;0;0.78000000000000003;0.22;0.0;0.0;74;1;68;82;0.69999999999999996;0.28000000000000003;0.01;0.01;0;1.791098618724618;63;52;21;2;nein
2019_03_21 12:16;44;4;1;control;28;15;0;77;81;0;0;0.28000000000000003;0.71999999999999997;0.0;0.0;98;14;87;18;0.55000000000000004;0.23000000000000001;0.16;0.059999999999999901;0;3.3020807007594613;63;52;21;2;nein
2019_03_21 12:16;44;4;1;control;29;9;1;61;69;0;0;0.93999999999999995;0.060000000000000102;0.0;0.0;18;93;72;16;0.40999999999999998;0.34999999999999998;0.089999999999999997;0.14999999999999999;0;3.192104331383007;63;52;21;2;nein
2019_03_21 12:16;44;4;1;control;30;150;0;25;21;78;38;0.84999999999999998;0.059999999999999998;0.050000000000000003;0.040000000000000001;31;43;64;95;0.059999999999999998;0.45000000000000001;0.13;0.35999999999999999;1;4.162639497008968;63;52;21;2;nein
2019_03_21 12:16;44;4;1;control;31;125;0;37;41;10;35;0.91000000000000003;0.040000000000000001;0.029999999999999999;0.02;7;13;91;93;0.26000000000000001;0.39000000000000001;0.16;0.19;0;7.204749986209208;63;52;21;2;nein
2019_03_21 12:16;44;4;1;control;32;103;0;38;49;89;50;0.89000000000000001;0.070000000000000007;0.01;0.029999999999999999;6;64;99;27;0.70999999999999996;0.17999999999999999;0.059999999999999998;0.050000000000000003;0;3.5221283725275043;63;52;21;2;nein
2019_03_21 12:16;44;4;1;control;33;113;1;85;65;39;64;0.44;0.34000000000000002;0.13;0.089999999999999997;87;2;4;35;0.67000000000000004;0.17000000000000001;0.11;0.049999999999999899;0;5.58354233563432;63;52;21;2;nein
2019_03_21 12:16;44;4;1;control;34;99;1;8;24;15;73;0.56000000000000005;0.35999999999999999;0.070000000000000007;0.0099999999999999499;88;12;0;0;0.52000000000000002;0.47999999999999998;0.0;0.0;0;4.822949927966192;63;52;21;2;nein
2019_03_21 12:16;44;4;1;control;35;27;1;44;26;0;0;0.35999999999999999;0.64000000000000001;0.0;0.0;63;10;3;5;0.58999999999999997;0.19;0.14999999999999999;0.070000000000000007;0;2.9819893469762064;63;52;21;2;nein
2019_03_21 12:16;44;4;1;control;36;20;1;44;40;0;0;0.91000000000000003;0.089999999999999997;0.0;0.0;29;5;80;99;0.25;0.40000000000000002;0.26000000000000001;0.089999999999999997;0;1.901095834878106;63;52;21;2;nein
2019_03_21 12:16;44;4;1;control;37;105;1;49;74;63;58;0.84999999999999998;0.080000000000000002;0.02;0.050000000000000003;97;5;86;8;0.25;0.52000000000000002;0.070000000000000007;0.16;0;2.6016001344455617;63;52;21;2;nein
2019_03_21 12:16;44;4;1;control;38;135;1;48;60;41;51;0.14000000000000001;0.40000000000000002;0.089999999999999997;0.37;94;1;85;65;0.64000000000000001;0.29999999999999999;0.01;0.050000000000000003;0;4.092553274740112;63;52;21;2;nein
2019_03_21 12:16;44;4;1;control;39;26;1;76;41;0;0;0.57999999999999996;0.41999999999999998;0.0;0.0;61;79;84;2;0.13;0.029999999999999999;0.67000000000000004;0.17000000000000001;0;2.191370524838476;63;52;21;2;nein
2019_03_21 12:16;44;4;1;control;40;111;0;51;36;48;27;0.93000000000000005;0.01;0.01;0.049999999999999899;31;78;30;53;0.55000000000000004;0.16;0.029999999999999999;0.26000000000000001;1;3.3220573651983614;63;52;21;2;nein
2019_03_21 12:16;44;4;1;control;41;58;1;37;58;76;34;0.20999999999999999;0.57999999999999996;0.19;0.020000000000000101;86;5;0;0;0.47999999999999998;0.52000000000000002;0.0;0.0;0;1.781149895381077;63;52;21;2;nein
2019_03_21 12:16;44;4;1;control;42;112;1;70;44;98;64;0.02;0.75;0.12;0.11;33;2;63;85;0.23999999999999999;0.31;0.080000000000000002;0.37;0;1.6910286376985368;63;52;21;2;nein
2019_03_21 12:16;44;4;1;control;43;65;0;75;64;59;52;0.59999999999999998;0.22;0.14000000000000001;0.040000000000000001;1;99;0;0;0.35999999999999999;0.64000000000000001;0.0;0.0;0;2.5517567739198057;63;52;21;2;nein
2019_03_21 12:16;44;4;1;control;44;149;0;14;89;73;53;0.93999999999999995;0.01;0.01;0.040000000000000001;97;45;6;13;0.34000000000000002;0.01;0.40999999999999998;0.23999999999999999;0;2.80174073793728;63;52;21;2;nein
2019_03_21 12:16;44;4;1;control;45;127;0;89;26;62;79;0.02;0.28999999999999998;0.53000000000000003;0.16;96;6;60;13;0.53000000000000003;0.25;0.17000000000000001;0.050000000000000003;0;2.8819129515572968;63;52;21;2;nein
2019_03_21 12:16;44;4;1;control;46;30;0;33;30;0;0;0.71999999999999997;0.28000000000000003;0.0;0.0;9;88;1;14;0.55000000000000004;0.39000000000000001;0.01;0.049999999999999899;0;1.9511867909691318;63;52;21;2;nein
2019_03_21 12:16;44;4;1;control;47;53;1;26;70;50;80;0.29999999999999999;0.59999999999999998;0.040000000000000001;0.059999999999999998;89;1;0;0;0.40999999999999998;0.58999999999999997;0.0;0.0;0;1.5509495225767296;63;52;21;2;nein
2019_03_21 12:16;44;4;1;control;48;68;1;84;27;55;62;0.01;0.050000000000000003;0.40999999999999998;0.53000000000000003;9;82;0;0;0.37;0.63;0.0;0.0;0;1.7111781700250503;63;52;21;2;nein
2019_03_21 12:16;44;4;1;control;49;71;1;68;55;36;51;0.20000000000000001;0.75;0.02;0.029999999999999999;38;81;0;0;0.52000000000000002;0.47999999999999998;0.0;0.0;0;2.8318566331877264;63;52;21;2;nein
2019_03_21 12:16;44;4;1;control;50;91;0;74;81;86;48;0.93000000000000005;0.02;0.01;0.039999999999999897;7;64;0;0;0.13;0.87;0.0;0.0;0;2.651651962740061;63;52;21;2;nein
2019_03_21 12:16;44;4;1;control;51;42;1;70;48;0;0;0.79000000000000004;0.20999999999999999;0.0;0.0;51;8;12;67;0.19;0.26000000000000001;0.28999999999999998;0.26000000000000001;0;3.8724302338559937;63;52;21;2;nein
2019_03_21 12:16;44;4;1;control;52;17;1;81;52;0;0;0.059999999999999998;0.93999999999999995;0.0;0.0;34;3;69;41;0.01;0.22;0.75;0.02;0;1.8711682020584703;63;52;21;2;nein
2019_03_21 12:16;44;4;1;control;53;55;0;74;55;47;48;0.60999999999999999;0.31;0.070000000000000007;0.01;97;6;0;0;0.42999999999999999;0.56999999999999995;0.0;0.0;0;3.6322994187278255;63;52;21;2;nein
2019_03_21 12:16;44;4;1;control;54;97;0;17;33;32;74;0.94999999999999996;0.01;0.029999999999999999;0.01;76;23;0;0;0.33000000000000002;0.67000000000000004;0.0;0.0;0;6.113996910828291;63;52;21;2;nein
2019_03_21 12:16;44;4;1;control;55;76;1;39;62;9;28;0.01;0.51000000000000001;0.26000000000000001;0.22;77;7;0;0;0.57999999999999996;0.41999999999999998;0.0;0.0;0;3.432207243902212;63;52;21;2;nein
2019_03_21 12:16;44;4;1;control;56;131;0;83;41;81;88;0.23999999999999999;0.58999999999999997;0.10000000000000001;0.070000000000000007;82;97;4;17;0.26000000000000001;0.46999999999999997;0.11;0.16;0;2.891794323775457;63;52;21;2;nein
2019_03_21 12:16;44;4;1;control;57;41;1;99;40;0;0;0.89000000000000001;0.11;0.0;0.0;1;67;52;46;0.51000000000000001;0.38;0.029999999999999999;0.080000000000000002;0;3.472196814099334;63;52;21;2;nein
2019_03_21 12:16;44;4;1;control;58;96;0;51;54;39;7;0.17000000000000001;0.26000000000000001;0.10000000000000001;0.46999999999999997;24;96;0;0;0.28000000000000003;0.71999999999999997;0.0;0.0;1;3.752481087162323;63;52;21;2;nein
2019_03_21 12:16;44;4;1;control;59;54;0;44;79;78;52;0.79000000000000004;0.19;0.01;0.0099999999999999603;96;1;0;0;0.28000000000000003;0.71999999999999997;0.0;0.0;0;1.831133089672221;63;52;21;2;nein
2019_03_21 12:16;44;4;1;control;60;101;1;30;96;61;45;0.65000000000000002;0.14000000000000001;0.11;0.10000000000000001;3;98;63;89;0.75;0.19;0.040000000000000001;0.02;0;2.041264110060638;63;52;21;2;nein
2019_03_21 12:16;44;4;1;control;61;40;0;45;49;0;0;0.68999999999999995;0.31;0.0;0.0;2;92;65;73;0.23999999999999999;0.59999999999999998;0.11;0.050000000000000003;1;3.71233917513473;63;52;21;2;nein
2019_03_21 12:16;44;4;1;control;62;7;0;49;29;0;0;0.95999999999999996;0.040000000000000001;0.0;0.0;23;99;64;25;0.68999999999999995;0.12;0.059999999999999998;0.13;0;4.272829144948446;63;52;21;2;nein
2019_03_21 12:16;44;4;1;control;63;64;0;48;39;34;19;0.46000000000000002;0.5;0.02;0.02;13;92;0;0;0.68999999999999995;0.31;0.0;0.0;0;3.352076723836035;63;52;21;2;nein
2019_03_21 12:16;44;4;1;control;64;3;0;53;40;0;0;0.31;0.68999999999999995;0.0;0.0;96;24;7;88;0.11;0.27000000000000002;0.58999999999999997;0.029999999999999999;0;4.152740164490751;63;52;21;2;nein
2019_03_21 12:16;44;4;1;control;65;81;0;67;38;52;65;0.27000000000000002;0.35999999999999999;0.01;0.35999999999999999;2;77;0;0;0.14000000000000001;0.85999999999999999;0.0;0.0;0;2.5115433414111976;63;52;21;2;nein
2019_03_21 12:16;44;4;1;control;66;138;1;8;20;43;51;0.38;0.5;0.02;0.10000000000000001;72;82;70;1;0.39000000000000001;0.050000000000000003;0.070000000000000007;0.48999999999999999;0;4.362900370366788;63;52;21;2;nein
2019_03_21 12:16;44;4;1;control;67;74;0;66;47;52;44;0.41999999999999998;0.26000000000000001;0.17999999999999999;0.14000000000000001;17;99;0;0;0.47999999999999998;0.52000000000000002;0.0;0.0;0;2.471557940569255;63;52;21;2;nein
2019_03_21 12:16;44;4;1;control;68;114;0;57;39;79;97;0.77000000000000002;0.02;0.13;0.080000000000000002;92;36;6;1;0.54000000000000004;0.12;0.13;0.20999999999999999;0;2.201364790370917;63;52;21;2;nein
2019_03_21 12:16;44;4;1;control;69;102;1;40;56;53;17;0.28000000000000003;0.26000000000000001;0.14999999999999999;0.31;1;76;29;62;0.68000000000000005;0.23000000000000001;0.050000000000000003;0.039999999999999897;0;5.253471148702374;63;52;21;2;nein
2019_03_21 12:16;44;4;1;control;70;59;1;56;47;83;90;0.31;0.12;0.54000000000000004;0.029999999999999898;10;98;0;0;0.46999999999999997;0.53000000000000003;0.0;0.0;0;2.631783701540826;63;52;21;2;nein
2019_03_21 12:16;44;4;1;control;71;136;1;29;67;14;75;0.46000000000000002;0.29999999999999999;0.20999999999999999;0.0300000000000001;70;86;1;85;0.31;0.39000000000000001;0.27000000000000002;0.029999999999999898;0;2.2014783251252084;63;52;21;2;nein
2019_03_21 12:16;44;4;1;control;72;25;1;50;53;0;0;0.82999999999999996;0.17000000000000001;0.0;0.0;83;16;97;4;0.45000000000000001;0.29999999999999999;0.11;0.14000000000000001;0;2.701633232712993;63;52;21;2;nein
2019_03_21 12:16;44;4;1;control;73;46;0;5;19;0;0;0.32000000000000001;0.68000000000000005;0.0;0.0;88;38;97;66;0.60999999999999999;0.20000000000000001;0.040000000000000001;0.14999999999999999;1;2.511761430768729;63;52;21;2;nein
2019_03_21 12:16;44;4;1;control;74;69;0;54;34;64;49;0.34000000000000002;0.25;0.20999999999999999;0.20000000000000001;14;98;0;0;0.62;0.38;0.0;0.0;0;2.161341544611332;63;52;21;2;nein
2019_03_21 12:16;44;4;1;control;75;36;1;70;17;0;0;0.33000000000000002;0.67000000000000004;0.0;0.0;84;1;12;88;0.22;0.27000000000000002;0.14000000000000001;0.37;0;4.232811030703033;63;52;21;2;nein
