date;id;block;order;cond;trial;gameid;leftright;oa1;oa2;oa3;oa4;pa1;pa2;pa3;pa4;ob1;ob2;ob3;ob4;pb1;pb2;pb3;pb4;choice;rt;paytrial;payout;alter;geschlecht;comment
2019_02_22 11:21;11;0;0;practice;1;57;0;39;68;59;91;0.73999999999999999;0.040000000000000001;0.14999999999999999;0.070000000000000007;9;22;40;84;0.29999999999999999;0.32000000000000001;0.040000000000000001;0.34000000000000002;0;15.460945397771866;15;9;22;2;spannendes experiment
2019_02_22 11:21;11;0;0;practice;2;40;0;29;65;30;41;0.70999999999999996;0.01;0.14999999999999999;0.13;2;59;0;0;0.32000000000000001;0.68000000000000005;0.0;0.0;0;44.66594333232388;15;9;22;2;spannendes experiment
2019_02_22 11:21;11;0;0;practice;3;55;1;53;11;80;74;0.31;0.37;0.28000000000000003;0.039999999999999897;6;93;98;96;0.69999999999999996;0.22;0.050000000000000003;0.029999999999999999;1;8.333128819795093;15;9;22;2;spannendes experiment
2019_02_22 11:21;11;0;0;practice;4;32;0;21;86;16;78;0.45000000000000001;0.41999999999999998;0.050000000000000003;0.080000000000000099;95;9;0;0;0.42999999999999999;0.56999999999999995;0.0;0.0;1;9.149956959148767;15;9;22;2;spannendes experiment
2019_02_22 11:21;11;0;0;practice;5;43;1;11;17;21;44;0.16;0.46000000000000002;0.25;0.13;2;66;0;0;0.44;0.56000000000000005;0.0;0.0;1;10.133270129776065;15;9;22;2;spannendes experiment
2019_02_22 11:21;11;0;0;practice;6;69;0;38;74;27;73;0.22;0.19;0.45000000000000001;0.14000000000000001;1;97;79;84;0.28000000000000003;0.45000000000000001;0.17000000000000001;0.10000000000000001;1;11.366306838299352;15;9;22;2;spannendes experiment
2019_02_22 11:21;11;0;0;practice;7;16;0;50;42;0;0;0.32000000000000001;0.68000000000000005;0.0;0.0;97;2;56;31;0.35999999999999999;0.16;0.16;0.32000000000000001;0;8.833087446695572;15;9;22;2;spannendes experiment
2019_02_22 11:21;11;0;0;practice;8;45;0;37;40;75;23;0.54000000000000004;0.38;0.059999999999999998;0.02;1;90;0;0;0.28000000000000003;0.71999999999999997;0.0;0.0;1;7.916474447460132;15;9;22;2;spannendes experiment
2019_02_22 11:21;11;0;0;practice;9;3;1;20;70;0;0;0.13;0.87;0.0;0.0;95;19;80;73;0.31;0.57999999999999996;0.029999999999999999;0.080000000000000002;0;7.149956317703982;15;9;22;2;spannendes experiment
2019_02_22 11:21;11;0;0;practice;10;35;0;84;95;4;35;0.89000000000000001;0.050000000000000003;0.01;0.050000000000000003;5;98;0;0;0.19;0.81000000000000005;0.0;0.0;0;5.783052616317946;15;9;22;2;spannendes experiment
2019_02_22 11:21;11;0;0;practice;11;20;1;32;11;0;0;0.40999999999999998;0.58999999999999997;0.0;0.0;1;86;42;65;0.45000000000000001;0.38;0.050000000000000003;0.12;0;7.333145176602557;15;9;22;2;spannendes experiment
2019_02_22 11:21;11;0;0;practice;12;33;0;54;82;55;71;0.56000000000000005;0.20999999999999999;0.02;0.20999999999999999;13;99;0;0;0.5;0.5;0.0;0.0;1;18.682945110404034;15;9;22;2;spannendes experiment
2019_02_22 11:21;11;0;0;practice;13;46;0;79;57;98;81;0.67000000000000004;0.070000000000000007;0.20999999999999999;0.050000000000000003;1;76;0;0;0.56000000000000005;0.44;0.0;0.0;0;14.93307083331274;15;9;22;2;spannendes experiment
2019_02_22 11:21;11;0;0;practice;14;27;0;68;43;98;36;0.54000000000000004;0.44;0.01;0.0099999999999999603;97;13;0;0;0.27000000000000002;0.72999999999999998;0.0;0.0;0;11.149926811309342;15;9;22;2;spannendes experiment
2019_02_22 11:21;11;0;0;practice;15;24;1;19;38;0;0;0.89000000000000001;0.11;0.0;0.0;45;76;95;57;0.29999999999999999;0.22;0.40000000000000002;0.080000000000000002;0;7.166640260580607;15;9;22;2;spannendes experiment
2019_02_22 11:21;11;0;0;practice;16;73;1;99;88;95;28;0.83999999999999997;0.14000000000000001;0.01;0.01;90;93;10;74;0.080000000000000002;0.46000000000000002;0.34999999999999998;0.11;0;27.14962982301222;15;9;22;2;spannendes experiment
2019_02_22 11:21;11;0;0;practice;17;6;1;42;59;0;0;0.35999999999999999;0.64000000000000001;0.0;0.0;77;19;6;7;0.44;0.14999999999999999;0.17999999999999999;0.23000000000000001;0;9.399807502835756;15;9;22;2;spannendes experiment
2019_02_22 11:21;11;0;0;practice;18;54;0;69;80;22;55;0.27000000000000002;0.31;0.059999999999999998;0.35999999999999999;52;2;49;90;0.059999999999999998;0.33000000000000002;0.20000000000000001;0.40999999999999998;0;8.266470662945721;15;9;22;2;spannendes experiment
2019_02_22 11:21;11;0;0;practice;19;10;0;34;59;0;0;0.16;0.83999999999999997;0.0;0.0;21;61;96;7;0.19;0.01;0.5;0.29999999999999999;0;24.532846392265128;15;9;22;2;spannendes experiment
2019_02_22 11:21;11;0;0;practice;20;66;0;44;18;63;36;0.47999999999999998;0.10000000000000001;0.029999999999999999;0.39000000000000001;13;93;61;53;0.52000000000000002;0.45000000000000001;0.02;0.0099999999999999707;0;8.54977151786079;15;9;22;2;spannendes experiment
2019_02_22 11:21;11;0;0;practice;21;14;0;92;56;0;0;0.11;0.89000000000000001;0.0;0.0;97;31;51;4;0.58999999999999997;0.22;0.080000000000000002;0.11;0;6.149879023774702;15;9;22;2;spannendes experiment
2019_02_22 11:21;11;0;0;practice;22;19;0;25;73;0;0;0.69999999999999996;0.29999999999999999;0.0;0.0;87;84;1;86;0.040000000000000001;0.59999999999999998;0.28000000000000003;0.080000000000000002;1;5.533065124465793;15;9;22;2;spannendes experiment
2019_02_22 11:21;11;0;0;practice;23;22;0;84;87;0;0;0.17000000000000001;0.82999999999999996;0.0;0.0;3;24;41;83;0.68000000000000005;0.11;0.10000000000000001;0.11;0;8.36642422244222;15;9;22;2;spannendes experiment
2019_02_22 11:21;11;0;0;practice;24;13;1;15;25;0;0;0.29999999999999999;0.69999999999999996;0.0;0.0;3;43;35;73;0.44;0.40000000000000002;0.01;0.14999999999999999;0;7.566460592282965;15;9;22;2;spannendes experiment
2019_02_22 11:21;11;0;0;practice;25;8;1;20;44;0;0;0.26000000000000001;0.73999999999999999;0.0;0.0;99;3;69;24;0.20999999999999999;0.60999999999999999;0.12;0.060000000000000102;0;9.666398757139177;15;9;22;2;spannendes experiment
2019_02_22 11:21;11;0;0;practice;26;4;1;40;59;0;0;0.19;0.81000000000000005;0.0;0.0;10;88;13;45;0.56000000000000005;0.28999999999999998;0.01;0.14000000000000001;0;7.966485223709242;15;9;22;2;spannendes experiment
2019_02_22 11:21;11;0;0;practice;27;31;1;72;59;40;92;0.59999999999999998;0.34999999999999998;0.02;0.029999999999999999;97;29;0;0;0.38;0.62;0.0;0.0;0;7.149794673965516;15;9;22;2;spannendes experiment
2019_02_22 11:21;11;0;0;practice;28;59;0;13;27;48;51;0.56999999999999995;0.13;0.13;0.17000000000000001;8;37;97;1;0.65000000000000002;0.16;0.14999999999999999;0.040000000000000001;1;22.76633146972563;15;9;22;2;spannendes experiment
2019_02_22 11:21;11;0;0;practice;29;23;1;99;93;0;0;0.57999999999999996;0.41999999999999998;0.0;0.0;64;10;80;81;0.13;0.55000000000000004;0.02;0.29999999999999999;0;8.416665597595056;15;9;22;2;spannendes experiment
2019_02_22 11:21;11;0;0;practice;30;72;1;86;85;97;43;0.51000000000000001;0.14999999999999999;0.33000000000000002;0.0099999999999999499;72;29;10;90;0.01;0.11;0.65000000000000002;0.23000000000000001;0;24.416369892187504;15;9;22;2;spannendes experiment
2019_02_22 11:21;11;0;0;practice;31;7;1;13;31;0;0;0.51000000000000001;0.48999999999999999;0.0;0.0;8;79;42;18;0.85999999999999999;0.089999999999999997;0.02;0.029999999999999999;0;6.650104491129241;15;9;22;2;spannendes experiment
2019_02_22 11:21;11;0;0;practice;32;12;1;45;86;0;0;0.97999999999999998;0.02;0.0;0.0;6;23;95;81;0.14999999999999999;0.40999999999999998;0.050000000000000003;0.39000000000000001;0;4.81674699676114;15;9;22;2;spannendes experiment
2019_02_22 11:21;11;0;0;practice;33;15;0;24;59;0;0;0.56999999999999995;0.42999999999999999;0.0;0.0;9;8;80;22;0.31;0.10000000000000001;0.55000000000000004;0.039999999999999897;1;13.116409789965473;15;9;22;2;spannendes experiment
2019_02_22 11:21;11;0;0;practice;34;70;0;21;42;14;63;0.96999999999999997;0.01;0.01;0.01;70;2;6;76;0.23999999999999999;0.42999999999999999;0.01;0.32000000000000001;0;6.383315351535202;15;9;22;2;spannendes experiment
2019_02_22 11:21;11;0;0;practice;35;9;0;57;44;0;0;0.14999999999999999;0.84999999999999998;0.0;0.0;38;35;64;95;0.34000000000000002;0.45000000000000001;0.089999999999999997;0.12;0;15.566467327438659;15;9;22;2;spannendes experiment
2019_02_22 11:21;11;0;0;practice;36;30;0;54;78;85;25;0.20999999999999999;0.60999999999999999;0.089999999999999997;0.090000000000000094;87;20;0;0;0.58999999999999997;0.40999999999999998;0.0;0.0;0;7.11663397443408;15;9;22;2;spannendes experiment
2019_02_22 11:21;11;0;0;practice;37;64;1;44;60;96;45;0.53000000000000003;0.10000000000000001;0.029999999999999999;0.34000000000000002;88;20;43;31;0.47999999999999998;0.38;0.050000000000000003;0.089999999999999997;0;4.9498715188874485;15;9;22;2;spannendes experiment
2019_02_22 11:21;11;0;0;practice;38;53;1;47;24;95;38;0.57999999999999996;0.28000000000000003;0.02;0.12;8;22;93;96;0.54000000000000004;0.34000000000000002;0.10000000000000001;0.0199999999999999;1;1.8499285432044417;15;9;22;2;spannendes experiment
2019_02_22 11:21;11;0;0;practice;39;18;0;47;36;0;0;0.089999999999999997;0.91000000000000003;0.0;0.0;2;44;81;9;0.20000000000000001;0.25;0.51000000000000001;0.040000000000000001;0;2.45004214283108;15;9;22;2;spannendes experiment
2019_02_22 11:21;11;0;0;practice;40;65;1;35;15;77;1;0.62;0.33000000000000002;0.029999999999999999;0.02;68;3;25;96;0.38;0.28000000000000003;0.28000000000000003;0.059999999999999901;0;2.816568996218848;15;9;22;2;spannendes experiment
2019_02_22 11:21;11;0;0;practice;41;47;1;91;99;90;78;0.93000000000000005;0.040000000000000001;0.02;0.0099999999999999499;10;87;0;0;0.23000000000000001;0.77000000000000002;0.0;0.0;1;1.5832734652831277;15;9;22;2;spannendes experiment
2019_02_22 11:21;11;0;0;practice;42;49;0;14;31;42;22;0.77000000000000002;0.089999999999999997;0.02;0.12;87;28;0;0;0.68000000000000005;0.32000000000000001;0.0;0.0;1;1.5665705998271733;15;9;22;2;spannendes experiment
2019_02_22 11:21;11;0;0;practice;43;63;1;24;82;6;96;0.91000000000000003;0.070000000000000007;0.01;0.0099999999999999603;73;10;71;22;0.31;0.51000000000000001;0.050000000000000003;0.13;0;1.7833730172987998;15;9;22;2;spannendes experiment
2019_02_22 11:21;11;0;0;practice;44;21;0;59;69;0;0;0.34000000000000002;0.66000000000000003;0.0;0.0;64;18;5;24;0.14999999999999999;0.040000000000000001;0.51000000000000001;0.29999999999999999;0;2.0833485141592973;15;9;22;2;spannendes experiment
2019_02_22 11:21;11;0;0;practice;45;41;1;19;54;51;8;0.76000000000000001;0.070000000000000007;0.16;0.0099999999999999794;2;77;0;0;0.54000000000000004;0.46000000000000002;0.0;0.0;0;3.466992284718799;15;9;22;2;spannendes experiment
2019_02_22 11:21;11;0;0;practice;46;44;1;69;48;22;63;0.39000000000000001;0.40999999999999998;0.19;0.01;1;94;0;0;0.22;0.78000000000000003;0.0;0.0;1;2.500070238053013;15;9;22;2;spannendes experiment
2019_02_22 11:21;11;0;0;practice;47;58;1;44;50;85;42;0.38;0.57999999999999996;0.02;0.02;37;88;19;12;0.20000000000000001;0.29999999999999999;0.46000000000000002;0.040000000000000001;0;3.533357301934302;15;9;22;2;spannendes experiment
2019_02_22 11:21;11;0;0;practice;48;56;1;47;52;64;10;0.77000000000000002;0.040000000000000001;0.11;0.080000000000000002;1;5;12;99;0.14000000000000001;0.28999999999999998;0.27000000000000002;0.29999999999999999;0;2.0334034858587984;15;9;22;2;spannendes experiment
2019_02_22 11:21;11;0;0;practice;49;26;1;24;46;74;59;0.29999999999999999;0.11;0.25;0.34000000000000002;91;6;0;0;0.28999999999999998;0.70999999999999996;0.0;0.0;1;1.9500533680911758;15;9;22;2;spannendes experiment
2019_02_22 11:21;11;0;0;practice;50;67;0;74;31;10;77;0.11;0.070000000000000007;0.77000000000000002;0.050000000000000003;2;23;8;97;0.56999999999999995;0.01;0.059999999999999998;0.35999999999999999;0;2.1667201202817523;15;9;22;2;spannendes experiment
2019_02_22 11:21;11;0;0;practice;51;36;0;56;89;86;77;0.66000000000000003;0.080000000000000002;0.14999999999999999;0.11;29;91;0;0;0.40999999999999998;0.58999999999999997;0.0;0.0;1;3.616514024519347;15;9;22;2;spannendes experiment
2019_02_22 11:21;11;0;0;practice;52;29;0;66;40;92;49;0.46999999999999997;0.10000000000000001;0.34000000000000002;0.089999999999999997;8;94;0;0;0.44;0.56000000000000005;0.0;0.0;1;4.449822769187449;15;9;22;2;spannendes experiment
2019_02_22 11:21;11;0;0;practice;53;61;0;51;48;56;88;0.91000000000000003;0.02;0.01;0.059999999999999998;78;21;14;82;0.55000000000000004;0.29999999999999999;0.070000000000000007;0.080000000000000002;0;2.583220546201119;15;9;22;2;spannendes experiment
2019_02_22 11:21;11;0;0;practice;54;52;1;17;61;57;59;0.070000000000000007;0.050000000000000003;0.33000000000000002;0.55000000000000004;12;93;94;62;0.71999999999999997;0.16;0.080000000000000002;0.040000000000000001;1;2.366554114731116;15;9;22;2;spannendes experiment
2019_02_22 11:21;11;0;0;practice;55;75;0;21;86;27;62;0.88;0.040000000000000001;0.070000000000000007;0.0099999999999999794;13;3;49;87;0.28999999999999998;0.39000000000000001;0.070000000000000007;0.25;0;2.1499091716141265;15;9;22;2;spannendes experiment
2019_02_22 11:21;11;0;0;practice;56;60;0;39;93;27;78;0.85999999999999999;0.02;0.11;0.01;22;5;62;95;0.059999999999999998;0.56999999999999995;0.14000000000000001;0.23000000000000001;0;2.5332222780998563;15;9;22;2;spannendes experiment
2019_02_22 11:21;11;0;0;practice;57;17;0;27;61;0;0;0.68999999999999995;0.31;0.0;0.0;3;91;69;43;0.29999999999999999;0.33000000000000002;0.27000000000000002;0.099999999999999895;0;2.133414133819315;15;9;22;2;spannendes experiment
2019_02_22 11:21;11;0;0;practice;58;5;1;23;58;0;0;0.71999999999999997;0.28000000000000003;0.0;0.0;94;12;52;3;0.11;0.84999999999999998;0.029999999999999999;0.01;0;2.283246973671339;15;9;22;2;spannendes experiment
2019_02_22 11:21;11;0;0;practice;59;42;1;23;45;91;22;0.72999999999999998;0.02;0.20000000000000001;0.050000000000000003;2;86;0;0;0.40999999999999998;0.58999999999999997;0.0;0.0;0;2.883414133819315;15;9;22;2;spannendes experiment
2019_02_22 11:21;11;0;0;practice;60;1;1;67;36;0;0;0.14999999999999999;0.84999999999999998;0.0;0.0;1;4;81;77;0.25;0.54000000000000004;0.14000000000000001;0.070000000000000007;0;2.099926618873724;15;9;22;2;spannendes experiment
2019_02_22 11:21;11;0;0;practice;61;48;1;20;25;24;35;0.32000000000000001;0.13;0.48999999999999999;0.059999999999999901;44;76;0;0;0.29999999999999999;0.69999999999999996;0.0;0.0;1;2.4167480230717047;15;9;22;2;spannendes experiment
2019_02_22 11:21;11;0;0;practice;62;11;0;10;44;0;0;0.48999999999999999;0.51000000000000001;0.0;0.0;88;12;54;50;0.17000000000000001;0.75;0.02;0.059999999999999998;1;2.69990551538649;15;9;22;2;spannendes experiment
2019_02_22 11:21;11;0;0;practice;63;62;1;65;52;74;55;0.16;0.12;0.14999999999999999;0.56999999999999995;72;86;2;68;0.12;0.53000000000000003;0.22;0.13;0;8.366451483785568;15;9;22;2;spannendes experiment
2019_02_22 11:21;11;0;0;practice;64;25;0;7;18;0;0;0.20999999999999999;0.79000000000000004;0.0;0.0;92;45;33;13;0.41999999999999998;0.17999999999999999;0.22;0.17999999999999999;0;2.8665493039061403;15;9;22;2;spannendes experiment
2019_02_22 11:21;11;0;0;practice;65;34;0;57;23;66;79;0.56000000000000005;0.23000000000000001;0.13;0.079999999999999905;85;9;0;0;0.56000000000000005;0.44;0.0;0.0;0;8.616644237528817;15;9;22;2;spannendes experiment
2019_02_22 11:21;11;0;0;practice;66;71;0;94;87;26;75;0.71999999999999997;0.23999999999999999;0.02;0.02;90;27;12;83;0.16;0.73999999999999999;0.02;0.080000000000000002;1;2.133404832891756;15;9;22;2;spannendes experiment
2019_02_22 11:21;11;0;0;practice;67;51;0;38;13;51;84;0.91000000000000003;0.070000000000000007;0.01;0.0099999999999999603;4;89;35;16;0.80000000000000004;0.089999999999999997;0.059999999999999998;0.050000000000000003;0;1.766618515648588;15;9;22;2;spannendes experiment
2019_02_22 11:21;11;0;0;practice;68;68;0;39;58;40;8;0.48999999999999999;0.44;0.02;0.050000000000000003;92;83;51;2;0.57999999999999996;0.13;0.02;0.27000000000000002;1;2.0666790037612373;15;9;22;2;spannendes experiment
2019_02_22 11:21;11;0;0;practice;69;39;1;53;65;48;75;0.92000000000000004;0.029999999999999999;0.01;0.040000000000000001;16;83;0;0;0.31;0.68999999999999995;0.0;0.0;0;1.80004252769686;15;9;22;2;spannendes experiment
2019_02_22 11:21;11;0;0;practice;70;37;0;50;66;99;12;0.26000000000000001;0.71999999999999997;0.01;0.01;22;90;0;0;0.37;0.63;0.0;0.0;0;3.1331986088371195;15;9;22;2;spannendes experiment
2019_02_22 11:21;11;0;0;practice;71;2;1;41;60;0;0;0.97999999999999998;0.02;0.0;0.0;10;14;97;6;0.54000000000000004;0.17000000000000001;0.12;0.17000000000000001;0;2.0666042756056413;15;9;22;2;spannendes experiment
2019_02_22 11:21;11;0;0;practice;72;28;1;37;83;75;8;0.83999999999999997;0.070000000000000007;0.01;0.080000000000000002;94;2;0;0;0.19;0.81000000000000005;0.0;0.0;0;1.8332657679620752;15;9;22;2;spannendes experiment
2019_02_22 11:21;11;0;0;practice;73;50;1;17;12;21;14;0.55000000000000004;0.34000000000000002;0.059999999999999998;0.049999999999999899;13;93;0;0;0.28999999999999998;0.70999999999999996;0.0;0.0;1;2.683253323959434;15;9;22;2;spannendes experiment
2019_02_22 11:21;11;0;0;practice;74;38;1;51;89;10;60;0.57999999999999996;0.029999999999999999;0.080000000000000002;0.31;8;84;0;0;0.33000000000000002;0.67000000000000004;0.0;0.0;1;2.4832471019581135;15;9;22;2;spannendes experiment
2019_02_22 11:21;11;0;0;practice;75;74;1;36;46;10;12;0.11;0.19;0.65000000000000002;0.049999999999999899;92;24;79;19;0.51000000000000001;0.40999999999999998;0.02;0.059999999999999998;0;3.6329946298355935;15;9;22;2;spannendes experiment
2019_02_22 11:21;11;1;0;control;1;35;1;33;37;0;0;0.88;0.12;0.0;0.0;63;4;79;98;0.16;0.46000000000000002;0.17000000000000001;0.20999999999999999;0;2.4913004238642316;15;9;22;2;spannendes experiment
2019_02_22 11:21;11;1;0;control;2;20;0;44;40;0;0;0.91000000000000003;0.089999999999999997;0.0;0.0;29;5;80;99;0.25;0.40000000000000002;0.26000000000000001;0.089999999999999997;0;2.383383985981709;15;9;22;2;spannendes experiment
2019_02_22 11:21;11;1;0;control;3;3;0;53;40;0;0;0.31;0.68999999999999995;0.0;0.0;96;24;7;88;0.11;0.27000000000000002;0.58999999999999997;0.029999999999999999;0;2.983239404637061;15;9;22;2;spannendes experiment
2019_02_22 11:21;11;1;0;control;4;124;1;37;65;15;41;0.17999999999999999;0.45000000000000001;0.02;0.34999999999999998;40;7;98;30;0.070000000000000007;0.45000000000000001;0.45000000000000001;0.029999999999999898;1;7.416487276328553;15;9;22;2;spannendes experiment
2019_02_22 11:21;11;1;0;control;5;118;1;62;52;65;68;0.40999999999999998;0.44;0.10000000000000001;0.0500000000000001;79;20;14;37;0.56999999999999995;0.23999999999999999;0.14000000000000001;0.050000000000000003;1;3.9833144535150495;15;9;22;2;spannendes experiment
2019_02_22 11:21;11;1;0;control;6;88;0;77;13;12;7;0.12;0.19;0.66000000000000003;0.029999999999999898;94;2;0;0;0.40999999999999998;0.58999999999999997;0.0;0.0;0;4.099880114228654;15;9;22;2;spannendes experiment
2019_02_22 11:21;11;1;0;control;7;119;0;60;58;11;18;0.25;0.72999999999999998;0.01;0.01;96;23;42;85;0.44;0.48999999999999999;0.059999999999999998;0.010000000000000101;0;2.5001090453788493;15;9;22;2;spannendes experiment
2019_02_22 11:21;11;1;0;control;8;34;0;32;48;0;0;0.28000000000000003;0.71999999999999997;0.0;0.0;97;83;7;62;0.040000000000000001;0.54000000000000004;0.35999999999999999;0.059999999999999901;1;4.283197261805981;15;9;22;2;spannendes experiment
2019_02_22 11:21;11;1;0;control;9;122;1;35;58;25;31;0.81999999999999995;0.070000000000000007;0.080000000000000002;0.029999999999999999;18;64;68;89;0.63;0.17000000000000001;0.11;0.089999999999999997;0;2.9999284790610545;15;9;22;2;spannendes experiment
2019_02_22 11:21;11;1;0;control;10;135;0;48;60;41;51;0.14000000000000001;0.40000000000000002;0.089999999999999997;0.37;94;1;85;65;0.64000000000000001;0.29999999999999999;0.01;0.050000000000000003;1;2.6333605732961587;15;9;22;2;spannendes experiment
2019_02_22 11:21;11;1;0;control;11;26;1;76;41;0;0;0.57999999999999996;0.41999999999999998;0.0;0.0;61;79;84;2;0.13;0.029999999999999999;0.67000000000000004;0.17000000000000001;1;2.8000393204802094;15;9;22;2;spannendes experiment
2019_02_22 11:21;11;1;0;control;12;102;0;40;56;53;17;0.28000000000000003;0.26000000000000001;0.14999999999999999;0.31;1;76;29;62;0.68000000000000005;0.23000000000000001;0.050000000000000003;0.039999999999999897;1;2.9333511440781876;15;9;22;2;spannendes experiment
2019_02_22 11:21;11;1;0;control;13;51;1;52;23;43;16;0.60999999999999999;0.20999999999999999;0.01;0.17000000000000001;92;7;0;0;0.14999999999999999;0.84999999999999998;0.0;0.0;1;3.2668776587815955;15;9;22;2;spannendes experiment
2019_02_22 11:21;11;1;0;control;14;64;1;48;39;34;19;0.46000000000000002;0.5;0.02;0.02;13;92;0;0;0.68999999999999995;0.31;0.0;0.0;1;10.933128883940299;15;9;22;2;spannendes experiment
2019_02_22 11:21;11;1;0;control;15;141;0;93;28;60;91;0.81999999999999995;0.10000000000000001;0.01;0.070000000000000007;14;85;7;89;0.45000000000000001;0.070000000000000007;0.23999999999999999;0.23999999999999999;0;3.299880242517247;15;9;22;2;spannendes experiment
2019_02_22 11:21;11;1;0;control;16;1;1;22;51;0;0;0.26000000000000001;0.73999999999999999;0.0;0.0;14;11;92;31;0.29999999999999999;0.40999999999999998;0.14999999999999999;0.14000000000000001;0;3.266598630902081;15;9;22;2;spannendes experiment
2019_02_22 11:21;11;1;0;control;17;75;0;67;80;36;81;0.81999999999999995;0.080000000000000002;0.059999999999999998;0.040000000000000001;3;97;0;0;0.32000000000000001;0.68000000000000005;0.0;0.0;0;2.716550650937279;15;9;22;2;spannendes experiment
2019_02_22 11:21;11;1;0;control;18;12;1;53;68;0;0;0.31;0.68999999999999995;0.0;0.0;69;54;97;29;0.25;0.20999999999999999;0.20000000000000001;0.34000000000000002;0;6.04982122972433;15;9;22;2;spannendes experiment
2019_02_22 11:21;11;1;0;control;19;42;0;70;48;0;0;0.79000000000000004;0.20999999999999999;0.0;0.0;51;8;12;67;0.19;0.26000000000000001;0.28999999999999998;0.26000000000000001;0;2.9499154577588342;15;9;22;2;spannendes experiment
2019_02_22 11:21;11;1;0;control;20;29;1;44;51;0;0;0.78000000000000003;0.22;0.0;0.0;74;1;68;82;0.69999999999999996;0.28000000000000003;0.01;0.01;0;3.4998219994558895;15;9;22;2;spannendes experiment
2019_02_22 11:21;11;1;0;control;21;70;1;66;55;69;50;0.22;0.29999999999999999;0.29999999999999999;0.17999999999999999;2;90;0;0;0.34000000000000002;0.66000000000000003;0.0;0.0;1;3.3498884529926727;15;9;22;2;spannendes experiment
2019_02_22 11:21;11;1;0;control;22;2;0;59;32;0;0;0.080000000000000002;0.92000000000000004;0.0;0.0;33;38;85;1;0.28999999999999998;0.050000000000000003;0.070000000000000007;0.58999999999999997;0;5.700010712105723;15;9;22;2;spannendes experiment
2019_02_22 11:21;11;1;0;control;23;74;0;66;47;52;44;0.41999999999999998;0.26000000000000001;0.17999999999999999;0.14000000000000001;17;99;0;0;0.47999999999999998;0.52000000000000002;0.0;0.0;1;6.716616719608282;15;9;22;2;spannendes experiment
2019_02_22 11:21;11;1;0;control;24;95;1;93;88;68;85;0.83999999999999997;0.14000000000000001;0.01;0.01;2;82;0;0;0.41999999999999998;0.57999999999999996;0.0;0.0;0;11.016521016252227;15;9;22;2;spannendes experiment
2019_02_22 11:21;11;1;0;control;25;65;0;75;64;59;52;0.59999999999999998;0.22;0.14000000000000001;0.040000000000000001;1;99;0;0;0.35999999999999999;0.64000000000000001;0.0;0.0;1;2.816540772708322;15;9;22;2;spannendes experiment
2019_02_22 11:21;11;1;0;control;26;143;0;88;44;56;73;0.95999999999999996;0.02;0.01;0.01;20;3;87;32;0.19;0.40000000000000002;0.28000000000000003;0.13;0;3.299918408400117;15;9;22;2;spannendes experiment
2019_02_22 11:21;11;1;0;control;27;113;1;85;65;39;64;0.44;0.34000000000000002;0.13;0.089999999999999997;87;2;4;35;0.67000000000000004;0.17000000000000001;0.11;0.049999999999999899;1;4.06642819939043;15;9;22;2;spannendes experiment
2019_02_22 11:21;11;1;0;control;28;53;1;26;70;50;80;0.29999999999999999;0.59999999999999998;0.040000000000000001;0.059999999999999998;89;1;0;0;0.40999999999999998;0.58999999999999997;0.0;0.0;0;21.199697046280562;15;9;22;2;spannendes experiment
2019_02_22 11:21;11;1;0;control;29;9;0;61;69;0;0;0.93999999999999995;0.060000000000000102;0.0;0.0;18;93;72;16;0.40999999999999998;0.34999999999999998;0.089999999999999997;0.14999999999999999;0;5.383172951102097;15;9;22;2;spannendes experiment
2019_02_22 11:21;11;1;0;control;30;85;1;31;22;82;50;0.11;0.69999999999999996;0.01;0.17999999999999999;3;99;0;0;0.62;0.38;0.0;0.0;0;3.5001626059020055;15;9;22;2;spannendes experiment
2019_02_22 11:21;11;1;0;control;31;5;1;70;5;0;0;0.98999999999999999;0.01;0.0;0.0;92;87;47;1;0.44;0.02;0.16;0.38;0;2.3498833214453043;15;9;22;2;spannendes experiment
2019_02_22 11:21;11;1;0;control;32;107;1;52;48;13;63;0.68000000000000005;0.19;0.050000000000000003;0.079999999999999905;54;91;33;3;0.19;0.17999999999999999;0.33000000000000002;0.29999999999999999;0;4.349992366822335;15;9;22;2;spannendes experiment
2019_02_22 11:21;11;1;0;control;33;103;0;38;49;89;50;0.89000000000000001;0.070000000000000007;0.01;0.029999999999999999;6;64;99;27;0.70999999999999996;0.17999999999999999;0.059999999999999998;0.050000000000000003;0;3.1999096847684996;15;9;22;2;spannendes experiment
2019_02_22 11:21;11;1;0;control;34;36;1;70;17;0;0;0.33000000000000002;0.67000000000000004;0.0;0.0;84;1;12;88;0.22;0.27000000000000002;0.14000000000000001;0.37;0;3.2165156922710594;15;9;22;2;spannendes experiment
2019_02_22 11:21;11;1;0;control;35;150;0;25;21;78;38;0.84999999999999998;0.059999999999999998;0.050000000000000003;0.040000000000000001;31;43;64;95;0.059999999999999998;0.45000000000000001;0.13;0.35999999999999999;0;2.7000354076753865;15;9;22;2;spannendes experiment
2019_02_22 11:21;11;1;0;control;36;4;0;40;43;0;0;0.58999999999999997;0.40999999999999998;0.0;0.0;2;33;88;81;0.69999999999999996;0.14000000000000001;0.13;0.029999999999999999;1;2.849885245774203;15;9;22;2;spannendes experiment
2019_02_22 11:21;11;1;0;control;37;142;0;98;65;64;84;0.88;0.070000000000000007;0.01;0.040000000000000001;5;68;60;16;0.46000000000000002;0.080000000000000002;0.27000000000000002;0.19;0;3.0165623893517477;15;9;22;2;spannendes experiment
2019_02_22 11:21;11;1;0;control;38;49;0;21;30;0;0;0.53000000000000003;0.46999999999999997;0.0;0.0;93;99;89;25;0.44;0.02;0.11;0.42999999999999999;0;3.4833474878505513;15;9;22;2;spannendes experiment
2019_02_22 11:21;11;1;0;control;39;63;0;56;78;42;36;0.93000000000000005;0.040000000000000001;0.01;0.0199999999999999;2;72;0;0;0.32000000000000001;0.68000000000000005;0.0;0.0;0;21.983219519892373;15;9;22;2;spannendes experiment
2019_02_22 11:21;11;1;0;control;40;139;0;44;31;16;8;0.79000000000000004;0.070000000000000007;0.13;0.0099999999999999499;92;58;2;88;0.55000000000000004;0.070000000000000007;0.34000000000000002;0.039999999999999897;0;9.399782807264273;15;9;22;2;spannendes experiment
2019_02_22 11:21;11;1;0;control;41;114;1;57;39;79;97;0.77000000000000002;0.02;0.13;0.080000000000000002;92;36;6;1;0.54000000000000004;0.12;0.13;0.20999999999999999;0;4.650095190201682;15;9;22;2;spannendes experiment
2019_02_22 11:21;11;1;0;control;42;57;1;52;35;23;47;0.22;0.68000000000000005;0.040000000000000001;0.059999999999999998;71;7;0;0;0.28999999999999998;0.70999999999999996;0.0;0.0;1;3.4332238175629755;15;9;22;2;spannendes experiment
2019_02_22 11:21;11;1;0;control;43;147;1;39;43;76;28;0.14000000000000001;0.10000000000000001;0.10000000000000001;0.66000000000000003;6;31;68;85;0.27000000000000002;0.20000000000000001;0.22;0.31;0;7.833152873923609;15;9;22;2;spannendes experiment
2019_02_22 11:21;11;1;0;control;44;117;0;65;85;92;41;0.23000000000000001;0.17999999999999999;0.54000000000000004;0.050000000000000003;99;93;10;13;0.64000000000000001;0.16;0.01;0.19;1;2.683270642930438;15;9;22;2;spannendes experiment
2019_02_22 11:21;11;1;0;control;45;56;1;28;84;37;41;0.68000000000000005;0.28000000000000003;0.02;0.0199999999999999;6;95;0;0;0.72999999999999998;0.27000000000000002;0.0;0.0;1;3.0832128488800663;15;9;22;2;spannendes experiment
2019_02_22 11:21;11;1;0;control;46;10;1;45;62;0;0;0.059999999999999998;0.93999999999999995;0.0;0.0;17;99;28;67;0.58999999999999997;0.34000000000000002;0.01;0.059999999999999998;0;4.733211501848928;15;9;22;2;spannendes experiment
2019_02_22 11:21;11;1;0;control;47;100;0;27;14;59;52;0.02;0.95999999999999996;0.01;0.01;17;98;0;0;0.48999999999999999;0.51000000000000001;0.0;0.0;1;11.816532433944303;15;9;22;2;spannendes experiment
2019_02_22 11:21;11;1;0;control;48;137;0;71;22;28;17;0.25;0.46000000000000002;0.050000000000000003;0.23999999999999999;3;98;92;69;0.42999999999999999;0.23999999999999999;0.20000000000000001;0.13;0;8.716443209166755;15;9;22;2;spannendes experiment
2019_02_22 11:21;11;1;0;control;49;97;0;17;33;32;74;0.94999999999999996;0.01;0.029999999999999999;0.01;76;23;0;0;0.33000000000000002;0.67000000000000004;0.0;0.0;0;4.583251976928295;15;9;22;2;spannendes experiment
2019_02_22 11:21;11;1;0;control;50;89;1;26;41;13;56;0.059999999999999998;0.40999999999999998;0.050000000000000003;0.47999999999999998;5;97;0;0;0.37;0.63;0.0;0.0;1;5.449914495595294;15;9;22;2;spannendes experiment
2019_02_22 11:21;11;1;0;control;51;79;0;52;46;29;22;0.17999999999999999;0.51000000000000001;0.23999999999999999;0.070000000000000104;93;14;0;0;0.45000000000000001;0.55000000000000004;0.0;0.0;1;3.383160763676642;15;9;22;2;spannendes experiment
2019_02_22 11:21;11;1;0;control;52;54;1;44;79;78;52;0.79000000000000004;0.19;0.01;0.0099999999999999603;96;1;0;0;0.28000000000000003;0.71999999999999997;0.0;0.0;0;4.249857920285649;15;9;22;2;spannendes experiment
2019_02_22 11:21;11;1;0;control;53;105;0;49;74;63;58;0.84999999999999998;0.080000000000000002;0.02;0.050000000000000003;97;5;86;8;0.25;0.52000000000000002;0.070000000000000007;0.16;0;5.9831906549388805;15;9;22;2;spannendes experiment
2019_02_22 11:21;11;1;0;control;54;68;0;84;27;55;62;0.01;0.050000000000000003;0.40999999999999998;0.53000000000000003;9;82;0;0;0.37;0.63;0.0;0.0;1;14.04970673207572;15;9;22;2;spannendes experiment
2019_02_22 11:21;11;1;0;control;55;33;0;27;70;0;0;0.88;0.12;0.0;0.0;93;3;77;16;0.080000000000000002;0.40000000000000002;0.5;0.02;0;6.2165984384701005;15;9;22;2;spannendes experiment
2019_02_22 11:21;11;1;0;control;56;46;1;5;19;0;0;0.32000000000000001;0.68000000000000005;0.0;0.0;88;38;97;66;0.60999999999999999;0.20000000000000001;0.040000000000000001;0.14999999999999999;0;4.0833574943681015;15;9;22;2;spannendes experiment
2019_02_22 11:21;11;1;0;control;57;55;0;74;55;47;48;0.60999999999999999;0.31;0.070000000000000007;0.01;97;6;0;0;0.42999999999999999;0.56999999999999995;0.0;0.0;0;3.466532369799097;15;9;22;2;spannendes experiment
2019_02_22 11:21;11;1;0;control;58;134;1;57;48;50;55;0.02;0.62;0.17999999999999999;0.17999999999999999;80;96;15;18;0.23999999999999999;0.35999999999999999;0.33000000000000002;0.070000000000000007;0;3.7998751109698787;15;9;22;2;spannendes experiment
2019_02_22 11:21;11;1;0;control;59;40;1;45;49;0;0;0.68999999999999995;0.31;0.0;0.0;2;92;65;73;0.23999999999999999;0.59999999999999998;0.11;0.050000000000000003;0;2.583328629414609;15;9;22;2;spannendes experiment
2019_02_22 11:21;11;1;0;control;60;127;1;89;26;62;79;0.02;0.28999999999999998;0.53000000000000003;0.16;96;6;60;13;0.53000000000000003;0.25;0.17000000000000001;0.050000000000000003;1;11.683079813519726;15;9;22;2;spannendes experiment
2019_02_22 11:21;11;1;0;control;61;71;0;68;55;36;51;0.20000000000000001;0.75;0.02;0.029999999999999999;38;81;0;0;0.52000000000000002;0.47999999999999998;0.0;0.0;0;5.149719625089347;15;9;22;2;spannendes experiment
2019_02_22 11:21;11;1;0;control;62;50;0;15;20;0;0;0.82999999999999996;0.17000000000000001;0.0;0.0;97;18;88;87;0.56999999999999995;0.39000000000000001;0.01;0.029999999999999999;0;5.266588367809163;15;9;22;2;spannendes experiment
2019_02_22 11:21;11;1;0;control;63;81;1;67;38;52;65;0.27000000000000002;0.35999999999999999;0.01;0.35999999999999999;2;77;0;0;0.14000000000000001;0.85999999999999999;0.0;0.0;1;5.399998652968861;15;9;22;2;spannendes experiment
2019_02_22 11:21;11;1;0;control;64;62;1;12;45;16;50;0.20999999999999999;0.76000000000000001;0.02;0.01;92;15;0;0;0.20999999999999999;0.79000000000000004;0.0;0.0;0;4.833370964679489;15;9;22;2;spannendes experiment
2019_02_22 11:21;11;1;0;control;65;93;0;87;81;73;98;0.80000000000000004;0.040000000000000001;0.14999999999999999;0.0099999999999999499;5;71;0;0;0.51000000000000001;0.48999999999999999;0.0;0.0;0;7.46645218937374;15;9;22;2;spannendes experiment
2019_02_22 11:21;11;1;0;control;66;126;0;16;55;51;42;0.68999999999999995;0.23999999999999999;0.01;0.060000000000000102;66;4;1;5;0.46999999999999997;0.38;0.089999999999999997;0.059999999999999998;0;5.933187576010823;15;9;22;2;spannendes experiment
2019_02_22 11:21;11;1;0;control;67;148;1;37;63;55;10;0.72999999999999998;0.070000000000000007;0.029999999999999999;0.17000000000000001;80;14;23;70;0.46999999999999997;0.10000000000000001;0.23000000000000001;0.20000000000000001;0;4.5665330753872695;15;9;22;2;spannendes experiment
2019_02_22 11:21;11;1;0;control;68;77;1;24;17;99;41;0.17999999999999999;0.13;0.10000000000000001;0.58999999999999997;12;97;0;0;0.59999999999999998;0.40000000000000002;0.0;0.0;0;4.53334864244971;15;9;22;2;spannendes experiment
2019_02_22 11:21;11;1;0;control;69;60;0;64;59;57;96;0.83999999999999997;0.13;0.02;0.01;83;6;0;0;0.54000000000000004;0.46000000000000002;0.0;0.0;0;9.883421831140367;15;9;22;2;spannendes experiment
2019_02_22 11:21;11;1;0;control;70;41;0;99;40;0;0;0.89000000000000001;0.11;0.0;0.0;1;67;52;46;0.51000000000000001;0.38;0.029999999999999999;0.080000000000000002;0;4.133318238031279;15;9;22;2;spannendes experiment
2019_02_22 11:21;11;1;0;control;71;23;1;54;40;0;0;0.93000000000000005;0.070000000000000007;0.0;0.0;36;23;71;86;0.02;0.41999999999999998;0.19;0.37;0;4.29991969128605;15;9;22;2;spannendes experiment
2019_02_22 11:21;11;1;0;control;72;7;1;49;29;0;0;0.95999999999999996;0.040000000000000001;0.0;0.0;23;99;64;25;0.68999999999999995;0.12;0.059999999999999998;0.13;0;3.416648599342807;15;9;22;2;spannendes experiment
2019_02_22 11:21;11;1;0;control;73;22;1;32;55;0;0;0.39000000000000001;0.60999999999999999;0.0;0.0;93;72;59;22;0.20000000000000001;0.11;0.14000000000000001;0.55000000000000004;0;13.649810389330014;15;9;22;2;spannendes experiment
2019_02_22 11:21;11;1;0;control;74;86;1;56;30;57;88;0.20000000000000001;0.35999999999999999;0.080000000000000002;0.35999999999999999;98;2;0;0;0.77000000000000002;0.23000000000000001;0.0;0.0;1;12.566397089385646;15;9;22;2;spannendes experiment
2019_02_22 11:21;11;1;0;control;75;67;1;44;42;8;89;0.88;0.070000000000000007;0.029999999999999999;0.02;10;63;0;0;0.39000000000000001;0.60999999999999999;0.0;0.0;0;2.533323626157653;15;9;22;2;spannendes experiment
2019_02_22 11:21;11;2;0;timed;1;128;0;70;49;27;54;0.27000000000000002;0.53000000000000003;0.02;0.17999999999999999;72;97;6;20;0.29999999999999999;0.39000000000000001;0.22;0.0899999999999999;0;1.9753634418320871;15;9;22;2;spannendes experiment
2019_02_22 11:21;11;2;0;timed;2;139;1;44;31;16;8;0.79000000000000004;0.070000000000000007;0.13;0.0099999999999999499;92;58;2;88;0.55000000000000004;0.070000000000000007;0.34000000000000002;0.039999999999999897;0;1.5667226219120494;15;9;22;2;spannendes experiment
2019_02_22 11:21;11;2;0;timed;3;2;1;59;32;0;0;0.080000000000000002;0.92000000000000004;0.0;0.0;33;38;85;1;0.28999999999999998;0.050000000000000003;0.070000000000000007;0.58999999999999997;0;1.5333807146198524;15;9;22;2;spannendes experiment
2019_02_22 11:21;11;2;0;timed;4;84;1;43;10;5;45;0.78000000000000003;0.13;0.059999999999999998;0.029999999999999999;87;1;0;0;0.57999999999999996;0.41999999999999998;0.0;0.0;0;1.5000375244380848;15;9;22;2;spannendes experiment
2019_02_22 11:21;11;2;0;timed;5;120;1;64;40;48;51;0.19;0.02;0.070000000000000007;0.71999999999999997;97;9;79;94;0.23000000000000001;0.54000000000000004;0.01;0.22;1;1.799961385107963;15;9;22;2;spannendes experiment
2019_02_22 11:21;11;2;0;timed;6;82;0;78;66;30;27;0.28999999999999998;0.58999999999999997;0.080000000000000002;0.040000000000000001;90;6;0;0;0.82999999999999996;0.17000000000000001;0.0;0.0;1;1.7832155429423437;15;9;22;2;spannendes experiment
2019_02_22 11:21;11;2;0;timed;7;67;0;44;42;8;89;0.88;0.070000000000000007;0.029999999999999999;0.02;10;63;0;0;0.39000000000000001;0.60999999999999999;0.0;0.0;0;1.4501537539836136;15;9;22;2;spannendes experiment
2019_02_22 11:21;11;2;0;timed;8;125;0;37;41;10;35;0.91000000000000003;0.040000000000000001;0.029999999999999999;0.02;7;13;91;93;0.26000000000000001;0.39000000000000001;0.16;0.19;0;1.8165795800341584;15;9;22;2;spannendes experiment
2019_02_22 11:21;11;2;0;timed;9;51;1;52;23;43;16;0.60999999999999999;0.20999999999999999;0.01;0.17000000000000001;92;7;0;0;0.14999999999999999;0.84999999999999998;0.0;0.0;1;1.8332474868257123;15;9;22;2;spannendes experiment
2019_02_22 11:21;11;2;0;timed;10;105;1;49;74;63;58;0.84999999999999998;0.080000000000000002;0.02;0.050000000000000003;97;5;86;8;0.25;0.52000000000000002;0.070000000000000007;0.16;0;1.6332415855449653;15;9;22;2;spannendes experiment
2019_02_22 11:21;11;2;0;timed;11;135;1;48;60;41;51;0.14000000000000001;0.40000000000000002;0.089999999999999997;0.37;94;1;85;65;0.64000000000000001;0.29999999999999999;0.01;0.050000000000000003;1;1.8833804580408469;15;9;22;2;spannendes experiment
2019_02_22 11:21;11;2;0;timed;12;87;1;10;30;63;4;0.56999999999999995;0.12;0.16;0.14999999999999999;86;2;0;0;0.42999999999999999;0.56999999999999995;0.0;0.0;0;1.7500740867126297;15;9;22;2;spannendes experiment
2019_02_22 11:21;11;2;0;timed;13;114;0;57;39;79;97;0.77000000000000002;0.02;0.13;0.080000000000000002;92;36;6;1;0.54000000000000004;0.12;0.13;0.20999999999999999;0;1.5999471450650162;15;9;22;2;spannendes experiment
2019_02_22 11:21;11;2;0;timed;14;142;0;98;65;64;84;0.88;0.070000000000000007;0.01;0.040000000000000001;5;68;60;16;0.46000000000000002;0.080000000000000002;0.27000000000000002;0.19;0;1.7499092357575137;15;9;22;2;spannendes experiment
2019_02_22 11:21;11;2;0;timed;15;66;0;89;23;27;15;0.070000000000000007;0.54000000000000004;0.17000000000000001;0.22;9;73;0;0;0.72999999999999998;0.27000000000000002;0.0;0.0;1;1.7165945898104837;15;9;22;2;spannendes experiment
2019_02_22 11:21;11;2;0;timed;16;62;0;12;45;16;50;0.20999999999999999;0.76000000000000001;0.02;0.01;92;15;0;0;0.20999999999999999;0.79000000000000004;0.0;0.0;1;1.5665670718881302;15;9;22;2;spannendes experiment
2019_02_22 11:21;11;2;0;timed;17;7;1;49;29;0;0;0.95999999999999996;0.040000000000000001;0.0;0.0;23;99;64;25;0.68999999999999995;0.12;0.059999999999999998;0.13;0;1.8165943332314782;15;9;22;2;spannendes experiment
2019_02_22 11:21;11;2;0;timed;18;25;0;50;53;0;0;0.82999999999999996;0.17000000000000001;0.0;0.0;83;16;97;4;0.45000000000000001;0.29999999999999999;0.11;0.14000000000000001;0;1.6000340606442478;15;9;22;2;spannendes experiment
2019_02_22 11:21;11;2;0;timed;19;109;1;75;28;16;56;0.19;0.070000000000000007;0.059999999999999998;0.68000000000000005;3;50;98;44;0.5;0.02;0.34999999999999998;0.13;0;1.6332611495690799;15;9;22;2;spannendes experiment
2019_02_22 11:21;11;2;0;timed;20;54;0;44;79;78;52;0.79000000000000004;0.19;0.01;0.0099999999999999603;96;1;0;0;0.28000000000000003;0.71999999999999997;0.0;0.0;0;1.7998898641671985;15;9;22;2;spannendes experiment
2019_02_22 11:21;11;2;0;timed;21;83;0;17;12;7;41;0.65000000000000002;0.19;0.089999999999999997;0.070000000000000007;6;84;0;0;0.72999999999999998;0.27000000000000002;0.0;0.0;1;1.9502858913256205;15;9;22;2;spannendes experiment
2019_02_22 11:21;11;2;0;timed;22;50;0;15;20;0;0;0.82999999999999996;0.17000000000000001;0.0;0.0;97;18;88;87;0.56999999999999995;0.39000000000000001;0.01;0.029999999999999999;0;1.4666138331122056;15;9;22;2;spannendes experiment
2019_02_22 11:21;11;2;0;timed;23;79;1;52;46;29;22;0.17999999999999999;0.51000000000000001;0.23999999999999999;0.070000000000000104;93;14;0;0;0.45000000000000001;0.55000000000000004;0.0;0.0;1;1.7499121222535905;15;9;22;2;spannendes experiment
2019_02_22 11:21;11;2;0;timed;24;72;0;63;82;51;61;0.01;0.96999999999999997;0.01;0.01;92;12;0;0;0.89000000000000001;0.11;0.0;0.0;0;1.6833421638712025;15;9;22;2;spannendes experiment
2019_02_22 11:21;11;2;0;timed;25;60;1;64;59;57;96;0.83999999999999997;0.13;0.02;0.01;83;6;0;0;0.54000000000000004;0.46000000000000002;0.0;0.0;0;1.5999051305207104;15;9;22;2;spannendes experiment
2019_02_22 11:21;11;2;0;timed;26;121;0;42;51;47;70;0.41999999999999998;0.17000000000000001;0.23999999999999999;0.17000000000000001;21;76;48;9;0.14999999999999999;0.34000000000000002;0.40999999999999998;0.10000000000000001;0;2.0333540947176516;15;9;22;2;spannendes experiment
2019_02_22 11:21;11;2;0;timed;27;116;1;53;65;43;99;0.56999999999999995;0.37;0.050000000000000003;0.010000000000000101;57;72;11;87;0.67000000000000004;0.13;0.14999999999999999;0.050000000000000003;1;1.5499119939649972;15;9;22;2;spannendes experiment
2019_02_22 11:21;11;2;0;timed;28;39;1;14;33;0;0;0.78000000000000003;0.22;0.0;0.0;93;84;1;25;0.14000000000000001;0.23999999999999999;0.39000000000000001;0.23000000000000001;0;1.5332020726327755;15;9;22;2;spannendes experiment
2019_02_22 11:21;11;2;0;timed;29;107;0;52;48;13;63;0.68000000000000005;0.19;0.050000000000000003;0.079999999999999905;54;91;33;3;0.19;0.17999999999999999;0.33000000000000002;0.29999999999999999;0;1.4667296136449295;15;9;22;2;spannendes experiment
2019_02_22 11:21;11;2;0;timed;30;28;1;47;30;0;0;0.97999999999999998;0.02;0.0;0.0;55;48;77;13;0.070000000000000007;0.26000000000000001;0.42999999999999999;0.23999999999999999;0;1.6332621117344388;15;9;22;2;spannendes experiment
2019_02_22 11:21;11;2;0;timed;31;90;0;27;44;50;72;0.68000000000000005;0.28999999999999998;0.02;0.0099999999999999707;6;96;0;0;0.46999999999999997;0.53000000000000003;0.0;0.0;0;1.6166118446362816;15;9;22;2;spannendes experiment
2019_02_22 11:21;11;2;0;timed;32;147;1;39;43;76;28;0.14000000000000001;0.10000000000000001;0.10000000000000001;0.66000000000000003;6;31;68;85;0.27000000000000002;0.20000000000000001;0.22;0.31;0;1.9665750257863692;15;9;22;2;spannendes experiment
2019_02_22 11:21;11;2;0;timed;33;74;0;66;47;52;44;0.41999999999999998;0.26000000000000001;0.17999999999999999;0.14000000000000001;17;99;0;0;0.47999999999999998;0.52000000000000002;0.0;0.0;0;1.9833606374395458;15;9;22;2;spannendes experiment
2019_02_22 11:21;11;2;0;timed;34;91;1;74;81;86;48;0.93000000000000005;0.02;0.01;0.039999999999999897;7;64;0;0;0.13;0.87;0.0;0.0;0;1.4831986729823257;15;9;22;2;spannendes experiment
2019_02_22 11:21;11;2;0;timed;35;42;1;70;48;0;0;0.79000000000000004;0.20999999999999999;0.0;0.0;51;8;12;67;0.19;0.26000000000000001;0.28999999999999998;0.26000000000000001;0;1.8165641853920533;15;9;22;2;spannendes experiment
2019_02_22 11:21;11;2;0;timed;36;45;1;97;87;0;0;0.71999999999999997;0.28000000000000003;0.0;0.0;96;11;14;4;0.25;0.029999999999999999;0.14000000000000001;0.57999999999999996;1;1.8167213390261168;15;9;22;2;spannendes experiment
2019_02_22 11:21;11;2;0;timed;37;75;0;67;80;36;81;0.81999999999999995;0.080000000000000002;0.059999999999999998;0.040000000000000001;3;97;0;0;0.32000000000000001;0.68000000000000005;0.0;0.0;0;1.71659523125345;15;9;22;2;spannendes experiment
2019_02_22 11:21;11;2;0;timed;38;104;0;55;85;93;3;0.87;0.02;0.089999999999999997;0.02;1;2;90;8;0.35999999999999999;0.070000000000000007;0.40000000000000002;0.17000000000000001;0;1.4999268754527293;15;9;22;2;spannendes experiment
2019_02_22 11:21;11;2;0;timed;39;37;1;14;98;0;0;0.93000000000000005;0.070000000000000007;0.0;0.0;41;2;87;66;0.17999999999999999;0.48999999999999999;0.32000000000000001;0.010000000000000101;0;2.0167038276213134;15;9;22;2;spannendes experiment
2019_02_22 11:21;11;2;0;timed;40;112;0;70;44;98;64;0.02;0.75;0.12;0.11;33;2;63;85;0.23999999999999999;0.31;0.080000000000000002;0.37;0;1.733253837113807;15;9;22;2;spannendes experiment
2019_02_22 11:21;11;2;0;timed;41;143;1;88;44;56;73;0.95999999999999996;0.02;0.01;0.01;20;3;87;32;0.19;0.40000000000000002;0.28000000000000003;0.13;0;1.699981205707445;15;9;22;2;spannendes experiment
2019_02_22 11:21;11;2;0;timed;42;88;0;77;13;12;7;0.12;0.19;0.66000000000000003;0.029999999999999898;94;2;0;0;0.40999999999999998;0.58999999999999997;0.0;0.0;1;1.9166672012033814;15;9;22;2;spannendes experiment
2019_02_22 11:21;11;2;0;timed;43;58;1;37;58;76;34;0.20999999999999999;0.57999999999999996;0.19;0.020000000000000101;86;5;0;0;0.47999999999999998;0.52000000000000002;0.0;0.0;1;2.06654269703904;15;9;22;2;spannendes experiment
2019_02_22 11:21;11;2;0;timed;44;27;1;44;26;0;0;0.35999999999999999;0.64000000000000001;0.0;0.0;63;10;3;5;0.58999999999999997;0.19;0.14999999999999999;0.070000000000000007;1;1.7500137910319609;15;9;22;2;spannendes experiment
2019_02_22 11:21;11;2;0;timed;45;26;1;76;41;0;0;0.57999999999999996;0.41999999999999998;0.0;0.0;61;79;84;2;0.13;0.029999999999999999;0.67000000000000004;0.17000000000000001;1;1.966533331964456;15;9;22;2;spannendes experiment
2019_02_22 11:21;11;2;0;timed;46;38;1;40;70;0;0;0.53000000000000003;0.46999999999999997;0.0;0.0;97;90;6;96;0.56999999999999995;0.070000000000000007;0.27000000000000002;0.089999999999999997;NA;2.4332549275677593;15;9;22;2;spannendes experiment
2019_02_22 11:21;11;2;0;timed;47;101;1;30;96;61;45;0.65000000000000002;0.14000000000000001;0.11;0.10000000000000001;3;98;63;89;0.75;0.19;0.040000000000000001;0.02;1;2.0499527256215515;15;9;22;2;spannendes experiment
2019_02_22 11:21;11;2;0;timed;48;70;1;66;55;69;50;0.22;0.29999999999999999;0.29999999999999999;0.17999999999999999;2;90;0;0;0.34000000000000002;0.66000000000000003;0.0;0.0;1;1.800081655745089;15;9;22;2;spannendes experiment
2019_02_22 11:21;11;2;0;timed;49;98;0;27;10;31;79;0.23000000000000001;0.67000000000000004;0.070000000000000007;0.029999999999999999;25;99;0;0;0.38;0.62;0.0;0.0;0;1.5332187501608132;15;9;22;2;spannendes experiment
2019_02_22 11:21;11;2;0;timed;50;29;0;44;51;0;0;0.78000000000000003;0.22;0.0;0.0;74;1;68;82;0.69999999999999996;0.28000000000000003;0.01;0.01;0;1.5499880050101638;15;9;22;2;spannendes experiment
2019_02_22 11:21;11;2;0;timed;51;35;0;33;37;0;0;0.88;0.12;0.0;0.0;63;4;79;98;0.16;0.46000000000000002;0.17000000000000001;0.20999999999999999;0;1.649896984190491;15;9;22;2;spannendes experiment
2019_02_22 11:21;11;2;0;timed;52;36;1;70;17;0;0;0.33000000000000002;0.67000000000000004;0.0;0.0;84;1;12;88;0.22;0.27000000000000002;0.14000000000000001;0.37;0;1.4332295905533101;15;9;22;2;spannendes experiment
2019_02_22 11:21;11;2;0;timed;53;127;0;89;26;62;79;0.02;0.28999999999999998;0.53000000000000003;0.16;96;6;60;13;0.53000000000000003;0.25;0.17000000000000001;0.050000000000000003;0;1.7499101979246916;15;9;22;2;spannendes experiment
2019_02_22 11:21;11;2;0;timed;54;97;1;17;33;32;74;0.94999999999999996;0.01;0.029999999999999999;0.01;76;23;0;0;0.33000000000000002;0.67000000000000004;0.0;0.0;0;1.5499087867483468;15;9;22;2;spannendes experiment
2019_02_22 11:21;11;2;0;timed;55;118;1;62;52;65;68;0.40999999999999998;0.44;0.10000000000000001;0.0500000000000001;79;20;14;37;0.56999999999999995;0.23999999999999999;0.14000000000000001;0.050000000000000003;1;1.6332476792576927;15;9;22;2;spannendes experiment
2019_02_22 11:21;11;2;0;timed;56;59;0;56;47;83;90;0.31;0.12;0.54000000000000004;0.029999999999999898;10;98;0;0;0.46999999999999997;0.53000000000000003;0.0;0.0;1;1.7500449010385637;15;9;22;2;spannendes experiment
2019_02_22 11:21;11;2;0;timed;57;11;1;17;36;0;0;0.14000000000000001;0.85999999999999999;0.0;0.0;19;41;34;95;0.88;0.02;0.050000000000000003;0.050000000000000003;1;1.1832639077765634;15;9;22;2;spannendes experiment
2019_02_22 11:21;11;2;0;timed;58;8;0;50;36;0;0;0.080000000000000002;0.92000000000000004;0.0;0.0;6;19;84;29;0.54000000000000004;0.070000000000000007;0.17000000000000001;0.22;1;1.483265703816869;15;9;22;2;spannendes experiment
2019_02_22 11:21;11;2;0;timed;59;141;1;93;28;60;91;0.81999999999999995;0.10000000000000001;0.01;0.070000000000000007;14;85;7;89;0.45000000000000001;0.070000000000000007;0.23999999999999999;0.23999999999999999;0;1.4667020315791888;15;9;22;2;spannendes experiment
2019_02_22 11:21;11;2;0;timed;60;69;0;54;34;64;49;0.34000000000000002;0.25;0.20999999999999999;0.20000000000000001;14;98;0;0;0.62;0.38;0.0;0.0;1;1.616666046606042;15;9;22;2;spannendes experiment
2019_02_22 11:21;11;2;0;timed;61;33;0;27;70;0;0;0.88;0.12;0.0;0.0;93;3;77;16;0.080000000000000002;0.40000000000000002;0.5;0.02;0;1.1499608078083838;15;9;22;2;spannendes experiment
2019_02_22 11:21;11;2;0;timed;62;81;1;67;38;52;65;0.27000000000000002;0.35999999999999999;0.01;0.35999999999999999;2;77;0;0;0.14000000000000001;0.85999999999999999;0.0;0.0;0;1.7165881753753638;15;9;22;2;spannendes experiment
2019_02_22 11:21;11;2;0;timed;63;32;1;19;81;0;0;0.93000000000000005;0.070000000000000007;0.0;0.0;1;65;41;68;0.45000000000000001;0.050000000000000003;0.059999999999999998;0.44;0;1.733261213714286;15;9;22;2;spannendes experiment
2019_02_22 11:21;11;2;0;timed;64;146;0;25;5;64;35;0.94999999999999996;0.02;0.01;0.02;47;97;12;79;0.20999999999999999;0.029999999999999999;0.02;0.73999999999999999;0;1.3999213590395811;15;9;22;2;spannendes experiment
2019_02_22 11:21;11;2;0;timed;65;61;1;43;18;39;70;0.75;0.089999999999999997;0.089999999999999997;0.070000000000000007;16;66;0;0;0.64000000000000001;0.35999999999999999;0.0;0.0;0;1.5832574291980563;15;9;22;2;spannendes experiment
2019_02_22 11:21;11;2;0;timed;66;40;1;45;49;0;0;0.68999999999999995;0.31;0.0;0.0;2;92;65;73;0.23999999999999999;0.59999999999999998;0.11;0.050000000000000003;0;1.64989153192073;15;9;22;2;spannendes experiment
2019_02_22 11:21;11;2;0;timed;67;9;0;61;69;0;0;0.93999999999999995;0.060000000000000102;0.0;0.0;18;93;72;16;0.40999999999999998;0.34999999999999998;0.089999999999999997;0.14999999999999999;0;1.349753429156408;15;9;22;2;spannendes experiment
2019_02_22 11:21;11;2;0;timed;68;68;1;84;27;55;62;0.01;0.050000000000000003;0.40999999999999998;0.53000000000000003;9;82;0;0;0.37;0.63;0.0;0.0;1;1.7834910428828152;15;9;22;2;spannendes experiment
2019_02_22 11:21;11;2;0;timed;69;95;0;93;88;68;85;0.83999999999999997;0.14000000000000001;0.01;0.01;2;82;0;0;0.41999999999999998;0.57999999999999996;0.0;0.0;0;1.6999109676544322;15;9;22;2;spannendes experiment
2019_02_22 11:21;11;2;0;timed;70;106;1;85;69;22;61;0.10000000000000001;0.58999999999999997;0.17999999999999999;0.13;20;79;91;84;0.55000000000000004;0.14999999999999999;0.26000000000000001;0.039999999999999897;0;1.833349797047049;15;9;22;2;spannendes experiment
2019_02_22 11:21;11;2;0;timed;71;47;1;2;40;0;0;0.45000000000000001;0.55000000000000004;0.0;0.0;93;89;11;56;0.58999999999999997;0.070000000000000007;0.28000000000000003;0.059999999999999998;1;1.599894546703581;15;9;22;2;spannendes experiment
2019_02_22 11:21;11;2;0;timed;72;129;1;12;29;81;36;0.17999999999999999;0.79000000000000004;0.01;0.02;5;19;95;92;0.47999999999999998;0.26000000000000001;0.13;0.13;0;1.6000680571432895;15;9;22;2;spannendes experiment
2019_02_22 11:21;11;2;0;timed;73;149;0;14;89;73;53;0.93999999999999995;0.01;0.01;0.040000000000000001;97;45;6;13;0.34000000000000002;0.01;0.40999999999999998;0.23999999999999999;0;1.2832707070756442;15;9;22;2;spannendes experiment
2019_02_22 11:21;11;2;0;timed;74;31;0;10;59;0;0;0.23999999999999999;0.76000000000000001;0.0;0.0;1;79;53;73;0.23000000000000001;0.58999999999999997;0.050000000000000003;0.13;1;2.083241393112985;15;9;22;2;spannendes experiment
2019_02_22 11:21;11;2;0;timed;75;65;0;75;64;59;52;0.59999999999999998;0.22;0.14000000000000001;0.040000000000000001;1;99;0;0;0.35999999999999999;0.64000000000000001;0.0;0.0;0;1.5167368619549961;15;9;22;2;spannendes experiment
2019_02_22 11:21;11;3;0;control;1;112;0;70;44;98;64;0.02;0.75;0.12;0.11;33;2;63;85;0.23999999999999999;0.31;0.080000000000000002;0.37;0;5.295656658439839;15;9;22;2;spannendes experiment
2019_02_22 11:21;11;3;0;control;2;28;0;47;30;0;0;0.97999999999999998;0.02;0.0;0.0;55;48;77;13;0.070000000000000007;0.26000000000000001;0.42999999999999999;0.23999999999999999;0;2.533355698327796;15;9;22;2;spannendes experiment
2019_02_22 11:21;11;3;0;control;3;47;1;2;40;0;0;0.45000000000000001;0.55000000000000004;0.0;0.0;93;89;11;56;0.58999999999999997;0.070000000000000007;0.28000000000000003;0.059999999999999998;1;1.7833880912185123;15;9;22;2;spannendes experiment
2019_02_22 11:21;11;3;0;control;4;111;0;51;36;48;27;0.93000000000000005;0.01;0.01;0.049999999999999899;31;78;30;53;0.55000000000000004;0.16;0.029999999999999999;0.26000000000000001;0;1.6331684609976946;15;9;22;2;spannendes experiment
2019_02_22 11:21;11;3;0;control;5;66;0;89;23;27;15;0.070000000000000007;0.54000000000000004;0.17000000000000001;0.22;9;73;0;0;0.72999999999999998;0.27000000000000002;0.0;0.0;1;2.0500428484192526;15;9;22;2;spannendes experiment
2019_02_22 11:21;11;3;0;control;6;140;1;36;32;26;27;0.39000000000000001;0.14999999999999999;0.19;0.27000000000000002;44;3;99;25;0.29999999999999999;0.34000000000000002;0.34000000000000002;0.0199999999999999;0;6.783121571485026;15;9;22;2;spannendes experiment
2019_02_22 11:21;11;3;0;control;7;59;1;56;47;83;90;0.31;0.12;0.54000000000000004;0.029999999999999898;10;98;0;0;0.46999999999999997;0.53000000000000003;0.0;0.0;1;2.23324678123754;15;9;22;2;spannendes experiment
2019_02_22 11:21;11;3;0;control;8;76;1;39;62;9;28;0.01;0.51000000000000001;0.26000000000000001;0.22;77;7;0;0;0.57999999999999996;0.41999999999999998;0.0;0.0;1;3.6332277945111855;15;9;22;2;spannendes experiment
2019_02_22 11:21;11;3;0;control;9;32;1;19;81;0;0;0.93000000000000005;0.070000000000000007;0.0;0.0;1;65;41;68;0.45000000000000001;0.050000000000000003;0.059999999999999998;0.44;0;2.1332675640042;15;9;22;2;spannendes experiment
2019_02_22 11:21;11;3;0;control;10;109;0;75;28;16;56;0.19;0.070000000000000007;0.059999999999999998;0.68000000000000005;3;50;98;44;0.5;0.02;0.34999999999999998;0.13;0;2.416487276328553;15;9;22;2;spannendes experiment
2019_02_22 11:21;11;3;0;control;11;106;0;85;69;22;61;0.10000000000000001;0.58999999999999997;0.17999999999999999;0.13;20;79;91;84;0.55000000000000004;0.14999999999999999;0.26000000000000001;0.039999999999999897;0;3.7332098982406023;15;9;22;2;spannendes experiment
2019_02_22 11:21;11;3;0;control;12;83;1;17;12;7;41;0.65000000000000002;0.19;0.089999999999999997;0.070000000000000007;6;84;0;0;0.72999999999999998;0.27000000000000002;0.0;0.0;1;1.9165857378920919;15;9;22;2;spannendes experiment
2019_02_22 11:21;11;3;0;control;13;82;0;78;66;30;27;0.28999999999999998;0.58999999999999997;0.080000000000000002;0.040000000000000001;90;6;0;0;0.82999999999999996;0.17000000000000001;0.0;0.0;1;2.1165653399912117;15;9;22;2;spannendes experiment
2019_02_22 11:21;11;3;0;control;14;21;0;64;28;0;0;0.080000000000000002;0.92000000000000004;0.0;0.0;50;1;88;13;0.57999999999999996;0.13;0.02;0.27000000000000002;0;2.983359675276006;15;9;22;2;spannendes experiment
2019_02_22 11:21;11;3;0;control;15;18;1;68;50;0;0;0.029999999999999999;0.96999999999999997;0.0;0.0;34;64;15;89;0.65000000000000002;0.029999999999999999;0.050000000000000003;0.27000000000000002;0;11.799757085384044;15;9;22;2;spannendes experiment
2019_02_22 11:21;11;3;0;control;16;146;1;25;5;64;35;0.94999999999999996;0.02;0.01;0.02;47;97;12;79;0.20999999999999999;0.029999999999999999;0.02;0.73999999999999999;0;6.399935150071542;15;9;22;2;spannendes experiment
2019_02_22 11:21;11;3;0;control;17;52;0;71;51;10;54;0.22;0.12;0.19;0.46999999999999997;91;1;0;0;0.29999999999999999;0.69999999999999996;0.0;0.0;1;2.6166865727936965;15;9;22;2;spannendes experiment
2019_02_22 11:21;11;3;0;control;18;73;0;65;68;70;47;0.25;0.23000000000000001;0.20999999999999999;0.31;27;95;0;0;0.45000000000000001;0.55000000000000004;0.0;0.0;1;2.7665732938876317;15;9;22;2;spannendes experiment
2019_02_22 11:21;11;3;0;control;19;121;0;42;51;47;70;0.41999999999999998;0.17000000000000001;0.23999999999999999;0.17000000000000001;21;76;48;9;0.14999999999999999;0.34000000000000002;0.40999999999999998;0.10000000000000001;0;11.249878125754549;15;9;22;2;spannendes experiment
2019_02_22 11:21;11;3;0;control;20;80;1;47;39;45;10;0.13;0.76000000000000001;0.059999999999999998;0.050000000000000003;2;87;0;0;0.48999999999999999;0.51000000000000001;0.0;0.0;0;2.466670921574405;15;9;22;2;spannendes experiment
2019_02_22 11:21;11;3;0;control;21;72;0;63;82;51;61;0.01;0.96999999999999997;0.01;0.01;92;12;0;0;0.89000000000000001;0.11;0.0;0.0;1;1.1832767366431653;15;9;22;2;spannendes experiment
2019_02_22 11:21;11;3;0;control;22;48;1;13;32;0;0;0.90000000000000002;0.10000000000000001;0.0;0.0;24;99;84;94;0.62;0.14999999999999999;0.20000000000000001;0.029999999999999999;0;1.7001027592323226;15;9;22;2;spannendes experiment
2019_02_22 11:21;11;3;0;control;23;138;1;8;20;43;51;0.38;0.5;0.02;0.10000000000000001;72;82;70;1;0.39000000000000001;0.050000000000000003;0.070000000000000007;0.48999999999999999;0;3.0833401753970975;15;9;22;2;spannendes experiment
2019_02_22 11:21;11;3;0;control;24;45;0;97;87;0;0;0.71999999999999997;0.28000000000000003;0.0;0.0;96;11;14;4;0.25;0.029999999999999999;0.14000000000000001;0.57999999999999996;0;2.0332501808879897;15;9;22;2;spannendes experiment
2019_02_22 11:21;11;3;0;control;25;115;1;50;28;61;79;0.83999999999999997;0.040000000000000001;0.059999999999999998;0.059999999999999998;1;26;97;55;0.45000000000000001;0.080000000000000002;0.40999999999999998;0.060000000000000102;0;1.7666637374077254;15;9;22;2;spannendes experiment
2019_02_22 11:21;11;3;0;control;26;99;0;8;24;15;73;0.56000000000000005;0.35999999999999999;0.070000000000000007;0.0099999999999999499;88;12;0;0;0.52000000000000002;0.47999999999999998;0.0;0.0;0;1.6166923457858502;15;9;22;2;spannendes experiment
2019_02_22 11:21;11;3;0;control;27;120;0;64;40;48;51;0.19;0.02;0.070000000000000007;0.71999999999999997;97;9;79;94;0.23000000000000001;0.54000000000000004;0.01;0.22;1;1.1332175314182678;15;9;22;2;spannendes experiment
2019_02_22 11:21;11;3;0;control;28;30;0;33;30;0;0;0.71999999999999997;0.28000000000000003;0.0;0.0;9;88;1;14;0.55000000000000004;0.39000000000000001;0.01;0.049999999999999899;0;1.083230488573463;15;9;22;2;spannendes experiment
2019_02_22 11:21;11;3;0;control;29;58;1;37;58;76;34;0.20999999999999999;0.57999999999999996;0.19;0.020000000000000101;86;5;0;0;0.47999999999999998;0.52000000000000002;0.0;0.0;0;1.3998889661488647;15;9;22;2;spannendes experiment
2019_02_22 11:21;11;3;0;control;30;6;0;9;51;0;0;0.14999999999999999;0.84999999999999998;0.0;0.0;6;40;50;73;0.42999999999999999;0.26000000000000001;0.059999999999999998;0.25;0;1.1665748333525698;15;9;22;2;spannendes experiment
2019_02_22 11:21;11;3;0;control;31;130;0;37;79;23;95;0.94999999999999996;0.029999999999999999;0.01;0.01;94;4;58;49;0.46000000000000002;0.5;0.029999999999999999;0.01;0;1.5999234116570733;15;9;22;2;spannendes experiment
2019_02_22 11:21;11;3;0;control;32;25;1;50;53;0;0;0.82999999999999996;0.17000000000000001;0.0;0.0;83;16;97;4;0.45000000000000001;0.29999999999999999;0.11;0.14000000000000001;0;1.5332761593454052;15;9;22;2;spannendes experiment
2019_02_22 11:21;11;3;0;control;33;37;0;14;98;0;0;0.93000000000000005;0.070000000000000007;0.0;0.0;41;2;87;66;0.17999999999999999;0.48999999999999999;0.32000000000000001;0.010000000000000101;0;1.4168477675193571;15;9;22;2;spannendes experiment
2019_02_22 11:21;11;3;0;control;34;94;1;84;86;93;39;0.78000000000000003;0.20000000000000001;0.01;0.0099999999999999603;9;83;0;0;0.46999999999999997;0.53000000000000003;0.0;0.0;0;2.0832782761081035;15;9;22;2;spannendes experiment
2019_02_22 11:21;11;3;0;control;35;149;0;14;89;73;53;0.93999999999999995;0.01;0.01;0.040000000000000001;97;45;6;13;0.34000000000000002;0.01;0.40999999999999998;0.23999999999999999;0;8.733273401137922;15;9;22;2;spannendes experiment
2019_02_22 11:21;11;3;0;control;36;133;0;59;88;60;36;0.67000000000000004;0.070000000000000007;0.12;0.14000000000000001;7;91;66;61;0.25;0.68999999999999995;0.01;0.0500000000000001;1;3.5333707722475083;15;9;22;2;spannendes experiment
2019_02_22 11:21;11;3;0;control;37;39;1;14;33;0;0;0.78000000000000003;0.22;0.0;0.0;93;84;1;25;0.14000000000000001;0.23999999999999999;0.39000000000000001;0.23000000000000001;0;1.8832261909046792;15;9;22;2;spannendes experiment
2019_02_22 11:21;11;3;0;control;38;44;1;79;74;0;0;0.71999999999999997;0.28000000000000003;0.0;0.0;3;67;15;36;0.41999999999999998;0.53000000000000003;0.02;0.029999999999999999;0;1.733262175879645;15;9;22;2;spannendes experiment
2019_02_22 11:21;11;3;0;control;39;132;0;27;70;21;19;0.64000000000000001;0.23000000000000001;0.029999999999999999;0.10000000000000001;11;85;55;6;0.39000000000000001;0.46999999999999997;0.029999999999999999;0.11;0;3.3332160560985358;15;9;22;2;spannendes experiment
2019_02_22 11:21;11;3;0;control;40;43;0;60;83;0;0;0.23000000000000001;0.77000000000000002;0.0;0.0;72;5;70;12;0.29999999999999999;0.40999999999999998;0.12;0.17000000000000001;0;5.083207075889732;15;9;22;2;spannendes experiment
2019_02_22 11:21;11;3;0;control;41;78;0;74;36;34;3;0.14999999999999999;0.64000000000000001;0.13;0.080000000000000002;1;83;0;0;0.41999999999999998;0.57999999999999996;0.0;0.0;0;4.833182380318249;15;9;22;2;spannendes experiment
2019_02_22 11:21;11;3;0;control;42;92;1;90;86;65;94;0.16;0.34000000000000002;0.28000000000000003;0.22;79;22;0;0;0.35999999999999999;0.64000000000000001;0.0;0.0;1;1.8834125302128086;15;9;22;2;spannendes experiment
2019_02_22 11:21;11;3;0;control;43;98;1;27;10;31;79;0.23000000000000001;0.67000000000000004;0.070000000000000007;0.029999999999999999;25;99;0;0;0.38;0.62;0.0;0.0;0;1.949929248792614;15;9;22;2;spannendes experiment
2019_02_22 11:21;11;3;0;control;44;24;1;35;27;0;0;0.070000000000000007;0.93000000000000005;0.0;0.0;62;3;81;95;0.35999999999999999;0.55000000000000004;0.01;0.080000000000000002;0;1.4832637794879702;15;9;22;2;spannendes experiment
2019_02_22 11:21;11;3;0;control;45;87;1;10;30;63;4;0.56999999999999995;0.12;0.16;0.14999999999999999;86;2;0;0;0.42999999999999999;0.56999999999999995;0.0;0.0;0;4.066548149306982;15;9;22;2;spannendes experiment
2019_02_22 11:21;11;3;0;control;46;15;1;77;81;0;0;0.28000000000000003;0.71999999999999997;0.0;0.0;98;14;87;18;0.55000000000000004;0.23000000000000001;0.16;0.059999999999999901;0;2.3167158867563558;15;9;22;2;spannendes experiment
2019_02_22 11:21;11;3;0;control;47;69;1;54;34;64;49;0.34000000000000002;0.25;0.20999999999999999;0.20000000000000001;14;98;0;0;0.62;0.38;0.0;0.0;1;2.01671409071605;15;9;22;2;spannendes experiment
2019_02_22 11:21;11;3;0;control;48;8;1;50;36;0;0;0.080000000000000002;0.92000000000000004;0.0;0.0;6;19;84;29;0.54000000000000004;0.070000000000000007;0.17000000000000001;0.22;0;1.5665401312653557;15;9;22;2;spannendes experiment
2019_02_22 11:21;11;3;0;control;49;11;1;17;36;0;0;0.14000000000000001;0.85999999999999999;0.0;0.0;19;41;34;95;0.88;0.02;0.050000000000000003;0.050000000000000003;1;1.5832346579572913;15;9;22;2;spannendes experiment
2019_02_22 11:21;11;3;0;control;50;31;1;10;59;0;0;0.23999999999999999;0.76000000000000001;0.0;0.0;1;79;53;73;0.23000000000000001;0.58999999999999997;0.050000000000000003;0.13;0;1.883434018565822;15;9;22;2;spannendes experiment
2019_02_22 11:21;11;3;0;control;51;19;1;22;53;0;0;0.13;0.87;0.0;0.0;4;93;96;65;0.46999999999999997;0.059999999999999998;0.26000000000000001;0.20999999999999999;0;1.3998864003733615;15;9;22;2;spannendes experiment
2019_02_22 11:21;11;3;0;control;52;131;0;83;41;81;88;0.23999999999999999;0.58999999999999997;0.10000000000000001;0.070000000000000007;82;97;4;17;0.26000000000000001;0.46999999999999997;0.11;0.16;0;2.749909877202299;15;9;22;2;spannendes experiment
2019_02_22 11:21;11;3;0;control;53;101;1;30;96;61;45;0.65000000000000002;0.14000000000000001;0.11;0.10000000000000001;3;98;63;89;0.75;0.19;0.040000000000000001;0.02;1;1.9999932648443064;15;9;22;2;spannendes experiment
2019_02_22 11:21;11;3;0;control;54;61;0;43;18;39;70;0.75;0.089999999999999997;0.089999999999999997;0.070000000000000007;16;66;0;0;0.64000000000000001;0.35999999999999999;0.0;0.0;0;1.799977741913608;15;9;22;2;spannendes experiment
2019_02_22 11:21;11;3;0;control;55;129;1;12;29;81;36;0.17999999999999999;0.79000000000000004;0.01;0.02;5;19;95;92;0.47999999999999998;0.26000000000000001;0.13;0.13;0;2.916617489339842;15;9;22;2;spannendes experiment
2019_02_22 11:21;11;3;0;control;56;144;0;99;93;90;71;0.65000000000000002;0.32000000000000001;0.01;0.02;97;14;48;73;0.23000000000000001;0.46000000000000002;0.13;0.17999999999999999;0;1.949896535179505;15;9;22;2;spannendes experiment
2019_02_22 11:21;11;3;0;control;57;110;0;47;44;23;52;0.13;0.27000000000000002;0.040000000000000001;0.56000000000000005;99;2;30;22;0.28999999999999998;0.5;0.11;0.10000000000000001;0;1.8999181518211117;15;9;22;2;spannendes experiment
2019_02_22 11:21;11;3;0;control;58;17;1;81;52;0;0;0.059999999999999998;0.93999999999999995;0.0;0.0;34;3;69;41;0.01;0.22;0.75;0.02;0;1.1832735294265149;15;9;22;2;spannendes experiment
2019_02_22 11:21;11;3;0;control;59;96;0;51;54;39;7;0.17000000000000001;0.26000000000000001;0.10000000000000001;0.46999999999999997;24;96;0;0;0.28000000000000003;0.71999999999999997;0.0;0.0;1;1.45009506191127;15;9;22;2;spannendes experiment
2019_02_22 11:21;11;3;0;control;60;27;1;44;26;0;0;0.35999999999999999;0.64000000000000001;0.0;0.0;63;10;3;5;0.58999999999999997;0.19;0.14999999999999999;0.070000000000000007;1;1.6998994216737628;15;9;22;2;spannendes experiment
2019_02_22 11:21;11;3;0;control;61;125;1;37;41;10;35;0.91000000000000003;0.040000000000000001;0.029999999999999999;0.02;7;13;91;93;0.26000000000000001;0.39000000000000001;0.16;0.19;0;1.5999269395961164;15;9;22;2;spannendes experiment
2019_02_22 11:21;11;3;0;control;62;123;1;26;24;51;92;0.72999999999999998;0.16;0.070000000000000007;0.040000000000000001;6;90;82;49;0.64000000000000001;0.25;0.050000000000000003;0.059999999999999998;1;2.0165543713083025;15;9;22;2;spannendes experiment
2019_02_22 11:21;11;3;0;control;63;91;0;74;81;86;48;0.93000000000000005;0.02;0.01;0.039999999999999897;7;64;0;0;0.13;0.87;0.0;0.0;0;1.6832420987011574;15;9;22;2;spannendes experiment
2019_02_22 11:21;11;3;0;control;64;14;1;36;40;0;0;0.54000000000000004;0.46000000000000002;0.0;0.0;99;70;1;11;0.16;0.089999999999999997;0.080000000000000002;0.67000000000000004;0;7.449937908279026;15;9;22;2;spannendes experiment
2019_02_22 11:21;11;3;0;control;65;128;0;70;49;27;54;0.27000000000000002;0.53000000000000003;0.02;0.17999999999999999;72;97;6;20;0.29999999999999999;0.39000000000000001;0.22;0.0899999999999999;0;5.333288859923414;15;9;22;2;spannendes experiment
2019_02_22 11:21;11;3;0;control;66;136;1;29;67;14;75;0.46000000000000002;0.29999999999999999;0.20999999999999999;0.0300000000000001;70;86;1;85;0.31;0.39000000000000001;0.27000000000000002;0.029999999999999898;0;5.299862923546243;15;9;22;2;spannendes experiment
2019_02_22 11:21;11;3;0;control;67;116;0;53;65;43;99;0.56999999999999995;0.37;0.050000000000000003;0.010000000000000101;57;72;11;87;0.67000000000000004;0.13;0.14999999999999999;0.050000000000000003;1;1.616741736926997;15;9;22;2;spannendes experiment
2019_02_22 11:21;11;3;0;control;68;16;1;64;53;0;0;0.65000000000000002;0.34999999999999998;0.0;0.0;29;17;81;46;0.10000000000000001;0.01;0.44;0.45000000000000001;0;1.8167405823278386;15;9;22;2;spannendes experiment
2019_02_22 11:21;11;3;0;control;69;38;1;40;70;0;0;0.53000000000000003;0.46999999999999997;0.0;0.0;97;90;6;96;0.56999999999999995;0.070000000000000007;0.27000000000000002;0.089999999999999997;1;2.0165518055346183;15;9;22;2;spannendes experiment
2019_02_22 11:21;11;3;0;control;70;104;1;55;85;93;3;0.87;0.02;0.089999999999999997;0.02;1;2;90;8;0.35999999999999999;0.070000000000000007;0.40000000000000002;0.17000000000000001;0;1.5667572598558763;15;9;22;2;spannendes experiment
2019_02_22 11:21;11;3;0;control;71;13;0;52;56;0;0;0.46999999999999997;0.53000000000000003;0.0;0.0;94;71;27;2;0.089999999999999997;0.31;0.57999999999999996;0.020000000000000101;1;4.616632691548148;15;9;22;2;spannendes experiment
2019_02_22 11:21;11;3;0;control;72;90;0;27;44;50;72;0.68000000000000005;0.28999999999999998;0.02;0.0099999999999999707;6;96;0;0;0.46999999999999997;0.53000000000000003;0.0;0.0;0;2.2665732938894507;15;9;22;2;spannendes experiment
2019_02_22 11:21;11;3;0;control;73;84;1;43;10;5;45;0.78000000000000003;0.13;0.059999999999999998;0.029999999999999999;87;1;0;0;0.57999999999999996;0.41999999999999998;0.0;0.0;0;1.9497865276352968;15;9;22;2;spannendes experiment
2019_02_22 11:21;11;3;0;control;74;145;0;91;89;90;74;0.57999999999999996;0.29999999999999999;0.11;0.010000000000000101;2;75;84;39;0.32000000000000001;0.27000000000000002;0.39000000000000001;0.0199999999999999;0;3.666561042320609;15;9;22;2;spannendes experiment
2019_02_22 11:21;11;3;0;control;75;108;0;48;72;39;70;0.14000000000000001;0.66000000000000003;0.02;0.17999999999999999;81;44;98;8;0.59999999999999998;0.029999999999999999;0.050000000000000003;0.32000000000000001;0;2.233206691023952;15;9;22;2;spannendes experiment
2019_02_22 11:21;11;4;0;timed;1;71;0;68;55;36;51;0.20000000000000001;0.75;0.02;0.029999999999999999;38;81;0;0;0.52000000000000002;0.47999999999999998;0.0;0.0;0;1.5749295695150067;15;9;22;2;spannendes experiment
2019_02_22 11:21;11;4;0;timed;2;56;0;28;84;37;41;0.68000000000000005;0.28000000000000003;0.02;0.0199999999999999;6;95;0;0;0.72999999999999998;0.27000000000000002;0.0;0.0;1;1.6331585186253506;15;9;22;2;spannendes experiment
2019_02_22 11:21;11;4;0;timed;3;14;0;36;40;0;0;0.54000000000000004;0.46000000000000002;0.0;0.0;99;70;1;11;0.16;0.089999999999999997;0.080000000000000002;0.67000000000000004;1;1.8832335675015202;15;9;22;2;spannendes experiment
2019_02_22 11:21;11;4;0;timed;4;124;0;37;65;15;41;0.17999999999999999;0.45000000000000001;0.02;0.34999999999999998;40;7;98;30;0.070000000000000007;0.45000000000000001;0.45000000000000001;0.029999999999999898;0;1.333375134061498;15;9;22;2;spannendes experiment
2019_02_22 11:21;11;4;0;timed;5;144;1;99;93;90;71;0.65000000000000002;0.32000000000000001;0.01;0.02;97;14;48;73;0.23000000000000001;0.46000000000000002;0.13;0.17999999999999999;0;1.5001218742454512;15;9;22;2;spannendes experiment
2019_02_22 11:21;11;4;0;timed;6;49;0;21;30;0;0;0.53000000000000003;0.46999999999999997;0.0;0.0;93;99;89;25;0.44;0.02;0.11;0.42999999999999999;0;1.5499264264417434;15;9;22;2;spannendes experiment
2019_02_22 11:21;11;4;0;timed;7;41;1;99;40;0;0;0.89000000000000001;0.11;0.0;0.0;1;67;52;46;0.51000000000000001;0.38;0.029999999999999999;0.080000000000000002;0;1.2999196912878688;15;9;22;2;spannendes experiment
2019_02_22 11:21;11;4;0;timed;8;44;1;79;74;0;0;0.71999999999999997;0.28000000000000003;0.0;0.0;3;67;15;36;0.41999999999999998;0.53000000000000003;0.02;0.029999999999999999;0;1.3999098130589118;15;9;22;2;spannendes experiment
2019_02_22 11:21;11;4;0;timed;9;55;1;74;55;47;48;0.60999999999999999;0.31;0.070000000000000007;0.01;97;6;0;0;0.42999999999999999;0.56999999999999995;0.0;0.0;0;1.3166203116907127;15;9;22;2;spannendes experiment
2019_02_22 11:21;11;4;0;timed;10;102;1;40;56;53;17;0.28000000000000003;0.26000000000000001;0.14999999999999999;0.31;1;76;29;62;0.68000000000000005;0.23000000000000001;0.050000000000000003;0.039999999999999897;1;1.4499353425035224;15;9;22;2;spannendes experiment
2019_02_22 11:21;11;4;0;timed;11;110;0;47;44;23;52;0.13;0.27000000000000002;0.040000000000000001;0.56000000000000005;99;2;30;22;0.28999999999999998;0.5;0.11;0.10000000000000001;0;1.599879152063295;15;9;22;2;spannendes experiment
2019_02_22 11:21;11;4;0;timed;12;30;1;33;30;0;0;0.71999999999999997;0.28000000000000003;0.0;0.0;9;88;1;14;0.55000000000000004;0.39000000000000001;0.01;0.049999999999999899;0;1.3332045101160475;15;9;22;2;spannendes experiment
2019_02_22 11:21;11;4;0;timed;13;73;1;65;68;70;47;0.25;0.23000000000000001;0.20999999999999999;0.31;27;95;0;0;0.45000000000000001;0.55000000000000004;0.0;0.0;1;1.4167464194615604;15;9;22;2;spannendes experiment
2019_02_22 11:21;11;4;0;timed;14;130;0;37;79;23;95;0.94999999999999996;0.029999999999999999;0.01;0.01;94;4;58;49;0.46000000000000002;0.5;0.029999999999999999;0.01;1;1.2665752182201686;15;9;22;2;spannendes experiment
2019_02_22 11:21;11;4;0;timed;15;93;1;87;81;73;98;0.80000000000000004;0.040000000000000001;0.14999999999999999;0.0099999999999999499;5;71;0;0;0.51000000000000001;0.48999999999999999;0.0;0.0;0;1.4499459263206518;15;9;22;2;spannendes experiment
2019_02_22 11:21;11;4;0;timed;16;100;1;27;14;59;52;0.02;0.95999999999999996;0.01;0.01;17;98;0;0;0.48999999999999999;0.51000000000000001;0.0;0.0;0;1.7333837294027035;15;9;22;2;spannendes experiment
2019_02_22 11:21;11;4;0;timed;17;89;1;26;41;13;56;0.059999999999999998;0.40999999999999998;0.050000000000000003;0.47999999999999998;5;97;0;0;0.37;0.63;0.0;0.0;1;1.3167428273809492;15;9;22;2;spannendes experiment
2019_02_22 11:21;11;4;0;timed;18;85;0;31;22;82;50;0.11;0.69999999999999996;0.01;0.17999999999999999;3;99;0;0;0.62;0.38;0.0;0.0;1;1.4001012839125906;15;9;22;2;spannendes experiment
2019_02_22 11:21;11;4;0;timed;19;115;0;50;28;61;79;0.83999999999999997;0.040000000000000001;0.059999999999999998;0.059999999999999998;1;26;97;55;0.45000000000000001;0.080000000000000002;0.40999999999999998;0.060000000000000102;0;1.7499352142167481;15;9;22;2;spannendes experiment
2019_02_22 11:21;11;4;0;timed;20;48;1;13;32;0;0;0.90000000000000002;0.10000000000000001;0.0;0.0;24;99;84;94;0.62;0.14999999999999999;0.20000000000000001;0.029999999999999999;0;1.3332769932221709;15;9;22;2;spannendes experiment
2019_02_22 11:21;11;4;0;timed;21;103;0;38;49;89;50;0.89000000000000001;0.070000000000000007;0.01;0.029999999999999999;6;64;99;27;0.70999999999999996;0.17999999999999999;0.059999999999999998;0.050000000000000003;0;1.5000558055762667;15;9;22;2;spannendes experiment
2019_02_22 11:21;11;4;0;timed;22;96;1;51;54;39;7;0.17000000000000001;0.26000000000000001;0.10000000000000001;0.46999999999999997;24;96;0;0;0.28000000000000003;0.71999999999999997;0.0;0.0;1;1.7500307892842102;15;9;22;2;spannendes experiment
2019_02_22 11:21;11;4;0;timed;23;17;1;81;52;0;0;0.059999999999999998;0.93999999999999995;0.0;0.0;34;3;69;41;0.01;0.22;0.75;0.02;0;1.4166277524327597;15;9;22;2;spannendes experiment
2019_02_22 11:21;11;4;0;timed;24;23;1;54;40;0;0;0.93000000000000005;0.070000000000000007;0.0;0.0;36;23;71;86;0.02;0.41999999999999998;0.19;0.37;0;1.5999096206251124;15;9;22;2;spannendes experiment
2019_02_22 11:21;11;4;0;timed;25;20;0;44;40;0;0;0.91000000000000003;0.089999999999999997;0.0;0.0;29;5;80;99;0.25;0.40000000000000002;0.26000000000000001;0.089999999999999997;0;1.9499077604377817;15;9;22;2;spannendes experiment
2019_02_22 11:21;11;4;0;timed;26;133;0;59;88;60;36;0.67000000000000004;0.070000000000000007;0.12;0.14000000000000001;7;91;66;61;0.25;0.68999999999999995;0.01;0.0500000000000001;0;1.5666007476665982;15;9;22;2;spannendes experiment
2019_02_22 11:21;11;4;0;timed;27;46;0;5;19;0;0;0.32000000000000001;0.68000000000000005;0.0;0.0;88;38;97;66;0.60999999999999999;0.20000000000000001;0.040000000000000001;0.14999999999999999;0;1.4333979694456502;15;9;22;2;spannendes experiment
2019_02_22 11:21;11;4;0;timed;28;5;1;70;5;0;0;0.98999999999999999;0.01;0.0;0.0;92;87;47;1;0.44;0.02;0.16;0.38;0;1.783353773997078;15;9;22;2;spannendes experiment
2019_02_22 11:21;11;4;0;timed;29;16;0;64;53;0;0;0.65000000000000002;0.34999999999999998;0.0;0.0;29;17;81;46;0.10000000000000001;0.01;0.44;0.45000000000000001;1;1.9832865507287352;15;9;22;2;spannendes experiment
2019_02_22 11:21;11;4;0;timed;30;10;0;45;62;0;0;0.059999999999999998;0.93999999999999995;0.0;0.0;17;99;28;67;0.58999999999999997;0.34000000000000002;0.01;0.059999999999999998;0;1.3167928599650622;15;9;22;2;spannendes experiment
2019_02_22 11:21;11;4;0;timed;31;43;0;60;83;0;0;0.23000000000000001;0.77000000000000002;0.0;0.0;72;5;70;12;0.29999999999999999;0.40999999999999998;0.12;0.17000000000000001;0;2.0165463532666763;15;9;22;2;spannendes experiment
2019_02_22 11:21;11;4;0;timed;32;15;1;77;81;0;0;0.28000000000000003;0.71999999999999997;0.0;0.0;98;14;87;18;0.55000000000000004;0.23000000000000001;0.16;0.059999999999999901;0;1.6999231550798868;15;9;22;2;spannendes experiment
2019_02_22 11:21;11;4;0;timed;33;137;1;71;22;28;17;0.25;0.46000000000000002;0.050000000000000003;0.23999999999999999;3;98;92;69;0.42999999999999999;0.23999999999999999;0.20000000000000001;0.13;1;2.0665911260166467;15;9;22;2;spannendes experiment
2019_02_22 11:21;11;4;0;timed;34;108;1;48;72;39;70;0.14000000000000001;0.66000000000000003;0.02;0.17999999999999999;81;44;98;8;0.59999999999999998;0.029999999999999999;0.050000000000000003;0.32000000000000001;1;1.7166042114604352;15;9;22;2;spannendes experiment
2019_02_22 11:21;11;4;0;timed;35;64;1;48;39;34;19;0.46000000000000002;0.5;0.02;0.02;13;92;0;0;0.68999999999999995;0.31;0.0;0.0;1;1.7333753906386846;15;9;22;2;spannendes experiment
2019_02_22 11:21;11;4;0;timed;36;92;1;90;86;65;94;0.16;0.34000000000000002;0.28000000000000003;0.22;79;22;0;0;0.35999999999999999;0.64000000000000001;0.0;0.0;1;1.9498914036321366;15;9;22;2;spannendes experiment
2019_02_22 11:21;11;4;0;timed;37;77;0;24;17;99;41;0.17999999999999999;0.13;0.10000000000000001;0.58999999999999997;12;97;0;0;0.59999999999999998;0.40000000000000002;0.0;0.0;NA;2.4165761162403214;15;9;22;2;spannendes experiment
2019_02_22 11:21;11;4;0;timed;38;1;1;22;51;0;0;0.26000000000000001;0.73999999999999999;0.0;0.0;14;11;92;31;0.29999999999999999;0.40999999999999998;0.14999999999999999;0.14000000000000001;0;1.2665678416196897;15;9;22;2;spannendes experiment
2019_02_22 11:21;11;4;0;timed;39;148;1;37;63;55;10;0.72999999999999998;0.070000000000000007;0.029999999999999999;0.17000000000000001;80;14;23;70;0.46999999999999997;0.10000000000000001;0.23000000000000001;0.20000000000000001;0;1.6499309806895326;15;9;22;2;spannendes experiment
2019_02_22 11:21;11;4;0;timed;40;6;0;9;51;0;0;0.14999999999999999;0.84999999999999998;0.0;0.0;6;40;50;73;0.42999999999999999;0.26000000000000001;0.059999999999999998;0.25;0;1.2500545226885151;15;9;22;2;spannendes experiment
2019_02_22 11:21;11;4;0;timed;41;63;1;56;78;42;36;0.93000000000000005;0.040000000000000001;0.01;0.0199999999999999;2;72;0;0;0.32000000000000001;0.68000000000000005;0.0;0.0;0;1.0499084660259541;15;9;22;2;spannendes experiment
2019_02_22 11:21;11;4;0;timed;42;122;1;35;58;25;31;0.81999999999999995;0.070000000000000007;0.080000000000000002;0.029999999999999999;18;64;68;89;0.63;0.17000000000000001;0.11;0.089999999999999997;0;1.2832556331577507;15;9;22;2;spannendes experiment
2019_02_22 11:21;11;4;0;timed;43;80;1;47;39;45;10;0.13;0.76000000000000001;0.059999999999999998;0.050000000000000003;2;87;0;0;0.48999999999999999;0.51000000000000001;0.0;0.0;1;1.7999325201544707;15;9;22;2;spannendes experiment
2019_02_22 11:21;11;4;0;timed;44;131;1;83;41;81;88;0.23999999999999999;0.58999999999999997;0.10000000000000001;0.070000000000000007;82;97;4;17;0.26000000000000001;0.46999999999999997;0.11;0.16;0;1.9500392563350033;15;9;22;2;spannendes experiment
2019_02_22 11:21;11;4;0;timed;45;136;0;29;67;14;75;0.46000000000000002;0.29999999999999999;0.20999999999999999;0.0300000000000001;70;86;1;85;0.31;0.39000000000000001;0.27000000000000002;0.029999999999999898;0;2.1334571105289797;15;9;22;2;spannendes experiment
2019_02_22 11:21;11;4;0;timed;46;76;0;39;62;9;28;0.01;0.51000000000000001;0.26000000000000001;0.22;77;7;0;0;0.57999999999999996;0.41999999999999998;0.0;0.0;1;1.5999192422768829;15;9;22;2;spannendes experiment
2019_02_22 11:21;11;4;0;timed;47;57;0;52;35;23;47;0.22;0.68000000000000005;0.040000000000000001;0.059999999999999998;71;7;0;0;0.28999999999999998;0.70999999999999996;0.0;0.0;0;1.533212656448086;15;9;22;2;spannendes experiment
2019_02_22 11:21;11;4;0;timed;48;94;1;84;86;93;39;0.78000000000000003;0.20000000000000001;0.01;0.0099999999999999603;9;83;0;0;0.46999999999999997;0.53000000000000003;0.0;0.0;0;1.5832199047599715;15;9;22;2;spannendes experiment
2019_02_22 11:21;11;4;0;timed;49;111;1;51;36;48;27;0.93000000000000005;0.01;0.01;0.049999999999999899;31;78;30;53;0.55000000000000004;0.16;0.029999999999999999;0.26000000000000001;0;1.4000172548276169;15;9;22;2;spannendes experiment
2019_02_22 11:21;11;4;0;timed;50;22;1;32;55;0;0;0.39000000000000001;0.60999999999999999;0.0;0.0;93;72;59;22;0.20000000000000001;0.11;0.14000000000000001;0.55000000000000004;0;1.8998847967650363;15;9;22;2;spannendes experiment
2019_02_22 11:21;11;4;0;timed;51;3;1;53;40;0;0;0.31;0.68999999999999995;0.0;0.0;96;24;7;88;0.11;0.27000000000000002;0.58999999999999997;0.029999999999999999;0;1.7999235399456666;15;9;22;2;spannendes experiment
2019_02_22 11:21;11;4;0;timed;52;86;1;56;30;57;88;0.20000000000000001;0.35999999999999999;0.080000000000000002;0.35999999999999999;98;2;0;0;0.77000000000000002;0.23000000000000001;0.0;0.0;1;1.6167423783681443;15;9;22;2;spannendes experiment
2019_02_22 11:21;11;4;0;timed;53;78;0;74;36;34;3;0.14999999999999999;0.64000000000000001;0.13;0.080000000000000002;1;83;0;0;0.41999999999999998;0.57999999999999996;0.0;0.0;1;2.2665460325442837;15;9;22;2;spannendes experiment
2019_02_22 11:21;11;4;0;timed;54;117;0;65;85;92;41;0.23000000000000001;0.17999999999999999;0.54000000000000004;0.050000000000000003;99;93;10;13;0.64000000000000001;0.16;0.01;0.19;0;2.3333982260246557;15;9;22;2;spannendes experiment
2019_02_22 11:21;11;4;0;timed;55;138;0;8;20;43;51;0.38;0.5;0.02;0.10000000000000001;72;82;70;1;0.39000000000000001;0.050000000000000003;0.070000000000000007;0.48999999999999999;0;2.3498929430970747;15;9;22;2;spannendes experiment
2019_02_22 11:21;11;4;0;timed;56;99;1;8;24;15;73;0.56000000000000005;0.35999999999999999;0.070000000000000007;0.0099999999999999499;88;12;0;0;0.52000000000000002;0.47999999999999998;0.0;0.0;0;1.9831383773016569;15;9;22;2;spannendes experiment
2019_02_22 11:21;11;4;0;timed;57;52;0;71;51;10;54;0.22;0.12;0.19;0.46999999999999997;91;1;0;0;0.29999999999999999;0.69999999999999996;0.0;0.0;1;1.7500971786757873;15;9;22;2;spannendes experiment
2019_02_22 11:21;11;4;0;timed;58;13;0;52;56;0;0;0.46999999999999997;0.53000000000000003;0.0;0.0;94;71;27;2;0.089999999999999997;0.31;0.57999999999999996;0.020000000000000101;1;2.2498649761637353;15;9;22;2;spannendes experiment
2019_02_22 11:21;11;4;0;timed;59;150;1;25;21;78;38;0.84999999999999998;0.059999999999999998;0.050000000000000003;0.040000000000000001;31;43;64;95;0.059999999999999998;0.45000000000000001;0.13;0.35999999999999999;0;1.7998991650965763;15;9;22;2;spannendes experiment
2019_02_22 11:21;11;4;0;timed;60;21;0;64;28;0;0;0.080000000000000002;0.92000000000000004;0.0;0.0;50;1;88;13;0.57999999999999996;0.13;0.02;0.27000000000000002;0;2.266734296183131;15;9;22;2;spannendes experiment
2019_02_22 11:21;11;4;0;timed;61;34;0;32;48;0;0;0.28000000000000003;0.71999999999999997;0.0;0.0;97;83;7;62;0.040000000000000001;0.54000000000000004;0.35999999999999999;0.059999999999999901;0;1.749903462768998;15;9;22;2;spannendes experiment
2019_02_22 11:21;11;4;0;timed;62;126;0;16;55;51;42;0.68999999999999995;0.23999999999999999;0.01;0.060000000000000102;66;4;1;5;0.46999999999999997;0.38;0.089999999999999997;0.059999999999999998;0;1.849923732381285;15;9;22;2;spannendes experiment
2019_02_22 11:21;11;4;0;timed;63;140;0;36;32;26;27;0.39000000000000001;0.14999999999999999;0.19;0.27000000000000002;44;3;99;25;0.29999999999999999;0.34000000000000002;0.34000000000000002;0.0199999999999999;1;1.65006728741173;15;9;22;2;spannendes experiment
2019_02_22 11:21;11;4;0;timed;64;134;0;57;48;50;55;0.02;0.62;0.17999999999999999;0.17999999999999999;80;96;15;18;0.23999999999999999;0.35999999999999999;0.33000000000000002;0.070000000000000007;0;1.8833541588628577;15;9;22;2;spannendes experiment
2019_02_22 11:21;11;4;0;timed;65;132;0;27;70;21;19;0.64000000000000001;0.23000000000000001;0.029999999999999999;0.10000000000000001;11;85;55;6;0.39000000000000001;0.46999999999999997;0.029999999999999999;0.11;0;1.7999068624176289;15;9;22;2;spannendes experiment
2019_02_22 11:21;11;4;0;timed;66;19;0;22;53;0;0;0.13;0.87;0.0;0.0;4;93;96;65;0.46999999999999997;0.059999999999999998;0.26000000000000001;0.20999999999999999;0;1.4833664104316995;15;9;22;2;spannendes experiment
2019_02_22 11:21;11;4;0;timed;67;18;1;68;50;0;0;0.029999999999999999;0.96999999999999997;0.0;0.0;34;64;15;89;0.65000000000000002;0.029999999999999999;0.050000000000000003;0.27000000000000002;0;1.799881204682606;15;9;22;2;spannendes experiment
2019_02_22 11:21;11;4;0;timed;68;119;1;60;58;11;18;0.25;0.72999999999999998;0.01;0.01;96;23;42;85;0.44;0.48999999999999999;0.059999999999999998;0.010000000000000101;0;1.8999165482127864;15;9;22;2;spannendes experiment
2019_02_22 11:21;11;4;0;timed;69;145;0;91;89;90;74;0.57999999999999996;0.29999999999999999;0.11;0.010000000000000101;2;75;84;39;0.32000000000000001;0.27000000000000002;0.39000000000000001;0.0199999999999999;0;1.899908850891734;15;9;22;2;spannendes experiment
2019_02_22 11:21;11;4;0;timed;70;4;0;40;43;0;0;0.58999999999999997;0.40999999999999998;0.0;0.0;2;33;88;81;0.69999999999999996;0.14000000000000001;0.13;0.029999999999999999;1;1.483231065874861;15;9;22;2;spannendes experiment
2019_02_22 11:21;11;4;0;timed;71;12;1;53;68;0;0;0.31;0.68999999999999995;0.0;0.0;69;54;97;29;0.25;0.20999999999999999;0.20000000000000001;0.34000000000000002;0;1.8332324129041808;15;9;22;2;spannendes experiment
2019_02_22 11:21;11;4;0;timed;72;123;0;26;24;51;92;0.72999999999999998;0.16;0.070000000000000007;0.040000000000000001;6;90;82;49;0.64000000000000001;0.25;0.050000000000000003;0.059999999999999998;0;1.9165921523235738;15;9;22;2;spannendes experiment
2019_02_22 11:21;11;4;0;timed;73;24;0;35;27;0;0;0.070000000000000007;0.93000000000000005;0.0;0.0;62;3;81;95;0.35999999999999999;0.55000000000000004;0.01;0.080000000000000002;0;1.5832866148721223;15;9;22;2;spannendes experiment
2019_02_22 11:21;11;4;0;timed;74;113;1;85;65;39;64;0.44;0.34000000000000002;0.13;0.089999999999999997;87;2;4;35;0.67000000000000004;0.17000000000000001;0.11;0.049999999999999899;1;1.7001867883191153;15;9;22;2;spannendes experiment
2019_02_22 11:21;11;4;0;timed;75;53;0;26;70;50;80;0.29999999999999999;0.59999999999999998;0.040000000000000001;0.059999999999999998;89;1;0;0;0.40999999999999998;0.58999999999999997;0.0;0.0;1;2.199937587556633;15;9;22;2;spannendes experiment
