date;id;block;order;cond;trial;gameid;leftright;oa1;oa2;oa3;oa4;pa1;pa2;pa3;pa4;ob1;ob2;ob3;ob4;pb1;pb2;pb3;pb4;choice;rt;paytrial;payout;alter;geschlecht;comment
2019_03_18 10:23;39;0;0;practice;1;49;0;14;31;42;22;0.77000000000000002;0.089999999999999997;0.02;0.12;87;28;0;0;0.68000000000000005;0.32000000000000001;0.0;0.0;0;15.893579680614494;33;40;23;2;nein
2019_03_18 10:23;39;0;0;practice;2;70;1;21;42;14;63;0.96999999999999997;0.01;0.01;0.01;70;2;6;76;0.23999999999999999;0.42999999999999999;0.01;0.32000000000000001;1;15.030238340897995;33;40;23;2;nein
2019_03_18 10:23;39;0;0;practice;3;45;0;37;40;75;23;0.54000000000000004;0.38;0.059999999999999998;0.02;1;90;0;0;0.28000000000000003;0.71999999999999997;0.0;0.0;0;15.240384883683873;33;40;23;2;nein
2019_03_18 10:23;39;0;0;practice;4;30;1;54;78;85;25;0.20999999999999999;0.60999999999999999;0.089999999999999997;0.090000000000000094;87;20;0;0;0.58999999999999997;0.40999999999999998;0.0;0.0;0;18.142354428212457;33;40;23;2;nein
2019_03_18 10:23;39;0;0;practice;5;40;0;29;65;30;41;0.70999999999999996;0.01;0.14999999999999999;0.13;2;59;0;0;0.32000000000000001;0.68000000000000005;0.0;0.0;1;9.636607504532549;33;40;23;2;nein
2019_03_18 10:23;39;0;0;practice;6;48;0;20;25;24;35;0.32000000000000001;0.13;0.48999999999999999;0.059999999999999901;44;76;0;0;0.29999999999999999;0.69999999999999996;0.0;0.0;1;7.114919871491111;33;40;23;2;nein
2019_03_18 10:23;39;0;0;practice;7;17;1;27;61;0;0;0.68999999999999995;0.31;0.0;0.0;3;91;69;43;0.29999999999999999;0.33000000000000002;0.27000000000000002;0.099999999999999895;1;20.123565033071827;33;40;23;2;nein
2019_03_18 10:23;39;0;0;practice;8;61;0;51;48;56;88;0.91000000000000003;0.02;0.01;0.059999999999999998;78;21;14;82;0.55000000000000004;0.29999999999999999;0.070000000000000007;0.080000000000000002;1;35.23390301703512;33;40;23;2;nein
2019_03_18 10:23;39;0;0;practice;9;47;0;91;99;90;78;0.93000000000000005;0.040000000000000001;0.02;0.0099999999999999499;10;87;0;0;0.23000000000000001;0.77000000000000002;0.0;0.0;0;11.367781626841861;33;40;23;2;nein
2019_03_18 10:23;39;0;0;practice;10;16;1;50;42;0;0;0.32000000000000001;0.68000000000000005;0.0;0.0;97;2;56;31;0.35999999999999999;0.16;0.16;0.32000000000000001;1;9.596435646866667;33;40;23;2;nein
2019_03_18 10:23;39;0;0;practice;11;35;0;84;95;4;35;0.89000000000000001;0.050000000000000003;0.01;0.050000000000000003;5;98;0;0;0.19;0.81000000000000005;0.0;0.0;0;11.757877103680585;33;40;23;2;nein
2019_03_18 10:23;39;0;0;practice;12;58;0;44;50;85;42;0.38;0.57999999999999996;0.02;0.02;37;88;19;12;0.20000000000000001;0.29999999999999999;0.46000000000000002;0.040000000000000001;0;25.747329076447386;33;40;23;2;nein
2019_03_18 10:23;39;0;0;practice;13;52;0;17;61;57;59;0.070000000000000007;0.050000000000000003;0.33000000000000002;0.55000000000000004;12;93;94;62;0.71999999999999997;0.16;0.080000000000000002;0.040000000000000001;0;11.938003078325892;33;40;23;2;nein
2019_03_18 10:23;39;0;0;practice;14;8;0;20;44;0;0;0.26000000000000001;0.73999999999999999;0.0;0.0;99;3;69;24;0.20999999999999999;0.60999999999999999;0.12;0.060000000000000102;0;5.753974513210778;33;40;23;2;nein
2019_03_18 10:23;39;0;0;practice;15;60;0;39;93;27;78;0.85999999999999999;0.02;0.11;0.01;22;5;62;95;0.059999999999999998;0.56999999999999995;0.14000000000000001;0.23000000000000001;0;15.65053886730584;33;40;23;2;nein
2019_03_18 10:23;39;0;0;practice;16;57;0;39;68;59;91;0.73999999999999999;0.040000000000000001;0.14999999999999999;0.070000000000000007;9;22;40;84;0.29999999999999999;0.32000000000000001;0.040000000000000001;0.34000000000000002;0;11.577754336291036;33;40;23;2;nein
2019_03_18 10:23;39;0;0;practice;17;71;0;94;87;26;75;0.71999999999999997;0.23999999999999999;0.02;0.02;90;27;12;83;0.16;0.73999999999999999;0.02;0.080000000000000002;0;11.887985903463232;33;40;23;2;nein
2019_03_18 10:23;39;0;0;practice;18;25;1;7;18;0;0;0.20999999999999999;0.79000000000000004;0.0;0.0;92;45;33;13;0.41999999999999998;0.17999999999999999;0.22;0.17999999999999999;1;18.01227705954807;33;40;23;2;nein
2019_03_18 10:23;39;0;0;practice;19;32;0;21;86;16;78;0.45000000000000001;0.41999999999999998;0.050000000000000003;0.080000000000000099;95;9;0;0;0.42999999999999999;0.56999999999999995;0.0;0.0;0;20.523860870469434;33;40;23;2;nein
2019_03_18 10:23;39;0;0;practice;20;24;0;19;38;0;0;0.89000000000000001;0.11;0.0;0.0;45;76;95;57;0.29999999999999999;0.22;0.40000000000000002;0.080000000000000002;1;7.675263291755982;33;40;23;2;nein
2019_03_18 10:23;39;0;0;practice;21;53;0;47;24;95;38;0.57999999999999996;0.28000000000000003;0.02;0.12;8;22;93;96;0.54000000000000004;0.34000000000000002;0.10000000000000001;0.0199999999999999;0;11.007368031793703;33;40;23;2;nein
2019_03_18 10:23;39;0;0;practice;22;72;1;86;85;97;43;0.51000000000000001;0.14999999999999999;0.33000000000000002;0.0099999999999999499;72;29;10;90;0.01;0.11;0.65000000000000002;0.23000000000000001;0;9.646444162134685;33;40;23;2;nein
2019_03_18 10:23;39;0;0;practice;23;39;1;53;65;48;75;0.92000000000000004;0.029999999999999999;0.01;0.040000000000000001;16;83;0;0;0.31;0.68999999999999995;0.0;0.0;0;12.678469586703613;33;40;23;2;nein
2019_03_18 10:23;39;0;0;practice;24;75;1;21;86;27;62;0.88;0.040000000000000001;0.070000000000000007;0.0099999999999999794;13;3;49;87;0.28999999999999998;0.39000000000000001;0.070000000000000007;0.25;0;15.980870635604333;33;40;23;2;nein
2019_03_18 10:23;39;0;0;practice;25;66;1;44;18;63;36;0.47999999999999998;0.10000000000000001;0.029999999999999999;0.39000000000000001;13;93;61;53;0.52000000000000002;0.45000000000000001;0.02;0.0099999999999999707;0;6.134226276480149;33;40;23;2;nein
2019_03_18 10:23;39;0;0;practice;26;5;1;23;58;0;0;0.71999999999999997;0.28000000000000003;0.0;0.0;94;12;52;3;0.11;0.84999999999999998;0.029999999999999999;0.01;0;6.4844619617706485;33;40;23;2;nein
2019_03_18 10:23;39;0;0;practice;27;69;0;38;74;27;73;0.22;0.19;0.45000000000000001;0.14000000000000001;1;97;79;84;0.28000000000000003;0.45000000000000001;0.17000000000000001;0.10000000000000001;1;8.935974167467975;33;40;23;2;nein
2019_03_18 10:23;39;0;0;practice;28;21;1;59;69;0;0;0.34000000000000002;0.66000000000000003;0.0;0.0;64;18;5;24;0.14999999999999999;0.040000000000000001;0.51000000000000001;0.29999999999999999;0;6.5944179614098175;33;40;23;2;nein
2019_03_18 10:23;39;0;0;practice;29;43;0;11;17;21;44;0.16;0.46000000000000002;0.25;0.13;2;66;0;0;0.44;0.56000000000000005;0.0;0.0;0;9.356271743198704;33;40;23;2;nein
2019_03_18 10:23;39;0;0;practice;30;7;0;13;31;0;0;0.51000000000000001;0.48999999999999999;0.0;0.0;8;79;42;18;0.85999999999999999;0.089999999999999997;0.02;0.029999999999999999;0;4.553550128947791;33;40;23;2;nein
2019_03_18 10:23;39;0;0;practice;31;14;1;92;56;0;0;0.11;0.89000000000000001;0.0;0.0;97;31;51;4;0.58999999999999997;0.22;0.080000000000000002;0.11;1;7.004689330641668;33;40;23;2;nein
2019_03_18 10:23;39;0;0;practice;32;2;0;41;60;0;0;0.97999999999999998;0.02;0.0;0.0;10;14;97;6;0.54000000000000004;0.17000000000000001;0.12;0.17000000000000001;0;10.116805738680341;33;40;23;2;nein
2019_03_18 10:23;39;0;0;practice;33;50;0;17;12;21;14;0.55000000000000004;0.34000000000000002;0.059999999999999998;0.049999999999999899;13;93;0;0;0.28999999999999998;0.70999999999999996;0.0;0.0;1;5.753940195559153;33;40;23;2;nein
2019_03_18 10:23;39;0;0;practice;34;55;1;53;11;80;74;0.31;0.37;0.28000000000000003;0.039999999999999897;6;93;98;96;0.69999999999999996;0.22;0.050000000000000003;0.029999999999999999;0;17.771963697698084;33;40;23;2;nein
2019_03_18 10:23;39;0;0;practice;35;65;0;35;15;77;1;0.62;0.33000000000000002;0.029999999999999999;0.02;68;3;25;96;0.38;0.28000000000000003;0.28000000000000003;0.059999999999999901;0;18.422619629888686;33;40;23;2;nein
2019_03_18 10:23;39;0;0;practice;36;26;0;24;46;74;59;0.29999999999999999;0.11;0.25;0.34000000000000002;91;6;0;0;0.28999999999999998;0.70999999999999996;0.0;0.0;0;7.034837868342038;33;40;23;2;nein
2019_03_18 10:23;39;0;0;practice;37;9;0;57;44;0;0;0.14999999999999999;0.84999999999999998;0.0;0.0;38;35;64;95;0.34000000000000002;0.45000000000000001;0.089999999999999997;0.12;0;8.115530212522572;33;40;23;2;nein
2019_03_18 10:23;39;0;0;practice;38;74;1;36;46;10;12;0.11;0.19;0.65000000000000002;0.049999999999999899;92;24;79;19;0.51000000000000001;0.40999999999999998;0.02;0.059999999999999998;1;10.176998578222992;33;40;23;2;nein
2019_03_18 10:23;39;0;0;practice;39;15;1;24;59;0;0;0.56999999999999995;0.42999999999999999;0.0;0.0;9;8;80;22;0.31;0.10000000000000001;0.55000000000000004;0.039999999999999897;0;15.20043336458275;33;40;23;2;nein
2019_03_18 10:23;39;0;0;practice;40;13;0;15;25;0;0;0.29999999999999999;0.69999999999999996;0.0;0.0;3;43;35;73;0.44;0.40000000000000002;0.01;0.14999999999999999;0;12.518658378687178;33;40;23;2;nein
2019_03_18 10:23;39;0;0;practice;41;31;1;72;59;40;92;0.59999999999999998;0.34999999999999998;0.02;0.029999999999999999;97;29;0;0;0.38;0.62;0.0;0.0;0;12.358312841633051;33;40;23;2;nein
2019_03_18 10:23;39;0;0;practice;42;20;1;32;11;0;0;0.40999999999999998;0.58999999999999997;0.0;0.0;1;86;42;65;0.45000000000000001;0.38;0.050000000000000003;0.12;1;7.895432513056221;33;40;23;2;nein
2019_03_18 10:23;39;0;0;practice;43;10;1;34;59;0;0;0.16;0.83999999999999997;0.0;0.0;21;61;96;7;0.19;0.01;0.5;0.29999999999999999;0;1.1907535418540647;33;40;23;2;nein
2019_03_18 10:23;39;0;0;practice;44;23;1;99;93;0;0;0.57999999999999996;0.41999999999999998;0.0;0.0;64;10;80;81;0.13;0.55000000000000004;0.02;0.29999999999999999;1;0.7604788306598493;33;40;23;2;nein
2019_03_18 10:23;39;0;0;practice;45;1;0;67;36;0;0;0.14999999999999999;0.84999999999999998;0.0;0.0;1;4;81;77;0.25;0.54000000000000004;0.14000000000000001;0.070000000000000007;0;1.5109625652157774;33;40;23;2;nein
2019_03_18 10:23;39;0;0;practice;46;73;0;99;88;95;28;0.83999999999999997;0.14000000000000001;0.01;0.01;90;93;10;74;0.080000000000000002;0.46000000000000002;0.34999999999999998;0.11;0;1.6912482612660824;33;40;23;2;nein
2019_03_18 10:23;39;0;0;practice;47;18;0;47;36;0;0;0.089999999999999997;0.91000000000000003;0.0;0.0;2;44;81;9;0.20000000000000001;0.25;0.51000000000000001;0.040000000000000001;0;1.7911572072362105;33;40;23;2;nein
2019_03_18 10:23;39;0;0;practice;48;19;0;25;73;0;0;0.69999999999999996;0.29999999999999999;0.0;0.0;87;84;1;86;0.040000000000000001;0.59999999999999998;0.28000000000000003;0.080000000000000002;0;2.3119525813453947;33;40;23;2;nein
2019_03_18 10:23;39;0;0;practice;49;41;1;19;54;51;8;0.76000000000000001;0.070000000000000007;0.16;0.0099999999999999794;2;77;0;0;0.54000000000000004;0.46000000000000002;0.0;0.0;0;4.2027923021978495;33;40;23;2;nein
2019_03_18 10:23;39;0;0;practice;50;3;0;20;70;0;0;0.13;0.87;0.0;0.0;95;19;80;73;0.31;0.57999999999999996;0.029999999999999999;0.080000000000000002;0;2.271494315617929;33;40;23;2;nein
2019_03_18 10:23;39;0;0;practice;51;6;0;42;59;0;0;0.35999999999999999;0.64000000000000001;0.0;0.0;77;19;6;7;0.44;0.14999999999999999;0.17999999999999999;0.23000000000000001;0;1.7112775820105526;33;40;23;2;nein
2019_03_18 10:23;39;0;0;practice;52;33;1;54;82;55;71;0.56000000000000005;0.20999999999999999;0.02;0.20999999999999999;13;99;0;0;0.5;0.5;0.0;0.0;0;9.956813962088745;33;40;23;2;nein
2019_03_18 10:23;39;0;0;practice;53;59;0;13;27;48;51;0.56999999999999995;0.13;0.13;0.17000000000000001;8;37;97;1;0.65000000000000002;0.16;0.14999999999999999;0.040000000000000001;1;2.852002723602709;33;40;23;2;nein
2019_03_18 10:23;39;0;0;practice;54;63;1;24;82;6;96;0.91000000000000003;0.070000000000000007;0.01;0.0099999999999999603;73;10;71;22;0.31;0.51000000000000001;0.050000000000000003;0.13;1;3.212119647369036;33;40;23;2;nein
2019_03_18 10:23;39;0;0;practice;55;64;0;44;60;96;45;0.53000000000000003;0.10000000000000001;0.029999999999999999;0.34000000000000002;88;20;43;31;0.47999999999999998;0.38;0.050000000000000003;0.089999999999999997;1;4.092705125742214;33;40;23;2;nein
2019_03_18 10:23;39;0;0;practice;56;68;0;39;58;40;8;0.48999999999999999;0.44;0.02;0.050000000000000003;92;83;51;2;0.57999999999999996;0.13;0.02;0.27000000000000002;1;7.415129401599188;33;40;23;2;nein
2019_03_18 10:23;39;0;0;practice;57;27;0;68;43;98;36;0.54000000000000004;0.44;0.01;0.0099999999999999603;97;13;0;0;0.27000000000000002;0.72999999999999998;0.0;0.0;0;8.035390158018345;33;40;23;2;nein
2019_03_18 10:23;39;0;0;practice;58;29;1;66;40;92;49;0.46999999999999997;0.10000000000000001;0.34000000000000002;0.089999999999999997;8;94;0;0;0.44;0.56000000000000005;0.0;0.0;0;7.164803945182939;33;40;23;2;nein
2019_03_18 10:23;39;0;0;practice;59;12;1;45;86;0;0;0.97999999999999998;0.02;0.0;0.0;6;23;95;81;0.14999999999999999;0.40999999999999998;0.050000000000000003;0.39000000000000001;0;6.074073527652217;33;40;23;2;nein
2019_03_18 10:23;39;0;0;practice;60;34;1;57;23;66;79;0.56000000000000005;0.23000000000000001;0.13;0.079999999999999905;85;9;0;0;0.56000000000000005;0.44;0.0;0.0;0;9.836986987195814;33;40;23;2;nein
2019_03_18 10:23;39;0;0;practice;61;62;0;65;52;74;55;0.16;0.12;0.14999999999999999;0.56999999999999995;72;86;2;68;0.12;0.53000000000000003;0.22;0.13;0;3.3723596656627706;33;40;23;2;nein
2019_03_18 10:23;39;0;0;practice;62;36;0;56;89;86;77;0.66000000000000003;0.080000000000000002;0.14999999999999999;0.11;29;91;0;0;0.40999999999999998;0.58999999999999997;0.0;0.0;0;2.6018709855161433;33;40;23;2;nein
2019_03_18 10:23;39;0;0;practice;63;37;1;50;66;99;12;0.26000000000000001;0.71999999999999997;0.01;0.01;22;90;0;0;0.37;0.63;0.0;0.0;1;7.394952226301939;33;40;23;2;nein
2019_03_18 10:23;39;0;0;practice;64;67;0;74;31;10;77;0.11;0.070000000000000007;0.77000000000000002;0.050000000000000003;2;23;8;97;0.56999999999999995;0.01;0.059999999999999998;0.35999999999999999;0;8.205460740126;33;40;23;2;nein
2019_03_18 10:23;39;0;0;practice;65;28;1;37;83;75;8;0.83999999999999997;0.070000000000000007;0.01;0.080000000000000002;94;2;0;0;0.19;0.81000000000000005;0.0;0.0;0;7.7351071817220145;33;40;23;2;nein
2019_03_18 10:23;39;0;0;practice;66;11;1;10;44;0;0;0.48999999999999999;0.51000000000000001;0.0;0.0;88;12;54;50;0.17000000000000001;0.75;0.02;0.059999999999999998;0;23.245664991088233;33;40;23;2;nein
2019_03_18 10:23;39;0;0;practice;67;51;1;38;13;51;84;0.91000000000000003;0.070000000000000007;0.01;0.0099999999999999603;4;89;35;16;0.80000000000000004;0.089999999999999997;0.059999999999999998;0.050000000000000003;0;5.6939375463643955;33;40;23;2;nein
2019_03_18 10:23;39;0;0;practice;68;4;1;40;59;0;0;0.19;0.81000000000000005;0.0;0.0;10;88;13;45;0.56000000000000005;0.28999999999999998;0.01;0.14000000000000001;0;14.890153688554165;33;40;23;2;nein
2019_03_18 10:23;39;0;0;practice;69;54;1;69;80;22;55;0.27000000000000002;0.31;0.059999999999999998;0.35999999999999999;52;2;49;90;0.059999999999999998;0.33000000000000002;0.20000000000000001;0.40999999999999998;0;4.372902975019315;33;40;23;2;nein
2019_03_18 10:23;39;0;0;practice;70;42;1;23;45;91;22;0.72999999999999998;0.02;0.20000000000000001;0.050000000000000003;2;86;0;0;0.40999999999999998;0.58999999999999997;0.0;0.0;0;2.511752833371247;33;40;23;2;nein
2019_03_18 10:23;39;0;0;practice;71;38;1;51;89;10;60;0.57999999999999996;0.029999999999999999;0.080000000000000002;0.31;8;84;0;0;0.33000000000000002;0.67000000000000004;0.0;0.0;0;5.643943784480143;33;40;23;2;nein
2019_03_18 10:23;39;0;0;practice;72;46;1;79;57;98;81;0.67000000000000004;0.070000000000000007;0.20999999999999999;0.050000000000000003;1;76;0;0;0.56000000000000005;0.44;0.0;0.0;0;2.7518048037663903;33;40;23;2;nein
2019_03_18 10:23;39;0;0;practice;73;56;1;47;52;64;10;0.77000000000000002;0.040000000000000001;0.11;0.080000000000000002;1;5;12;99;0.14000000000000001;0.28999999999999998;0.27000000000000002;0.29999999999999999;0;4.402942145250563;33;40;23;2;nein
2019_03_18 10:23;39;0;0;practice;74;22;1;84;87;0;0;0.17000000000000001;0.82999999999999996;0.0;0.0;3;24;41;83;0.68000000000000005;0.11;0.10000000000000001;0.11;0;4.833208838302198;33;40;23;2;nein
2019_03_18 10:23;39;0;0;practice;75;44;1;69;48;22;63;0.39000000000000001;0.40999999999999998;0.19;0.01;1;94;0;0;0.22;0.78000000000000003;0.0;0.0;1;12.838707039191831;33;40;23;2;nein
2019_03_18 10:23;39;1;0;control;1;86;0;56;30;57;88;0.20000000000000001;0.35999999999999999;0.080000000000000002;0.35999999999999999;98;2;0;0;0.77000000000000002;0.23000000000000001;0.0;0.0;0;13.32271966423832;33;40;23;2;nein
2019_03_18 10:23;39;1;0;control;2;26;0;76;41;0;0;0.57999999999999996;0.41999999999999998;0.0;0.0;61;79;84;2;0.13;0.029999999999999999;0.67000000000000004;0.17000000000000001;0;11.477848597578486;33;40;23;2;nein
2019_03_18 10:23;39;1;0;control;3;54;1;44;79;78;52;0.79000000000000004;0.19;0.01;0.0099999999999999603;96;1;0;0;0.28000000000000003;0.71999999999999997;0.0;0.0;0;4.993334357517597;33;40;23;2;nein
2019_03_18 10:23;39;1;0;control;4;47;0;2;40;0;0;0.45000000000000001;0.55000000000000004;0.0;0.0;93;89;11;56;0.58999999999999997;0.070000000000000007;0.28000000000000003;0.059999999999999998;1;3.592413104980551;33;40;23;2;nein
2019_03_18 10:23;39;1;0;control;5;74;1;66;47;52;44;0.41999999999999998;0.26000000000000001;0.17999999999999999;0.14000000000000001;17;99;0;0;0.47999999999999998;0.52000000000000002;0.0;0.0;0;13.859339324276334;33;40;23;2;nein
2019_03_18 10:23;39;1;0;control;6;95;0;93;88;68;85;0.83999999999999997;0.14000000000000001;0.01;0.01;2;82;0;0;0.41999999999999998;0.57999999999999996;0.0;0.0;0;5.713813560219023;33;40;23;2;nein
2019_03_18 10:23;39;1;0;control;7;93;0;87;81;73;98;0.80000000000000004;0.040000000000000001;0.14999999999999999;0.0099999999999999499;5;71;0;0;0.51000000000000001;0.48999999999999999;0.0;0.0;0;6.434527213416004;33;40;23;2;nein
2019_03_18 10:23;39;1;0;control;8;113;1;85;65;39;64;0.44;0.34000000000000002;0.13;0.089999999999999997;87;2;4;35;0.67000000000000004;0.17000000000000001;0.11;0.049999999999999899;0;3.652426017398284;33;40;23;2;nein
2019_03_18 10:23;39;1;0;control;9;99;0;8;24;15;73;0.56000000000000005;0.35999999999999999;0.070000000000000007;0.0099999999999999499;88;12;0;0;0.52000000000000002;0.47999999999999998;0.0;0.0;1;9.606591747278799;33;40;23;2;nein
2019_03_18 10:23;39;1;0;control;10;150;1;25;21;78;38;0.84999999999999998;0.059999999999999998;0.050000000000000003;0.040000000000000001;31;43;64;95;0.059999999999999998;0.45000000000000001;0.13;0.35999999999999999;1;11.007368993969976;33;40;23;2;nein
2019_03_18 10:23;39;1;0;control;11;149;1;14;89;73;53;0.93999999999999995;0.01;0.01;0.040000000000000001;97;45;6;13;0.34000000000000002;0.01;0.40999999999999998;0.23999999999999999;1;6.204285921840892;33;40;23;2;nein
2019_03_18 10:23;39;1;0;control;12;27;0;44;26;0;0;0.35999999999999999;0.64000000000000001;0.0;0.0;63;10;3;5;0.58999999999999997;0.19;0.14999999999999999;0.070000000000000007;0;6.634722599520501;33;40;23;2;nein
2019_03_18 10:23;39;1;0;control;13;40;1;45;49;0;0;0.68999999999999995;0.31;0.0;0.0;2;92;65;73;0.23999999999999999;0.59999999999999998;0.11;0.050000000000000003;0;9.51652459052184;33;40;23;2;nein
2019_03_18 10:23;39;1;0;control;14;73;1;65;68;70;47;0.25;0.23000000000000001;0.20999999999999999;0.31;27;95;0;0;0.45000000000000001;0.55000000000000004;0.0;0.0;0;7.755437343185804;33;40;23;2;nein
2019_03_18 10:23;39;1;0;control;15;71;1;68;55;36;51;0.20000000000000001;0.75;0.02;0.029999999999999999;38;81;0;0;0.52000000000000002;0.47999999999999998;0.0;0.0;1;27.84897828013345;33;40;23;2;nein
2019_03_18 10:23;39;1;0;control;16;44;0;79;74;0;0;0.71999999999999997;0.28000000000000003;0.0;0.0;3;67;15;36;0.41999999999999998;0.53000000000000003;0.02;0.029999999999999999;0;4.713264157073354;33;40;23;2;nein
2019_03_18 10:23;39;1;0;control;17;75;1;67;80;36;81;0.81999999999999995;0.080000000000000002;0.059999999999999998;0.040000000000000001;3;97;0;0;0.32000000000000001;0.68000000000000005;0.0;0.0;0;3.952622718477869;33;40;23;2;nein
2019_03_18 10:23;39;1;0;control;18;118;0;62;52;65;68;0.40999999999999998;0.44;0.10000000000000001;0.0500000000000001;79;20;14;37;0.56999999999999995;0.23999999999999999;0.14000000000000001;0.050000000000000003;0;11.26784766426681;33;40;23;2;nein
2019_03_18 10:23;39;1;0;control;19;72;0;63;82;51;61;0.01;0.96999999999999997;0.01;0.01;92;12;0;0;0.89000000000000001;0.11;0.0;0.0;0;8.075413840404508;33;40;23;2;nein
2019_03_18 10:23;39;1;0;control;20;55;0;74;55;47;48;0.60999999999999999;0.31;0.070000000000000007;0.01;97;6;0;0;0.42999999999999999;0.56999999999999995;0.0;0.0;0;7.555187112983731;33;40;23;2;nein
2019_03_18 10:23;39;1;0;control;21;4;0;40;43;0;0;0.58999999999999997;0.40999999999999998;0.0;0.0;2;33;88;81;0.69999999999999996;0.14000000000000001;0.13;0.029999999999999999;0;3.3521754343992143;33;40;23;2;nein
2019_03_18 10:23;39;1;0;control;22;25;0;50;53;0;0;0.82999999999999996;0.17000000000000001;0.0;0.0;83;16;97;4;0.45000000000000001;0.29999999999999999;0.11;0.14000000000000001;0;8.285789381348877;33;40;23;2;nein
2019_03_18 10:23;39;1;0;control;23;22;0;32;55;0;0;0.39000000000000001;0.60999999999999999;0.0;0.0;93;72;59;22;0.20000000000000001;0.11;0.14000000000000001;0.55000000000000004;1;7.314857714848586;33;40;23;2;nein
2019_03_18 10:23;39;1;0;control;24;135;1;48;60;41;51;0.14000000000000001;0.40000000000000002;0.089999999999999997;0.37;94;1;85;65;0.64000000000000001;0.29999999999999999;0.01;0.050000000000000003;0;11.047563623161295;33;40;23;2;nein
2019_03_18 10:23;39;1;0;control;25;124;0;37;65;15;41;0.17999999999999999;0.45000000000000001;0.02;0.34999999999999998;40;7;98;30;0.070000000000000007;0.45000000000000001;0.45000000000000001;0.029999999999999898;0;12.08813382216158;33;40;23;2;nein
2019_03_18 10:23;39;1;0;control;26;28;1;47;30;0;0;0.97999999999999998;0.02;0.0;0.0;55;48;77;13;0.070000000000000007;0.26000000000000001;0.42999999999999999;0.23999999999999999;1;10.196855348533973;33;40;23;2;nein
2019_03_18 10:23;39;1;0;control;27;63;0;56;78;42;36;0.93000000000000005;0.040000000000000001;0.01;0.0199999999999999;2;72;0;0;0.32000000000000001;0.68000000000000005;0.0;0.0;0;6.284294799528652;33;40;23;2;nein
2019_03_18 10:23;39;1;0;control;28;106;0;85;69;22;61;0.10000000000000001;0.58999999999999997;0.17999999999999999;0.13;20;79;91;84;0.55000000000000004;0.14999999999999999;0.26000000000000001;0.039999999999999897;1;17.091514912623097;33;40;23;2;nein
2019_03_18 10:23;39;1;0;control;29;136;1;29;67;14;75;0.46000000000000002;0.29999999999999999;0.20999999999999999;0.0300000000000001;70;86;1;85;0.31;0.39000000000000001;0.27000000000000002;0.029999999999999898;0;5.043640826972478;33;40;23;2;nein
2019_03_18 10:23;39;1;0;control;30;101;1;30;96;61;45;0.65000000000000002;0.14000000000000001;0.11;0.10000000000000001;3;98;63;89;0.75;0.19;0.040000000000000001;0.02;0;2.7319326386195826;33;40;23;2;nein
2019_03_18 10:23;39;1;0;control;31;78;1;74;36;34;3;0.14999999999999999;0.64000000000000001;0.13;0.080000000000000002;1;83;0;0;0.41999999999999998;0.57999999999999996;0.0;0.0;0;3.632307214179491;33;40;23;2;nein
2019_03_18 10:23;39;1;0;control;32;34;1;32;48;0;0;0.28000000000000003;0.71999999999999997;0.0;0.0;97;83;7;62;0.040000000000000001;0.54000000000000004;0.35999999999999999;0.059999999999999901;0;15.480581501374218;33;40;23;2;nein
2019_03_18 10:23;39;1;0;control;33;105;0;49;74;63;58;0.84999999999999998;0.080000000000000002;0.02;0.050000000000000003;97;5;86;8;0.25;0.52000000000000002;0.070000000000000007;0.16;0;2.681782683313031;33;40;23;2;nein
2019_03_18 10:23;39;1;0;control;34;110;1;47;44;23;52;0.13;0.27000000000000002;0.040000000000000001;0.56000000000000005;99;2;30;22;0.28999999999999998;0.5;0.11;0.10000000000000001;0;2.8118122638452405;33;40;23;2;nein
2019_03_18 10:23;39;1;0;control;35;31;0;10;59;0;0;0.23999999999999999;0.76000000000000001;0.0;0.0;1;79;53;73;0.23000000000000001;0.58999999999999997;0.050000000000000003;0.13;0;11.047415768608516;33;40;23;2;nein
2019_03_18 10:23;39;1;0;control;36;45;0;97;87;0;0;0.71999999999999997;0.28000000000000003;0.0;0.0;96;11;14;4;0.25;0.029999999999999999;0.14000000000000001;0.57999999999999996;0;4.3930249854956855;33;40;23;2;nein
2019_03_18 10:23;39;1;0;control;37;13;1;52;56;0;0;0.46999999999999997;0.53000000000000003;0.0;0.0;94;71;27;2;0.089999999999999997;0.31;0.57999999999999996;0.020000000000000101;1;8.836061693515148;33;40;23;2;nein
2019_03_18 10:23;39;1;0;control;38;24;1;35;27;0;0;0.070000000000000007;0.93000000000000005;0.0;0.0;62;3;81;95;0.35999999999999999;0.55000000000000004;0.01;0.080000000000000002;0;10.436948371820108;33;40;23;2;nein
2019_03_18 10:23;39;1;0;control;39;107;1;52;48;13;63;0.68000000000000005;0.19;0.050000000000000003;0.079999999999999905;54;91;33;3;0.19;0.17999999999999999;0.33000000000000002;0.29999999999999999;0;3.582371182922543;33;40;23;2;nein
2019_03_18 10:23;39;1;0;control;40;138;1;8;20;43;51;0.38;0.5;0.02;0.10000000000000001;72;82;70;1;0.39000000000000001;0.050000000000000003;0.070000000000000007;0.48999999999999999;0;6.494498110765562;33;40;23;2;nein
2019_03_18 10:23;39;1;0;control;41;147;1;39;43;76;28;0.14000000000000001;0.10000000000000001;0.10000000000000001;0.66000000000000003;6;31;68;85;0.27000000000000002;0.20000000000000001;0.22;0.31;0;6.05404548981096;33;40;23;2;nein
2019_03_18 10:23;39;1;0;control;42;139;1;44;31;16;8;0.79000000000000004;0.070000000000000007;0.13;0.0099999999999999499;92;58;2;88;0.55000000000000004;0.070000000000000007;0.34000000000000002;0.039999999999999897;0;10.73727240100743;33;40;23;2;nein
2019_03_18 10:23;39;1;0;control;43;81;1;67;38;52;65;0.27000000000000002;0.35999999999999999;0.01;0.35999999999999999;2;77;0;0;0.14000000000000001;0.85999999999999999;0.0;0.0;0;10.196852782728456;33;40;23;2;nein
2019_03_18 10:23;39;1;0;control;44;84;0;43;10;5;45;0.78000000000000003;0.13;0.059999999999999998;0.029999999999999999;87;1;0;0;0.57999999999999996;0.41999999999999998;0.0;0.0;0;6.71462243046517;33;40;23;2;nein
2019_03_18 10:23;39;1;0;control;45;88;0;77;13;12;7;0.12;0.19;0.66000000000000003;0.029999999999999898;94;2;0;0;0.40999999999999998;0.58999999999999997;0.0;0.0;0;3.82229614593507;33;40;23;2;nein
2019_03_18 10:23;39;1;0;control;46;125;1;37;41;10;35;0.91000000000000003;0.040000000000000001;0.029999999999999999;0.02;7;13;91;93;0.26000000000000001;0.39000000000000001;0.16;0.19;0;7.725194832852139;33;40;23;2;nein
2019_03_18 10:23;39;1;0;control;47;48;0;13;32;0;0;0.90000000000000002;0.10000000000000001;0.0;0.0;24;99;84;94;0.62;0.14999999999999999;0.20000000000000001;0.029999999999999999;1;3.072047824052788;33;40;23;2;nein
2019_03_18 10:23;39;1;0;control;48;87;0;10;30;63;4;0.56999999999999995;0.12;0.16;0.14999999999999999;86;2;0;0;0.42999999999999999;0.56999999999999995;0.0;0.0;0;5.643916522794825;33;40;23;2;nein
2019_03_18 10:23;39;1;0;control;49;21;1;64;28;0;0;0.080000000000000002;0.92000000000000004;0.0;0.0;50;1;88;13;0.57999999999999996;0.13;0.02;0.27000000000000002;1;11.637802849262698;33;40;23;2;nein
2019_03_18 10:23;39;1;0;control;50;104;0;55;85;93;3;0.87;0.02;0.089999999999999997;0.02;1;2;90;8;0.35999999999999999;0.070000000000000007;0.40000000000000002;0.17000000000000001;0;8.735820475706532;33;40;23;2;nein
2019_03_18 10:23;39;1;0;control;51;120;0;64;40;48;51;0.19;0.02;0.070000000000000007;0.71999999999999997;97;9;79;94;0.23000000000000001;0.54000000000000004;0.01;0.22;0;18.42240474366099;33;40;23;2;nein
2019_03_18 10:23;39;1;0;control;52;56;1;28;84;37;41;0.68000000000000005;0.28000000000000003;0.02;0.0199999999999999;6;95;0;0;0.72999999999999998;0.27000000000000002;0.0;0.0;0;5.613742327037471;33;40;23;2;nein
2019_03_18 10:23;39;1;0;control;53;123;1;26;24;51;92;0.72999999999999998;0.16;0.070000000000000007;0.040000000000000001;6;90;82;49;0.64000000000000001;0.25;0.050000000000000003;0.059999999999999998;0;3.1321874231261972;33;40;23;2;nein
2019_03_18 10:23;39;1;0;control;54;130;0;37;79;23;95;0.94999999999999996;0.029999999999999999;0.01;0.01;94;4;58;49;0.46000000000000002;0.5;0.029999999999999999;0.01;0;6.934616214801281;33;40;23;2;nein
2019_03_18 10:23;39;1;0;control;55;2;0;59;32;0;0;0.080000000000000002;0.92000000000000004;0.0;0.0;33;38;85;1;0.28999999999999998;0.050000000000000003;0.070000000000000007;0.58999999999999997;0;3.6325663605557565;33;40;23;2;nein
2019_03_18 10:23;39;1;0;control;56;46;0;5;19;0;0;0.32000000000000001;0.68000000000000005;0.0;0.0;88;38;97;66;0.60999999999999999;0.20000000000000001;0.040000000000000001;0.14999999999999999;1;4.35308052235996;33;40;23;2;nein
2019_03_18 10:23;39;1;0;control;57;141;0;93;28;60;91;0.81999999999999995;0.10000000000000001;0.01;0.070000000000000007;14;85;7;89;0.45000000000000001;0.070000000000000007;0.23999999999999999;0.23999999999999999;0;6.984683743600726;33;40;23;2;nein
2019_03_18 10:23;39;1;0;control;58;77;1;24;17;99;41;0.17999999999999999;0.13;0.10000000000000001;0.58999999999999997;12;97;0;0;0.59999999999999998;0.40000000000000002;0.0;0.0;0;8.155629586177383;33;40;23;2;nein
2019_03_18 10:23;39;1;0;control;59;32;0;19;81;0;0;0.93000000000000005;0.070000000000000007;0.0;0.0;1;65;41;68;0.45000000000000001;0.050000000000000003;0.059999999999999998;0.44;0;9.206522662960197;33;40;23;2;nein
2019_03_18 10:23;39;1;0;control;60;109;1;75;28;16;56;0.19;0.070000000000000007;0.059999999999999998;0.68000000000000005;3;50;98;44;0.5;0.02;0.34999999999999998;0.13;0;6.774604873940916;33;40;23;2;nein
2019_03_18 10:23;39;1;0;control;61;92;1;90;86;65;94;0.16;0.34000000000000002;0.28000000000000003;0.22;79;22;0;0;0.35999999999999999;0.64000000000000001;0.0;0.0;0;2.9219036097356366;33;40;23;2;nein
2019_03_18 10:23;39;1;0;control;62;49;0;21;30;0;0;0.53000000000000003;0.46999999999999997;0.0;0.0;93;99;89;25;0.44;0.02;0.11;0.42999999999999999;1;5.1935412897473725;33;40;23;2;nein
2019_03_18 10:23;39;1;0;control;63;148;1;37;63;55;10;0.72999999999999998;0.070000000000000007;0.029999999999999999;0.17000000000000001;80;14;23;70;0.46999999999999997;0.10000000000000001;0.23000000000000001;0.20000000000000001;1;24.42634485903909;33;40;23;2;nein
2019_03_18 10:23;39;1;0;control;64;91;0;74;81;86;48;0.93000000000000005;0.02;0.01;0.039999999999999897;7;64;0;0;0.13;0.87;0.0;0.0;0;8.915993597031957;33;40;23;2;nein
2019_03_18 10:23;39;1;0;control;65;29;1;44;51;0;0;0.78000000000000003;0.22;0.0;0.0;74;1;68;82;0.69999999999999996;0.28000000000000003;0.01;0.01;0;4.793199588572861;33;40;23;2;nein
2019_03_18 10:23;39;1;0;control;66;142;0;98;65;64;84;0.88;0.070000000000000007;0.01;0.040000000000000001;5;68;60;16;0.46000000000000002;0.080000000000000002;0.27000000000000002;0.19;0;3.782631676346682;33;40;23;2;nein
2019_03_18 10:23;39;1;0;control;67;69;0;54;34;64;49;0.34000000000000002;0.25;0.20999999999999999;0.20000000000000001;14;98;0;0;0.62;0.38;0.0;0.0;0;4.553015158459857;33;40;23;2;nein
2019_03_18 10:23;39;1;0;control;68;117;0;65;85;92;41;0.23000000000000001;0.17999999999999999;0.54000000000000004;0.050000000000000003;99;93;10;13;0.64000000000000001;0.16;0.01;0.19;0;10.697187139284324;33;40;23;2;nein
2019_03_18 10:23;39;1;0;control;69;58;0;37;58;76;34;0.20999999999999999;0.57999999999999996;0.19;0.020000000000000101;86;5;0;0;0.47999999999999998;0.52000000000000002;0.0;0.0;0;2.391749138610976;33;40;23;2;nein
2019_03_18 10:23;39;1;0;control;70;57;0;52;35;23;47;0.22;0.68000000000000005;0.040000000000000001;0.059999999999999998;71;7;0;0;0.28999999999999998;0.70999999999999996;0.0;0.0;0;4.042680894914156;33;40;23;2;nein
2019_03_18 10:23;39;1;0;control;71;59;0;56;47;83;90;0.31;0.12;0.54000000000000004;0.029999999999999898;10;98;0;0;0.46999999999999997;0.53000000000000003;0.0;0.0;0;3.672428397182557;33;40;23;2;nein
2019_03_18 10:23;39;1;0;control;72;112;0;70;44;98;64;0.02;0.75;0.12;0.11;33;2;63;85;0.23999999999999999;0.31;0.080000000000000002;0.37;0;7.3349030718791255;33;40;23;2;nein
2019_03_18 10:23;39;1;0;control;73;68;1;84;27;55;62;0.01;0.050000000000000003;0.40999999999999998;0.53000000000000003;9;82;0;0;0.37;0.63;0.0;0.0;0;6.824596390744773;33;40;23;2;nein
2019_03_18 10:23;39;1;0;control;74;19;1;22;53;0;0;0.13;0.87;0.0;0.0;4;93;96;65;0.46999999999999997;0.059999999999999998;0.26000000000000001;0.20999999999999999;0;4.873262348181015;33;40;23;2;nein
2019_03_18 10:23;39;1;0;control;75;42;0;70;48;0;0;0.79000000000000004;0.20999999999999999;0.0;0.0;51;8;12;67;0.19;0.26000000000000001;0.28999999999999998;0.26000000000000001;0;4.5630057644029876;33;40;23;2;nein
2019_03_18 10:23;39;2;0;timed;1;57;1;52;35;23;47;0.22;0.68000000000000005;0.040000000000000001;0.059999999999999998;71;7;0;0;0.28999999999999998;0.70999999999999996;0.0;0.0;0;3.5564443577768543;33;40;23;2;nein
2019_03_18 10:23;39;2;0;timed;2;16;1;64;53;0;0;0.65000000000000002;0.34999999999999998;0.0;0.0;29;17;81;46;0.10000000000000001;0.01;0.44;0.45000000000000001;0;3.912732137261628;33;40;23;2;nein
2019_03_18 10:23;39;2;0;timed;3;15;1;77;81;0;0;0.28000000000000003;0.71999999999999997;0.0;0.0;98;14;87;18;0.55000000000000004;0.23000000000000001;0.16;0.059999999999999901;0;2.361596752202786;33;40;23;2;nein
2019_03_18 10:23;39;2;0;timed;4;72;1;63;82;51;61;0.01;0.96999999999999997;0.01;0.01;92;12;0;0;0.89000000000000001;0.11;0.0;0.0;0;2.1315456509755677;33;40;23;2;nein
2019_03_18 10:23;39;2;0;timed;5;136;0;29;67;14;75;0.46000000000000002;0.29999999999999999;0.20999999999999999;0.0300000000000001;70;86;1;85;0.31;0.39000000000000001;0.27000000000000002;0.029999999999999898;0;1.8512105310928746;33;40;23;2;nein
2019_03_18 10:23;39;2;0;timed;6;122;0;35;58;25;31;0.81999999999999995;0.070000000000000007;0.080000000000000002;0.029999999999999999;18;64;68;89;0.63;0.17000000000000001;0.11;0.089999999999999997;1;4.132741957882899;33;40;23;2;nein
2019_03_18 10:23;39;2;0;timed;7;53;0;26;70;50;80;0.29999999999999999;0.59999999999999998;0.040000000000000001;0.059999999999999998;89;1;0;0;0.40999999999999998;0.58999999999999997;0.0;0.0;0;1.3508534030124792;33;40;23;2;nein
2019_03_18 10:23;39;2;0;timed;8;63;0;56;78;42;36;0.93000000000000005;0.040000000000000001;0.01;0.0199999999999999;2;72;0;0;0.32000000000000001;0.68000000000000005;0.0;0.0;0;1.3505063777911346;33;40;23;2;nein
2019_03_18 10:23;39;2;0;timed;9;43;0;60;83;0;0;0.23000000000000001;0.77000000000000002;0.0;0.0;72;5;70;12;0.29999999999999999;0.40999999999999998;0.12;0.17000000000000001;0;1.891412216250501;33;40;23;2;nein
2019_03_18 10:23;39;2;0;timed;10;84;0;43;10;5;45;0.78000000000000003;0.13;0.059999999999999998;0.029999999999999999;87;1;0;0;0.57999999999999996;0.41999999999999998;0.0;0.0;0;1.6710681994363767;33;40;23;2;nein
2019_03_18 10:23;39;2;0;timed;11;42;0;70;48;0;0;0.79000000000000004;0.20999999999999999;0.0;0.0;51;8;12;67;0.19;0.26000000000000001;0.28999999999999998;0.26000000000000001;0;2.1513491808182152;33;40;23;2;nein
2019_03_18 10:23;39;2;0;timed;12;74;0;66;47;52;44;0.41999999999999998;0.26000000000000001;0.17999999999999999;0.14000000000000001;17;99;0;0;0.47999999999999998;0.52000000000000002;0.0;0.0;0;1.7910933828188718;33;40;23;2;nein
2019_03_18 10:23;39;2;0;timed;13;56;0;28;84;37;41;0.68000000000000005;0.28000000000000003;0.02;0.0199999999999999;6;95;0;0;0.72999999999999998;0.27000000000000002;0.0;0.0;0;1.561142668739194;33;40;23;2;nein
2019_03_18 10:23;39;2;0;timed;14;12;0;53;68;0;0;0.31;0.68999999999999995;0.0;0.0;69;54;97;29;0.25;0.20999999999999999;0.20000000000000001;0.34000000000000002;0;1.5911815182444116;33;40;23;2;nein
2019_03_18 10:23;39;2;0;timed;15;41;1;99;40;0;0;0.89000000000000001;0.11;0.0;0.0;1;67;52;46;0.51000000000000001;0.38;0.029999999999999999;0.080000000000000002;0;1.5912007617871495;33;40;23;2;nein
2019_03_18 10:23;39;2;0;timed;16;37;1;14;98;0;0;0.93000000000000005;0.070000000000000007;0.0;0.0;41;2;87;66;0.17999999999999999;0.48999999999999999;0.32000000000000001;0.010000000000000101;1;1.4611019045014473;33;40;23;2;nein
2019_03_18 10:23;39;2;0;timed;17;143;0;88;44;56;73;0.95999999999999996;0.02;0.01;0.01;20;3;87;32;0.19;0.40000000000000002;0.28000000000000003;0.13;0;2.051349469471461;33;40;23;2;nein
2019_03_18 10:23;39;2;0;timed;18;28;1;47;30;0;0;0.97999999999999998;0.02;0.0;0.0;55;48;77;13;0.070000000000000007;0.26000000000000001;0.42999999999999999;0.23999999999999999;0;1.8111634357292132;33;40;23;2;nein
2019_03_18 10:23;39;2;0;timed;19;95;1;93;88;68;85;0.83999999999999997;0.14000000000000001;0.01;0.01;2;82;0;0;0.41999999999999998;0.57999999999999996;0.0;0.0;0;1.2709580622267822;33;40;23;2;nein
2019_03_18 10:23;39;2;0;timed;20;68;0;84;27;55;62;0.01;0.050000000000000003;0.40999999999999998;0.53000000000000003;9;82;0;0;0.37;0.63;0.0;0.0;0;1.9213497164300861;33;40;23;2;nein
2019_03_18 10:23;39;2;0;timed;21;134;1;57;48;50;55;0.02;0.62;0.17999999999999999;0.17999999999999999;80;96;15;18;0.23999999999999999;0.35999999999999999;0.33000000000000002;0.070000000000000007;0;1.8513346519430343;33;40;23;2;nein
2019_03_18 10:23;39;2;0;timed;22;129;0;12;29;81;36;0.17999999999999999;0.79000000000000004;0.01;0.02;5;19;95;92;0.47999999999999998;0.26000000000000001;0.13;0.13;0;1.821196056741428;33;40;23;2;nein
2019_03_18 10:23;39;2;0;timed;23;60;0;64;59;57;96;0.83999999999999997;0.13;0.02;0.01;83;6;0;0;0.54000000000000004;0.46000000000000002;0.0;0.0;0;1.5510167165448365;33;40;23;2;nein
2019_03_18 10:23;39;2;0;timed;24;45;1;97;87;0;0;0.71999999999999997;0.28000000000000003;0.0;0.0;96;11;14;4;0.25;0.029999999999999999;0.14000000000000001;0.57999999999999996;0;1.5911680477647678;33;40;23;2;nein
2019_03_18 10:23;39;2;0;timed;25;44;0;79;74;0;0;0.71999999999999997;0.28000000000000003;0.0;0.0;3;67;15;36;0.41999999999999998;0.53000000000000003;0.02;0.029999999999999999;0;1.5209650380102175;33;40;23;2;nein
2019_03_18 10:23;39;2;0;timed;26;110;0;47;44;23;52;0.13;0.27000000000000002;0.040000000000000001;0.56000000000000005;99;2;30;22;0.28999999999999998;0.5;0.11;0.10000000000000001;0;1.530973604594692;33;40;23;2;nein
2019_03_18 10:23;39;2;0;timed;27;55;0;74;55;47;48;0.60999999999999999;0.31;0.070000000000000007;0.01;97;6;0;0;0.42999999999999999;0.56999999999999995;0.0;0.0;0;1.7211508023438;33;40;23;2;nein
2019_03_18 10:23;39;2;0;timed;28;139;0;44;31;16;8;0.79000000000000004;0.070000000000000007;0.13;0.0099999999999999499;92;58;2;88;0.55000000000000004;0.070000000000000007;0.34000000000000002;0.039999999999999897;0;2.691947764044926;33;40;23;2;nein
2019_03_18 10:23;39;2;0;timed;29;58;0;37;58;76;34;0.20999999999999999;0.57999999999999996;0.19;0.020000000000000101;86;5;0;0;0.47999999999999998;0.52000000000000002;0.0;0.0;0;1.7111236336686488;33;40;23;2;nein
2019_03_18 10:23;39;2;0;timed;30;101;1;30;96;61;45;0.65000000000000002;0.14000000000000001;0.11;0.10000000000000001;3;98;63;89;0.75;0.19;0.040000000000000001;0.02;0;1.6912402431235023;33;40;23;2;nein
2019_03_18 10:23;39;2;0;timed;31;69;1;54;34;64;49;0.34000000000000002;0.25;0.20999999999999999;0.20000000000000001;14;98;0;0;0.62;0.38;0.0;0.0;0;1.370839105059531;33;40;23;2;nein
2019_03_18 10:23;39;2;0;timed;32;83;1;17;12;7;41;0.65000000000000002;0.19;0.089999999999999997;0.070000000000000007;6;84;0;0;0.72999999999999998;0.27000000000000002;0.0;0.0;0;1.8714021390478592;33;40;23;2;nein
2019_03_18 10:23;39;2;0;timed;33;11;0;17;36;0;0;0.14000000000000001;0.85999999999999999;0.0;0.0;19;41;34;95;0.88;0.02;0.050000000000000003;0.050000000000000003;1;1.831200453890233;33;40;23;2;nein
2019_03_18 10:23;39;2;0;timed;34;1;1;22;51;0;0;0.26000000000000001;0.73999999999999999;0.0;0.0;14;11;92;31;0.29999999999999999;0.40999999999999998;0.14999999999999999;0.14000000000000001;0;3.23210631159327;33;40;23;2;nein
2019_03_18 10:23;39;2;0;timed;35;31;0;10;59;0;0;0.23999999999999999;0.76000000000000001;0.0;0.0;1;79;53;73;0.23000000000000001;0.58999999999999997;0.050000000000000003;0.13;0;2.511668482508867;33;40;23;2;nein
2019_03_18 10:23;39;2;0;timed;36;22;1;32;55;0;0;0.39000000000000001;0.60999999999999999;0.0;0.0;93;72;59;22;0.20000000000000001;0.11;0.14000000000000001;0.55000000000000004;1;1.7311792539212547;33;40;23;2;nein
2019_03_18 10:23;39;2;0;timed;37;70;0;66;55;69;50;0.22;0.29999999999999999;0.29999999999999999;0.17999999999999999;2;90;0;0;0.34000000000000002;0.66000000000000003;0.0;0.0;0;1.521119307078152;33;40;23;2;nein
2019_03_18 10:23;39;2;0;timed;38;131;0;83;41;81;88;0.23999999999999999;0.58999999999999997;0.10000000000000001;0.070000000000000007;82;97;4;17;0.26000000000000001;0.46999999999999997;0.11;0.16;0;1.931381054539088;33;40;23;2;nein
2019_03_18 10:23;39;2;0;timed;39;148;0;37;63;55;10;0.72999999999999998;0.070000000000000007;0.029999999999999999;0.17000000000000001;80;14;23;70;0.46999999999999997;0.10000000000000001;0.23000000000000001;0.20000000000000001;1;2.091541212131233;33;40;23;2;nein
2019_03_18 10:23;39;2;0;timed;40;149;1;14;89;73;53;0.93999999999999995;0.01;0.01;0.040000000000000001;97;45;6;13;0.34000000000000002;0.01;0.40999999999999998;0.23999999999999999;0;1.8613958175437801;33;40;23;2;nein
2019_03_18 10:23;39;2;0;timed;41;107;1;52;48;13;63;0.68000000000000005;0.19;0.050000000000000003;0.079999999999999905;54;91;33;3;0.19;0.17999999999999999;0.33000000000000002;0.29999999999999999;0;2.2916538510016835;33;40;23;2;nein
2019_03_18 10:23;39;2;0;timed;42;127;0;89;26;62;79;0.02;0.28999999999999998;0.53000000000000003;0.16;96;6;60;13;0.53000000000000003;0.25;0.17000000000000001;0.050000000000000003;0;1.9314256354136887;33;40;23;2;nein
2019_03_18 10:23;39;2;0;timed;43;96;0;51;54;39;7;0.17000000000000001;0.26000000000000001;0.10000000000000001;0.46999999999999997;24;96;0;0;0.28000000000000003;0.71999999999999997;0.0;0.0;1;2.2314571627512123;33;40;23;2;nein
2019_03_18 10:23;39;2;0;timed;44;46;1;5;19;0;0;0.32000000000000001;0.68000000000000005;0.0;0.0;88;38;97;66;0.60999999999999999;0.20000000000000001;0.040000000000000001;0.14999999999999999;1;2.081330909074495;33;40;23;2;nein
2019_03_18 10:23;39;2;0;timed;45;90;1;27;44;50;72;0.68000000000000005;0.28999999999999998;0.02;0.0099999999999999707;6;96;0;0;0.46999999999999997;0.53000000000000003;0.0;0.0;0;1.5711711203166487;33;40;23;2;nein
2019_03_18 10:23;39;2;0;timed;46;10;1;45;62;0;0;0.059999999999999998;0.93999999999999995;0.0;0.0;17;99;28;67;0.58999999999999997;0.34000000000000002;0.01;0.059999999999999998;0;1.791270423412243;33;40;23;2;nein
2019_03_18 10:23;39;2;0;timed;47;73;1;65;68;70;47;0.25;0.23000000000000001;0.20999999999999999;0.31;27;95;0;0;0.45000000000000001;0.55000000000000004;0.0;0.0;0;1.7212932045595153;33;40;23;2;nein
2019_03_18 10:23;39;2;0;timed;48;87;0;10;30;63;4;0.56999999999999995;0.12;0.16;0.14999999999999999;86;2;0;0;0.42999999999999999;0.56999999999999995;0.0;0.0;0;1.3109743679224266;33;40;23;2;nein
2019_03_18 10:23;39;2;0;timed;49;30;0;33;30;0;0;0.71999999999999997;0.28000000000000003;0.0;0.0;9;88;1;14;0.55000000000000004;0.39000000000000001;0.01;0.049999999999999899;0;1.8012167692086223;33;40;23;2;nein
2019_03_18 10:23;39;2;0;timed;50;23;0;54;40;0;0;0.93000000000000005;0.070000000000000007;0.0;0.0;36;23;71;86;0.02;0.41999999999999998;0.19;0.37;1;2.081645220273458;33;40;23;2;nein
2019_03_18 10:23;39;2;0;timed;51;52;0;71;51;10;54;0.22;0.12;0.19;0.46999999999999997;91;1;0;0;0.29999999999999999;0.69999999999999996;0.0;0.0;0;1.6711134217621293;33;40;23;2;nein
2019_03_18 10:23;39;2;0;timed;52;50;0;15;20;0;0;0.82999999999999996;0.17000000000000001;0.0;0.0;97;18;88;87;0.56999999999999995;0.39000000000000001;0.01;0.029999999999999999;1;1.5910365502231798;33;40;23;2;nein
2019_03_18 10:23;39;2;0;timed;53;71;1;68;55;36;51;0.20000000000000001;0.75;0.02;0.029999999999999999;38;81;0;0;0.52000000000000002;0.47999999999999998;0.0;0.0;0;1.9513096674108965;33;40;23;2;nein
2019_03_18 10:23;39;2;0;timed;54;105;0;49;74;63;58;0.84999999999999998;0.080000000000000002;0.02;0.050000000000000003;97;5;86;8;0.25;0.52000000000000002;0.070000000000000007;0.16;0;1.7010916541075858;33;40;23;2;nein
2019_03_18 10:23;39;2;0;timed;55;78;1;74;36;34;3;0.14999999999999999;0.64000000000000001;0.13;0.080000000000000002;1;83;0;0;0.41999999999999998;0.57999999999999996;0.0;0.0;0;1.9512881787877632;33;40;23;2;nein
2019_03_18 10:23;39;2;0;timed;56;145;1;91;89;90;74;0.57999999999999996;0.29999999999999999;0.11;0.010000000000000101;2;75;84;39;0.32000000000000001;0.27000000000000002;0.39000000000000001;0.0199999999999999;0;1.8511893631957719;33;40;23;2;nein
2019_03_18 10:23;39;2;0;timed;57;94;0;84;86;93;39;0.78000000000000003;0.20000000000000001;0.01;0.0099999999999999603;9;83;0;0;0.46999999999999997;0.53000000000000003;0.0;0.0;0;1.5510067740478917;33;40;23;2;nein
2019_03_18 10:23;39;2;0;timed;58;29;0;44;51;0;0;0.78000000000000003;0.22;0.0;0.0;74;1;68;82;0.69999999999999996;0.28000000000000003;0.01;0.01;0;1.7611440157870675;33;40;23;2;nein
2019_03_18 10:23;39;2;0;timed;59;8;0;50;36;0;0;0.080000000000000002;0.92000000000000004;0.0;0.0;6;19;84;29;0.54000000000000004;0.070000000000000007;0.17000000000000001;0.22;0;2.441619100371099;33;40;23;2;nein
2019_03_18 10:23;39;2;0;timed;60;25;1;50;53;0;0;0.82999999999999996;0.17000000000000001;0.0;0.0;83;16;97;4;0.45000000000000001;0.29999999999999999;0.11;0.14000000000000001;0;2.3917273292627215;33;40;23;2;nein
2019_03_18 10:23;39;2;0;timed;61;20;0;44;40;0;0;0.91000000000000003;0.089999999999999997;0.0;0.0;29;5;80;99;0.25;0.40000000000000002;0.26000000000000001;0.089999999999999997;0;1.9514283359239926;33;40;23;2;nein
2019_03_18 10:23;39;2;0;timed;62;86;1;56;30;57;88;0.20000000000000001;0.35999999999999999;0.080000000000000002;0.35999999999999999;98;2;0;0;0.77000000000000002;0.23000000000000001;0.0;0.0;0;1.5910131372456817;33;40;23;2;nein
2019_03_18 10:23;39;2;0;timed;63;76;1;39;62;9;28;0.01;0.51000000000000001;0.26000000000000001;0.22;77;7;0;0;0.57999999999999996;0.41999999999999998;0.0;0.0;0;1.9612993111768446;33;40;23;2;nein
2019_03_18 10:23;39;2;0;timed;64;81;0;67;38;52;65;0.27000000000000002;0.35999999999999999;0.01;0.35999999999999999;2;77;0;0;0.14000000000000001;0.85999999999999999;0.0;0.0;0;1.4709613336290204;33;40;23;2;nein
2019_03_18 10:23;39;2;0;timed;65;33;0;27;70;0;0;0.88;0.12;0.0;0.0;93;3;77;16;0.080000000000000002;0.40000000000000002;0.5;0.02;0;2.031330732675997;33;40;23;2;nein
2019_03_18 10:23;39;2;0;timed;66;128;0;70;49;27;54;0.27000000000000002;0.53000000000000003;0.02;0.17999999999999999;72;97;6;20;0.29999999999999999;0.39000000000000001;0.22;0.0899999999999999;0;1.65134517174738;33;40;23;2;nein
2019_03_18 10:23;39;2;0;timed;67;102;1;40;56;53;17;0.28000000000000003;0.26000000000000001;0.14999999999999999;0.31;1;76;29;62;0.68000000000000005;0.23000000000000001;0.050000000000000003;0.039999999999999897;0;1.581016758239457;33;40;23;2;nein
2019_03_18 10:23;39;2;0;timed;68;54;0;44;79;78;52;0.79000000000000004;0.19;0.01;0.0099999999999999603;96;1;0;0;0.28000000000000003;0.71999999999999997;0.0;0.0;0;1.5911629161537348;33;40;23;2;nein
2019_03_18 10:23;39;2;0;timed;69;113;0;85;65;39;64;0.44;0.34000000000000002;0.13;0.089999999999999997;87;2;4;35;0.67000000000000004;0.17000000000000001;0.11;0.049999999999999899;0;1.9312598202204754;33;40;23;2;nein
2019_03_18 10:23;39;2;0;timed;70;32;0;19;81;0;0;0.93000000000000005;0.070000000000000007;0.0;0.0;1;65;41;68;0.45000000000000001;0.050000000000000003;0.059999999999999998;0.44;0;2.1915643364554853;33;40;23;2;nein
2019_03_18 10:23;39;2;0;timed;71;26;0;76;41;0;0;0.57999999999999996;0.41999999999999998;0.0;0.0;61;79;84;2;0.13;0.029999999999999999;0.67000000000000004;0.17000000000000001;0;1.6310525351927936;33;40;23;2;nein
2019_03_18 10:23;39;2;0;timed;72;39;0;14;33;0;0;0.78000000000000003;0.22;0.0;0.0;93;84;1;25;0.14000000000000001;0.23999999999999999;0.39000000000000001;0.23000000000000001;0;1.651096930046151;33;40;23;2;nein
2019_03_18 10:23;39;2;0;timed;73;117;0;65;85;92;41;0.23000000000000001;0.17999999999999999;0.54000000000000004;0.050000000000000003;99;93;10;13;0.64000000000000001;0.16;0.01;0.19;0;3.0120156680923174;33;40;23;2;nein
2019_03_18 10:23;39;2;0;timed;74;18;0;68;50;0;0;0.029999999999999999;0.96999999999999997;0.0;0.0;34;64;15;89;0.65000000000000002;0.029999999999999999;0.050000000000000003;0.27000000000000002;0;2.3217026430047554;33;40;23;2;nein
2019_03_18 10:23;39;2;0;timed;75;6;0;9;51;0;0;0.14999999999999999;0.84999999999999998;0.0;0.0;6;40;50;73;0.42999999999999999;0.26000000000000001;0.059999999999999998;0.25;1;1.591000949669251;33;40;23;2;nein
2019_03_18 10:23;39;3;0;control;1;17;0;81;52;0;0;0.059999999999999998;0.93999999999999995;0.0;0.0;34;3;69;41;0.01;0.22;0.75;0.02;0;4.329707315337146;33;40;23;2;nein
2019_03_18 10:23;39;3;0;control;2;114;1;57;39;79;97;0.77000000000000002;0.02;0.13;0.080000000000000002;92;36;6;1;0.54000000000000004;0.12;0.13;0.20999999999999999;0;3.2121587759047543;33;40;23;2;nein
2019_03_18 10:23;39;3;0;control;3;64;0;48;39;34;19;0.46000000000000002;0.5;0.02;0.02;13;92;0;0;0.68999999999999995;0.31;0.0;0.0;0;5.193934178744712;33;40;23;2;nein
2019_03_18 10:23;39;3;0;control;4;131;0;83;41;81;88;0.23999999999999999;0.58999999999999997;0.10000000000000001;0.070000000000000007;82;97;4;17;0.26000000000000001;0.46999999999999997;0.11;0.16;0;2.96196353412779;33;40;23;2;nein
2019_03_18 10:23;39;3;0;control;5;134;1;57;48;50;55;0.02;0.62;0.17999999999999999;0.17999999999999999;80;96;15;18;0.23999999999999999;0.35999999999999999;0.33000000000000002;0.070000000000000007;0;8.895937976778441;33;40;23;2;nein
2019_03_18 10:23;39;3;0;control;6;79;1;52;46;29;22;0.17999999999999999;0.51000000000000001;0.23999999999999999;0.070000000000000104;93;14;0;0;0.45000000000000001;0.55000000000000004;0.0;0.0;0;5.403767051783689;33;40;23;2;nein
2019_03_18 10:23;39;3;0;control;7;23;1;54;40;0;0;0.93000000000000005;0.070000000000000007;0.0;0.0;36;23;71;86;0.02;0.41999999999999998;0.19;0.37;0;8.595782328590758;33;40;23;2;nein
2019_03_18 10:23;39;3;0;control;8;143;1;88;44;56;73;0.95999999999999996;0.02;0.01;0.01;20;3;87;32;0.19;0.40000000000000002;0.28000000000000003;0.13;0;2.7217675578885974;33;40;23;2;nein
2019_03_18 10:23;39;3;0;control;9;129;0;12;29;81;36;0.17999999999999999;0.79000000000000004;0.01;0.02;5;19;95;92;0.47999999999999998;0.26000000000000001;0.13;0.13;0;6.334231151511631;33;40;23;2;nein
2019_03_18 10:23;39;3;0;control;10;15;0;77;81;0;0;0.28000000000000003;0.71999999999999997;0.0;0.0;98;14;87;18;0.55000000000000004;0.23000000000000001;0.16;0.059999999999999901;0;2.5616385106914095;33;40;23;2;nein
2019_03_18 10:23;39;3;0;control;11;122;1;35;58;25;31;0.81999999999999995;0.070000000000000007;0.080000000000000002;0.029999999999999999;18;64;68;89;0.63;0.17000000000000001;0.11;0.089999999999999997;0;19.50322409522414;33;40;23;2;nein
2019_03_18 10:23;39;3;0;control;12;89;1;26;41;13;56;0.059999999999999998;0.40999999999999998;0.050000000000000003;0.47999999999999998;5;97;0;0;0.37;0.63;0.0;0.0;0;2.911916852500326;33;40;23;2;nein
2019_03_18 10:23;39;3;0;control;13;66;0;89;23;27;15;0.070000000000000007;0.54000000000000004;0.17000000000000001;0.22;9;73;0;0;0.72999999999999998;0.27000000000000002;0.0;0.0;0;3.2321383841645;33;40;23;2;nein
2019_03_18 10:23;39;3;0;control;14;16;1;64;53;0;0;0.65000000000000002;0.34999999999999998;0.0;0.0;29;17;81;46;0.10000000000000001;0.01;0.44;0.45000000000000001;0;4.4731159689654305;33;40;23;2;nein
2019_03_18 10:23;39;3;0;control;15;90;1;27;44;50;72;0.68000000000000005;0.28999999999999998;0.02;0.0099999999999999707;6;96;0;0;0.46999999999999997;0.53000000000000003;0.0;0.0;0;2.041461175029326;33;40;23;2;nein
2019_03_18 10:23;39;3;0;control;16;137;1;71;22;28;17;0.25;0.46000000000000002;0.050000000000000003;0.23999999999999999;3;98;92;69;0.42999999999999999;0.23999999999999999;0.20000000000000001;0.13;0;3.0521426241584777;33;40;23;2;nein
2019_03_18 10:23;39;3;0;control;17;97;1;17;33;32;74;0.94999999999999996;0.01;0.029999999999999999;0.01;76;23;0;0;0.33000000000000002;0.67000000000000004;0.0;0.0;1;4.553033439824503;33;40;23;2;nein
2019_03_18 10:23;39;3;0;control;18;100;1;27;14;59;52;0.02;0.95999999999999996;0.01;0.01;17;98;0;0;0.48999999999999999;0.51000000000000001;0.0;0.0;1;5.313691235432088;33;40;23;2;nein
2019_03_18 10:23;39;3;0;control;19;144;0;99;93;90;71;0.65000000000000002;0.32000000000000001;0.01;0.02;97;14;48;73;0.23000000000000001;0.46000000000000002;0.13;0.17999999999999999;0;2.1314388493137812;33;40;23;2;nein
2019_03_18 10:23;39;3;0;control;20;128;0;70;49;27;54;0.27000000000000002;0.53000000000000003;0.02;0.17999999999999999;72;97;6;20;0.29999999999999999;0.39000000000000001;0.22;0.0899999999999999;0;12.128150769308377;33;40;23;2;nein
2019_03_18 10:23;39;3;0;control;21;115;1;50;28;61;79;0.83999999999999997;0.040000000000000001;0.059999999999999998;0.059999999999999998;1;26;97;55;0.45000000000000001;0.080000000000000002;0.40999999999999998;0.060000000000000102;0;1.8110098081133401;33;40;23;2;nein
2019_03_18 10:23;39;3;0;control;22;103;1;38;49;89;50;0.89000000000000001;0.070000000000000007;0.01;0.029999999999999999;6;64;99;27;0.70999999999999996;0.17999999999999999;0.059999999999999998;0.050000000000000003;0;2.0913176663098056;33;40;23;2;nein
2019_03_18 10:23;39;3;0;control;23;51;1;52;23;43;16;0.60999999999999999;0.20999999999999999;0.01;0.17000000000000001;92;7;0;0;0.14999999999999999;0.84999999999999998;0.0;0.0;0;2.2715177285945174;33;40;23;2;nein
2019_03_18 10:23;39;3;0;control;24;145;1;91;89;90;74;0.57999999999999996;0.29999999999999999;0.11;0.010000000000000101;2;75;84;39;0.32000000000000001;0.27000000000000002;0.39000000000000001;0.0199999999999999;0;2.3315280752067338;33;40;23;2;nein
2019_03_18 10:23;39;3;0;control;25;30;0;33;30;0;0;0.71999999999999997;0.28000000000000003;0.0;0.0;9;88;1;14;0.55000000000000004;0.39000000000000001;0.01;0.049999999999999899;0;3.552471207650342;33;40;23;2;nein
2019_03_18 10:23;39;3;0;control;26;43;1;60;83;0;0;0.23000000000000001;0.77000000000000002;0.0;0.0;72;5;70;12;0.29999999999999999;0.40999999999999998;0.12;0.17000000000000001;0;2.2314542762205747;33;40;23;2;nein
2019_03_18 10:23;39;3;0;control;27;9;0;61;69;0;0;0.93999999999999995;0.060000000000000102;0.0;0.0;18;93;72;16;0.40999999999999998;0.34999999999999998;0.089999999999999997;0.14999999999999999;0;7.234961411885706;33;40;23;2;nein
2019_03_18 10:23;39;3;0;control;28;3;0;53;40;0;0;0.31;0.68999999999999995;0.0;0.0;96;24;7;88;0.11;0.27000000000000002;0.58999999999999997;0.029999999999999999;0;3.6025368120954226;33;40;23;2;nein
2019_03_18 10:23;39;3;0;control;29;36;1;70;17;0;0;0.33000000000000002;0.67000000000000004;0.0;0.0;84;1;12;88;0.22;0.27000000000000002;0.14000000000000001;0.37;0;6.474480656871492;33;40;23;2;nein
2019_03_18 10:23;39;3;0;control;30;35;0;33;37;0;0;0.88;0.12;0.0;0.0;63;4;79;98;0.16;0.46000000000000002;0.17000000000000001;0.20999999999999999;0;2.631639463245847;33;40;23;2;nein
2019_03_18 10:23;39;3;0;control;31;85;0;31;22;82;50;0.11;0.69999999999999996;0.01;0.17999999999999999;3;99;0;0;0.62;0.38;0.0;0.0;0;1.9112494222927126;33;40;23;2;nein
2019_03_18 10:23;39;3;0;control;32;62;1;12;45;16;50;0.20999999999999999;0.76000000000000001;0.02;0.01;92;15;0;0;0.20999999999999999;0.79000000000000004;0.0;0.0;0;8.435653602118691;33;40;23;2;nein
2019_03_18 10:23;39;3;0;control;33;38;1;40;70;0;0;0.53000000000000003;0.46999999999999997;0.0;0.0;97;90;6;96;0.56999999999999995;0.070000000000000007;0.27000000000000002;0.089999999999999997;0;7.905445569799667;33;40;23;2;nein
2019_03_18 10:23;39;3;0;control;34;37;1;14;98;0;0;0.93000000000000005;0.070000000000000007;0.0;0.0;41;2;87;66;0.17999999999999999;0.48999999999999999;0.32000000000000001;0.010000000000000101;0;4.072829111888495;33;40;23;2;nein
2019_03_18 10:23;39;3;0;control;35;10;0;45;62;0;0;0.059999999999999998;0.93999999999999995;0.0;0.0;17;99;28;67;0.58999999999999997;0.34000000000000002;0.01;0.059999999999999998;0;2.9921056573130045;33;40;23;2;nein
2019_03_18 10:23;39;3;0;control;36;6;1;9;51;0;0;0.14999999999999999;0.84999999999999998;0.0;0.0;6;40;50;73;0.42999999999999999;0.26000000000000001;0.059999999999999998;0.25;0;8.795896250363512;33;40;23;2;nein
2019_03_18 10:23;39;3;0;control;37;132;1;27;70;21;19;0.64000000000000001;0.23000000000000001;0.029999999999999999;0.10000000000000001;11;85;55;6;0.39000000000000001;0.46999999999999997;0.029999999999999999;0.11;0;5.383603988416326;33;40;23;2;nein
2019_03_18 10:23;39;3;0;control;38;18;0;68;50;0;0;0.029999999999999999;0.96999999999999997;0.0;0.0;34;64;15;89;0.65000000000000002;0.029999999999999999;0.050000000000000003;0.27000000000000002;0;7.47518593271343;33;40;23;2;nein
2019_03_18 10:23;39;3;0;control;39;119;1;60;58;11;18;0.25;0.72999999999999998;0.01;0.01;96;23;42;85;0.44;0.48999999999999999;0.059999999999999998;0.010000000000000101;0;11.647951893709433;33;40;23;2;nein
2019_03_18 10:23;39;3;0;control;40;53;0;26;70;50;80;0.29999999999999999;0.59999999999999998;0.040000000000000001;0.059999999999999998;89;1;0;0;0.40999999999999998;0.58999999999999997;0.0;0.0;0;2.7918794815395813;33;40;23;2;nein
2019_03_18 10:23;39;3;0;control;41;67;0;44;42;8;89;0.88;0.070000000000000007;0.029999999999999999;0.02;10;63;0;0;0.39000000000000001;0.60999999999999999;0.0;0.0;0;4.87322001238681;33;40;23;2;nein
2019_03_18 10:23;39;3;0;control;42;82;0;78;66;30;27;0.28999999999999998;0.58999999999999997;0.080000000000000002;0.040000000000000001;90;6;0;0;0.82999999999999996;0.17000000000000001;0.0;0.0;0;3.9626383410268318;33;40;23;2;nein
2019_03_18 10:23;39;3;0;control;43;41;0;99;40;0;0;0.89000000000000001;0.11;0.0;0.0;1;67;52;46;0.51000000000000001;0.38;0.029999999999999999;0.080000000000000002;0;4.7231373774066014;33;40;23;2;nein
2019_03_18 10:23;39;3;0;control;44;50;0;15;20;0;0;0.82999999999999996;0.17000000000000001;0.0;0.0;97;18;88;87;0.56999999999999995;0.39000000000000001;0.01;0.029999999999999999;1;6.274293930362546;33;40;23;2;nein
2019_03_18 10:23;39;3;0;control;45;8;1;50;36;0;0;0.080000000000000002;0.92000000000000004;0.0;0.0;6;19;84;29;0.54000000000000004;0.070000000000000007;0.17000000000000001;0.22;0;11.877960659142445;33;40;23;2;nein
2019_03_18 10:23;39;3;0;control;46;60;0;64;59;57;96;0.83999999999999997;0.13;0.02;0.01;83;6;0;0;0.54000000000000004;0.46000000000000002;0.0;0.0;0;3.842583009426562;33;40;23;2;nein
2019_03_18 10:23;39;3;0;control;47;96;1;51;54;39;7;0.17000000000000001;0.26000000000000001;0.10000000000000001;0.46999999999999997;24;96;0;0;0.28000000000000003;0.71999999999999997;0.0;0.0;1;4.232814153240724;33;40;23;2;nein
2019_03_18 10:23;39;3;0;control;48;94;0;84;86;93;39;0.78000000000000003;0.20000000000000001;0.01;0.0099999999999999603;9;83;0;0;0.46999999999999997;0.53000000000000003;0.0;0.0;0;3.192141963463655;33;40;23;2;nein
2019_03_18 10:23;39;3;0;control;49;83;1;17;12;7;41;0.65000000000000002;0.19;0.089999999999999997;0.070000000000000007;6;84;0;0;0.72999999999999998;0.27000000000000002;0.0;0.0;0;3.1920903266236564;33;40;23;2;nein
2019_03_18 10:23;39;3;0;control;50;140;0;36;32;26;27;0.39000000000000001;0.14999999999999999;0.19;0.27000000000000002;44;3;99;25;0.29999999999999999;0.34000000000000002;0.34000000000000002;0.0199999999999999;0;3.08205125902532;33;40;23;2;nein
2019_03_18 10:23;39;3;0;control;51;146;0;25;5;64;35;0.94999999999999996;0.02;0.01;0.02;47;97;12;79;0.20999999999999999;0.029999999999999999;0.02;0.73999999999999999;1;11.09744641394991;33;40;23;2;nein
2019_03_18 10:23;39;3;0;control;52;20;0;44;40;0;0;0.91000000000000003;0.089999999999999997;0.0;0.0;29;5;80;99;0.25;0.40000000000000002;0.26000000000000001;0.089999999999999997;0;7.2748628977760745;33;40;23;2;nein
2019_03_18 10:23;39;3;0;control;53;52;1;71;51;10;54;0.22;0.12;0.19;0.46999999999999997;91;1;0;0;0.29999999999999999;0.69999999999999996;0.0;0.0;0;4.472963624251861;33;40;23;2;nein
2019_03_18 10:23;39;3;0;control;54;12;0;53;68;0;0;0.31;0.68999999999999995;0.0;0.0;69;54;97;29;0.25;0.20999999999999999;0.20000000000000001;0.34000000000000002;0;15.200211422389657;33;40;23;2;nein
2019_03_18 10:23;39;3;0;control;55;126;1;16;55;51;42;0.68999999999999995;0.23999999999999999;0.01;0.060000000000000102;66;4;1;5;0.46999999999999997;0.38;0.089999999999999997;0.059999999999999998;0;5.303664066757847;33;40;23;2;nein
2019_03_18 10:23;39;3;0;control;56;65;1;75;64;59;52;0.59999999999999998;0.22;0.14000000000000001;0.040000000000000001;1;99;0;0;0.35999999999999999;0.64000000000000001;0.0;0.0;0;4.362994154133048;33;40;23;2;nein
2019_03_18 10:23;39;3;0;control;57;70;0;66;55;69;50;0.22;0.29999999999999999;0.29999999999999999;0.17999999999999999;2;90;0;0;0.34000000000000002;0.66000000000000003;0.0;0.0;0;2.031322393807386;33;40;23;2;nein
2019_03_18 10:23;39;3;0;control;58;108;0;48;72;39;70;0.14000000000000001;0.66000000000000003;0.02;0.17999999999999999;81;44;98;8;0.59999999999999998;0.029999999999999999;0.050000000000000003;0.32000000000000001;0;4.522976629679761;33;40;23;2;nein
2019_03_18 10:23;39;3;0;control;59;80;1;47;39;45;10;0.13;0.76000000000000001;0.059999999999999998;0.050000000000000003;2;87;0;0;0.48999999999999999;0.51000000000000001;0.0;0.0;0;1.9514081302040722;33;40;23;2;nein
2019_03_18 10:23;39;3;0;control;60;111;1;51;36;48;27;0.93000000000000005;0.01;0.01;0.049999999999999899;31;78;30;53;0.55000000000000004;0.16;0.029999999999999999;0.26000000000000001;0;12.298262404307934;33;40;23;2;nein
2019_03_18 10:23;39;3;0;control;61;116;0;53;65;43;99;0.56999999999999995;0.37;0.050000000000000003;0.010000000000000101;57;72;11;87;0.67000000000000004;0.13;0.14999999999999999;0.050000000000000003;0;8.615789519260943;33;40;23;2;nein
2019_03_18 10:23;39;3;0;control;62;5;0;70;5;0;0;0.98999999999999999;0.01;0.0;0.0;92;87;47;1;0.44;0.02;0.16;0.38;0;5.353586306808211;33;40;23;2;nein
2019_03_18 10:23;39;3;0;control;63;102;0;40;56;53;17;0.28000000000000003;0.26000000000000001;0.14999999999999999;0.31;1;76;29;62;0.68000000000000005;0.23000000000000001;0.050000000000000003;0.039999999999999897;0;3.4122682075185367;33;40;23;2;nein
2019_03_18 10:23;39;3;0;control;64;133;1;59;88;60;36;0.67000000000000004;0.070000000000000007;0.12;0.14000000000000001;7;91;66;61;0.25;0.68999999999999995;0.01;0.0500000000000001;0;6.6243666869895605;33;40;23;2;nein
2019_03_18 10:23;39;3;0;control;65;61;0;43;18;39;70;0.75;0.089999999999999997;0.089999999999999997;0.070000000000000007;16;66;0;0;0.64000000000000001;0.35999999999999999;0.0;0.0;0;9.956802736687678;33;40;23;2;nein
2019_03_18 10:23;39;3;0;control;66;127;1;89;26;62;79;0.02;0.28999999999999998;0.53000000000000003;0.16;96;6;60;13;0.53000000000000003;0.25;0.17000000000000001;0.050000000000000003;0;3.1322717739885775;33;40;23;2;nein
2019_03_18 10:23;39;3;0;control;67;76;1;39;62;9;28;0.01;0.51000000000000001;0.26000000000000001;0.22;77;7;0;0;0.57999999999999996;0.41999999999999998;0.0;0.0;0;4.192804262059326;33;40;23;2;nein
2019_03_18 10:23;39;3;0;control;68;11;0;17;36;0;0;0.14000000000000001;0.85999999999999999;0.0;0.0;19;41;34;95;0.88;0.02;0.050000000000000003;0.050000000000000003;0;12.768694219785175;33;40;23;2;nein
2019_03_18 10:23;39;3;0;control;69;98;0;27;10;31;79;0.23000000000000001;0.67000000000000004;0.070000000000000007;0.029999999999999999;25;99;0;0;0.38;0.62;0.0;0.0;1;6.5545212864044515;33;40;23;2;nein
2019_03_18 10:23;39;3;0;control;70;121;0;42;51;47;70;0.41999999999999998;0.17000000000000001;0.23999999999999999;0.17000000000000001;21;76;48;9;0.14999999999999999;0.34000000000000002;0.40999999999999998;0.10000000000000001;0;13.729172793864564;33;40;23;2;nein
2019_03_18 10:23;39;3;0;control;71;7;1;49;29;0;0;0.95999999999999996;0.040000000000000001;0.0;0.0;23;99;64;25;0.68999999999999995;0.12;0.059999999999999998;0.13;0;8.795894326009147;33;40;23;2;nein
2019_03_18 10:23;39;3;0;control;72;14;1;36;40;0;0;0.54000000000000004;0.46000000000000002;0.0;0.0;99;70;1;11;0.16;0.089999999999999997;0.080000000000000002;0.67000000000000004;0;1.510941076592644;33;40;23;2;nein
2019_03_18 10:23;39;3;0;control;73;1;0;22;51;0;0;0.26000000000000001;0.73999999999999999;0.0;0.0;14;11;92;31;0.29999999999999999;0.40999999999999998;0.14999999999999999;0.14000000000000001;0;8.605899621190474;33;40;23;2;nein
2019_03_18 10:23;39;3;0;control;74;33;0;27;70;0;0;0.88;0.12;0.0;0.0;93;3;77;16;0.080000000000000002;0.40000000000000002;0.5;0.02;0;4.072673239191317;33;40;23;2;nein
2019_03_18 10:23;39;3;0;control;75;39;0;14;33;0;0;0.78000000000000003;0.22;0.0;0.0;93;84;1;25;0.14000000000000001;0.23999999999999999;0.39000000000000001;0.23000000000000001;0;2.4316182312040837;33;40;23;2;nein
2019_03_18 10:23;39;4;0;timed;1;103;1;38;49;89;50;0.89000000000000001;0.070000000000000007;0.01;0.029999999999999999;6;64;99;27;0.70999999999999996;0.17999999999999999;0.059999999999999998;0.050000000000000003;0;2.016140200755217;33;40;23;2;nein
2019_03_18 10:23;39;4;0;timed;2;82;0;78;66;30;27;0.28999999999999998;0.58999999999999997;0.080000000000000002;0.040000000000000001;90;6;0;0;0.82999999999999996;0.17000000000000001;0.0;0.0;0;1.681261504030772;33;40;23;2;nein
2019_03_18 10:23;39;4;0;timed;3;38;0;40;70;0;0;0.53000000000000003;0.46999999999999997;0.0;0.0;97;90;6;96;0.56999999999999995;0.070000000000000007;0.27000000000000002;0.089999999999999997;0;1.7911588108645446;33;40;23;2;nein
2019_03_18 10:23;39;4;0;timed;4;135;0;48;60;41;51;0.14000000000000001;0.40000000000000002;0.089999999999999997;0.37;94;1;85;65;0.64000000000000001;0.29999999999999999;0.01;0.050000000000000003;0;1.4510789052601467;33;40;23;2;nein
2019_03_18 10:23;39;4;0;timed;5;93;1;87;81;73;98;0.80000000000000004;0.040000000000000001;0.14999999999999999;0.0099999999999999499;5;71;0;0;0.51000000000000001;0.48999999999999999;0.0;0.0;0;1.7612841729232969;33;40;23;2;nein
2019_03_18 10:23;39;4;0;timed;6;17;0;81;52;0;0;0.059999999999999998;0.93999999999999995;0.0;0.0;34;3;69;41;0.01;0.22;0.75;0.02;0;1.4310810156357547;33;40;23;2;nein
2019_03_18 10:23;39;4;0;timed;7;116;0;53;65;43;99;0.56999999999999995;0.37;0.050000000000000003;0.010000000000000101;57;72;11;87;0.67000000000000004;0.13;0.14999999999999999;0.050000000000000003;0;2.301664983390765;33;40;23;2;nein
2019_03_18 10:23;39;4;0;timed;8;85;0;31;22;82;50;0.11;0.69999999999999996;0.01;0.17999999999999999;3;99;0;0;0.62;0.38;0.0;0.0;0;1.7110784113428963;33;40;23;2;nein
2019_03_18 10:23;39;4;0;timed;9;80;0;47;39;45;10;0.13;0.76000000000000001;0.059999999999999998;0.050000000000000003;2;87;0;0;0.48999999999999999;0.51000000000000001;0.0;0.0;0;1.8321215781370483;33;40;23;2;nein
2019_03_18 10:23;39;4;0;timed;10;120;1;64;40;48;51;0.19;0.02;0.070000000000000007;0.71999999999999997;97;9;79;94;0.23000000000000001;0.54000000000000004;0.01;0.22;0;1.4809461665099661;33;40;23;2;nein
2019_03_18 10:23;39;4;0;timed;11;36;0;70;17;0;0;0.33000000000000002;0.67000000000000004;0.0;0.0;84;1;12;88;0.22;0.27000000000000002;0.14000000000000001;0.37;0;1.6312433669918391;33;40;23;2;nein
2019_03_18 10:23;39;4;0;timed;12;141;1;93;28;60;91;0.81999999999999995;0.10000000000000001;0.01;0.070000000000000007;14;85;7;89;0.45000000000000001;0.070000000000000007;0.23999999999999999;0.23999999999999999;0;1.6510238045830192;33;40;23;2;nein
2019_03_18 10:23;39;4;0;timed;13;2;0;59;32;0;0;0.080000000000000002;0.92000000000000004;0.0;0.0;33;38;85;1;0.28999999999999998;0.050000000000000003;0.070000000000000007;0.58999999999999997;0;1.4308962776249246;33;40;23;2;nein
2019_03_18 10:23;39;4;0;timed;14;91;1;74;81;86;48;0.93000000000000005;0.02;0.01;0.039999999999999897;7;64;0;0;0.13;0.87;0.0;0.0;0;1.2711139349230507;33;40;23;2;nein
2019_03_18 10:23;39;4;0;timed;15;132;0;27;70;21;19;0.64000000000000001;0.23000000000000001;0.029999999999999999;0.10000000000000001;11;85;55;6;0.39000000000000001;0.46999999999999997;0.029999999999999999;0.11;0;1.6510549149770668;33;40;23;2;nein
2019_03_18 10:23;39;4;0;timed;16;3;0;53;40;0;0;0.31;0.68999999999999995;0.0;0.0;96;24;7;88;0.11;0.27000000000000002;0.58999999999999997;0.029999999999999999;0;1.3513104371522786;33;40;23;2;nein
2019_03_18 10:23;39;4;0;timed;17;147;0;39;43;76;28;0.14000000000000001;0.10000000000000001;0.10000000000000001;0.66000000000000003;6;31;68;85;0.27000000000000002;0.20000000000000001;0.22;0.31;0;1.6211706552649048;33;40;23;2;nein
2019_03_18 10:23;39;4;0;timed;18;5;0;70;5;0;0;0.98999999999999999;0.01;0.0;0.0;92;87;47;1;0.44;0.02;0.16;0.38;0;2.1113524393913394;33;40;23;2;nein
2019_03_18 10:23;39;4;0;timed;19;9;0;61;69;0;0;0.93999999999999995;0.060000000000000102;0.0;0.0;18;93;72;16;0.40999999999999998;0.34999999999999998;0.089999999999999997;0.14999999999999999;1;2.0314526084466706;33;40;23;2;nein
2019_03_18 10:23;39;4;0;timed;20;140;1;36;32;26;27;0.39000000000000001;0.14999999999999999;0.19;0.27000000000000002;44;3;99;25;0.29999999999999999;0.34000000000000002;0.34000000000000002;0.0199999999999999;0;1.7711381497147158;33;40;23;2;nein
2019_03_18 10:23;39;4;0;timed;21;130;1;37;79;23;95;0.94999999999999996;0.029999999999999999;0.01;0.01;94;4;58;49;0.46000000000000002;0.5;0.029999999999999999;0.01;0;1.6011814252351542;33;40;23;2;nein
2019_03_18 10:23;39;4;0;timed;22;115;1;50;28;61;79;0.83999999999999997;0.040000000000000001;0.059999999999999998;0.059999999999999998;1;26;97;55;0.45000000000000001;0.080000000000000002;0.40999999999999998;0.060000000000000102;0;1.7312357016471651;33;40;23;2;nein
2019_03_18 10:23;39;4;0;timed;23;146;0;25;5;64;35;0.94999999999999996;0.02;0.01;0.02;47;97;12;79;0.20999999999999999;0.029999999999999999;0.02;0.73999999999999999;1;1.8011346634248184;33;40;23;2;nein
2019_03_18 10:23;39;4;0;timed;24;64;1;48;39;34;19;0.46000000000000002;0.5;0.02;0.02;13;92;0;0;0.68999999999999995;0.31;0.0;0.0;0;1.7513381478538577;33;40;23;2;nein
2019_03_18 10:23;39;4;0;timed;25;126;0;16;55;51;42;0.68999999999999995;0.23999999999999999;0.01;0.060000000000000102;66;4;1;5;0.46999999999999997;0.38;0.089999999999999997;0.059999999999999998;0;1.891372446261812;33;40;23;2;nein
2019_03_18 10:23;39;4;0;timed;26;104;0;55;85;93;3;0.87;0.02;0.089999999999999997;0.02;1;2;90;8;0.35999999999999999;0.070000000000000007;0.40000000000000002;0.17000000000000001;0;2.1313843259422356;33;40;23;2;nein
2019_03_18 10:23;39;4;0;timed;27;66;0;89;23;27;15;0.070000000000000007;0.54000000000000004;0.17000000000000001;0.22;9;73;0;0;0.72999999999999998;0.27000000000000002;0.0;0.0;0;1.9912980699691616;33;40;23;2;nein
2019_03_18 10:23;39;4;0;timed;28;108;1;48;72;39;70;0.14000000000000001;0.66000000000000003;0.02;0.17999999999999999;81;44;98;8;0.59999999999999998;0.029999999999999999;0.050000000000000003;0.32000000000000001;0;1.6110472688760638;33;40;23;2;nein
2019_03_18 10:23;39;4;0;timed;29;150;1;25;21;78;38;0.84999999999999998;0.059999999999999998;0.050000000000000003;0.040000000000000001;31;43;64;95;0.059999999999999998;0.45000000000000001;0.13;0.35999999999999999;0;1.891210159050388;33;40;23;2;nein
2019_03_18 10:23;39;4;0;timed;30;99;1;8;24;15;73;0.56000000000000005;0.35999999999999999;0.070000000000000007;0.0099999999999999499;88;12;0;0;0.52000000000000002;0.47999999999999998;0.0;0.0;1;1.8712164388607562;33;40;23;2;nein
2019_03_18 10:23;39;4;0;timed;31;14;0;36;40;0;0;0.54000000000000004;0.46000000000000002;0.0;0.0;99;70;1;11;0.16;0.089999999999999997;0.080000000000000002;0.67000000000000004;0;1.8013306268358065;33;40;23;2;nein
2019_03_18 10:23;39;4;0;timed;32;79;0;52;46;29;22;0.17999999999999999;0.51000000000000001;0.23999999999999999;0.070000000000000104;93;14;0;0;0.45000000000000001;0.55000000000000004;0.0;0.0;0;1.6314572910414427;33;40;23;2;nein
2019_03_18 10:23;39;4;0;timed;33;67;1;44;42;8;89;0.88;0.070000000000000007;0.029999999999999999;0.02;10;63;0;0;0.39000000000000001;0.60999999999999999;0.0;0.0;0;1.4709000750181076;33;40;23;2;nein
2019_03_18 10:23;39;4;0;timed;34;4;0;40;43;0;0;0.58999999999999997;0.40999999999999998;0.0;0.0;2;33;88;81;0.69999999999999996;0.14000000000000001;0.13;0.029999999999999999;0;1.7111015035943637;33;40;23;2;nein
2019_03_18 10:23;39;4;0;timed;35;61;0;43;18;39;70;0.75;0.089999999999999997;0.089999999999999997;0.070000000000000007;16;66;0;0;0.64000000000000001;0.35999999999999999;0.0;0.0;0;2.2014183132450853;33;40;23;2;nein
2019_03_18 10:23;39;4;0;timed;36;114;1;57;39;79;97;0.77000000000000002;0.02;0.13;0.080000000000000002;92;36;6;1;0.54000000000000004;0.12;0.13;0.20999999999999999;0;1.4509118071637204;33;40;23;2;nein
2019_03_18 10:23;39;4;0;timed;37;92;0;90;86;65;94;0.16;0.34000000000000002;0.28000000000000003;0.22;79;22;0;0;0.35999999999999999;0.64000000000000001;0.0;0.0;0;1.871213552329209;33;40;23;2;nein
2019_03_18 10:23;39;4;0;timed;38;109;1;75;28;16;56;0.19;0.070000000000000007;0.059999999999999998;0.68000000000000005;3;50;98;44;0.5;0.02;0.34999999999999998;0.13;0;1.6110238558994752;33;40;23;2;nein
2019_03_18 10:23;39;4;0;timed;39;34;1;32;48;0;0;0.28000000000000003;0.71999999999999997;0.0;0.0;97;83;7;62;0.040000000000000001;0.54000000000000004;0.35999999999999999;0.059999999999999901;0;1.631194295957357;33;40;23;2;nein
2019_03_18 10:23;39;4;0;timed;40;121;0;42;51;47;70;0.41999999999999998;0.17000000000000001;0.23999999999999999;0.17000000000000001;21;76;48;9;0.14999999999999999;0.34000000000000002;0.40999999999999998;0.10000000000000001;0;1.5311516073652456;33;40;23;2;nein
2019_03_18 10:23;39;4;0;timed;41;125;0;37;41;10;35;0.91000000000000003;0.040000000000000001;0.029999999999999999;0.02;7;13;91;93;0.26000000000000001;0.39000000000000001;0.16;0.19;0;1.7711901072798355;33;40;23;2;nein
2019_03_18 10:23;39;4;0;timed;42;119;1;60;58;11;18;0.25;0.72999999999999998;0.01;0.01;96;23;42;85;0.44;0.48999999999999999;0.059999999999999998;0.010000000000000101;1;1.9213635076357605;33;40;23;2;nein
2019_03_18 10:23;39;4;0;timed;43;88;1;77;13;12;7;0.12;0.19;0.66000000000000003;0.029999999999999898;94;2;0;0;0.40999999999999998;0.58999999999999997;0.0;0.0;0;1.591153294381911;33;40;23;2;nein
2019_03_18 10:23;39;4;0;timed;44;100;0;27;14;59;52;0.02;0.95999999999999996;0.01;0.01;17;98;0;0;0.48999999999999999;0.51000000000000001;0.0;0.0;0;1.4811985776450456;33;40;23;2;nein
2019_03_18 10:23;39;4;0;timed;45;123;1;26;24;51;92;0.72999999999999998;0.16;0.070000000000000007;0.040000000000000001;6;90;82;49;0.64000000000000001;0.25;0.050000000000000003;0.059999999999999998;0;1.5611686475222086;33;40;23;2;nein
2019_03_18 10:23;39;4;0;timed;46;27;0;44;26;0;0;0.35999999999999999;0.64000000000000001;0.0;0.0;63;10;3;5;0.58999999999999997;0.19;0.14999999999999999;0.070000000000000007;0;1.5509269133453927;33;40;23;2;nein
2019_03_18 10:23;39;4;0;timed;47;98;0;27;10;31;79;0.23000000000000001;0.67000000000000004;0.070000000000000007;0.029999999999999999;25;99;0;0;0.38;0.62;0.0;0.0;1;1.550980474539756;33;40;23;2;nein
2019_03_18 10:23;39;4;0;timed;48;49;1;21;30;0;0;0.53000000000000003;0.46999999999999997;0.0;0.0;93;99;89;25;0.44;0.02;0.11;0.42999999999999999;1;1.3510644405314451;33;40;23;2;nein
2019_03_18 10:23;39;4;0;timed;49;89;0;26;41;13;56;0.059999999999999998;0.40999999999999998;0.050000000000000003;0.47999999999999998;5;97;0;0;0.37;0.63;0.0;0.0;0;1.5209583027708504;33;40;23;2;nein
2019_03_18 10:23;39;4;0;timed;50;77;0;24;17;99;41;0.17999999999999999;0.13;0.10000000000000001;0.58999999999999997;12;97;0;0;0.59999999999999998;0.40000000000000002;0.0;0.0;0;1.3909518144901085;33;40;23;2;nein
2019_03_18 10:23;39;4;0;timed;51;47;0;2;40;0;0;0.45000000000000001;0.55000000000000004;0.0;0.0;93;89;11;56;0.58999999999999997;0.070000000000000007;0.28000000000000003;0.059999999999999998;1;1.5510093398534082;33;40;23;2;nein
2019_03_18 10:23;39;4;0;timed;52;65;1;75;64;59;52;0.59999999999999998;0.22;0.14000000000000001;0.040000000000000001;1;99;0;0;0.35999999999999999;0.64000000000000001;0.0;0.0;0;1.1908346854588672;33;40;23;2;nein
2019_03_18 10:23;39;4;0;timed;53;138;0;8;20;43;51;0.38;0.5;0.02;0.10000000000000001;72;82;70;1;0.39000000000000001;0.050000000000000003;0.070000000000000007;0.48999999999999999;0;1.9312736114252402;33;40;23;2;nein
2019_03_18 10:23;39;4;0;timed;54;75;1;67;80;36;81;0.81999999999999995;0.080000000000000002;0.059999999999999998;0.040000000000000001;3;97;0;0;0.32000000000000001;0.68000000000000005;0.0;0.0;0;1.5710781098614461;33;40;23;2;nein
2019_03_18 10:23;39;4;0;timed;55;133;0;59;88;60;36;0.67000000000000004;0.070000000000000007;0.12;0.14000000000000001;7;91;66;61;0.25;0.68999999999999995;0.01;0.0500000000000001;0;1.611032194768086;33;40;23;2;nein
2019_03_18 10:23;39;4;0;timed;56;21;0;64;28;0;0;0.080000000000000002;0.92000000000000004;0.0;0.0;50;1;88;13;0.57999999999999996;0.13;0.02;0.27000000000000002;0;1.4310293787966657;33;40;23;2;nein
2019_03_18 10:23;39;4;0;timed;57;142;1;98;65;64;84;0.88;0.070000000000000007;0.01;0.040000000000000001;5;68;60;16;0.46000000000000002;0.080000000000000002;0.27000000000000002;0.19;0;1.530987716526397;33;40;23;2;nein
2019_03_18 10:23;39;4;0;timed;58;59;1;56;47;83;90;0.31;0.12;0.54000000000000004;0.029999999999999898;10;98;0;0;0.46999999999999997;0.53000000000000003;0.0;0.0;0;1.3509948430519216;33;40;23;2;nein
2019_03_18 10:23;39;4;0;timed;59;7;1;49;29;0;0;0.95999999999999996;0.040000000000000001;0.0;0.0;23;99;64;25;0.68999999999999995;0.12;0.059999999999999998;0.13;1;1.5611324055162186;33;40;23;2;nein
2019_03_18 10:23;39;4;0;timed;60;51;1;52;23;43;16;0.60999999999999999;0.20999999999999999;0.01;0.17000000000000001;92;7;0;0;0.14999999999999999;0.84999999999999998;0.0;0.0;0;1.5910464927201247;33;40;23;2;nein
2019_03_18 10:23;39;4;0;timed;61;124;0;37;65;15;41;0.17999999999999999;0.45000000000000001;0.02;0.34999999999999998;40;7;98;30;0.070000000000000007;0.45000000000000001;0.45000000000000001;0.029999999999999898;0;1.6411842604502453;33;40;23;2;nein
2019_03_18 10:23;39;4;0;timed;62;111;1;51;36;48;27;0.93000000000000005;0.01;0.01;0.049999999999999899;31;78;30;53;0.55000000000000004;0.16;0.029999999999999999;0.26000000000000001;1;1.4909585818022606;33;40;23;2;nein
2019_03_18 10:23;39;4;0;timed;63;13;0;52;56;0;0;0.46999999999999997;0.53000000000000003;0.0;0.0;94;71;27;2;0.089999999999999997;0.31;0.57999999999999996;0.020000000000000101;0;1.3208687561518673;33;40;23;2;nein
2019_03_18 10:23;39;4;0;timed;64;19;1;22;53;0;0;0.13;0.87;0.0;0.0;4;93;96;65;0.46999999999999997;0.059999999999999998;0.26000000000000001;0.20999999999999999;0;1.8712696793290888;33;40;23;2;nein
2019_03_18 10:23;39;4;0;timed;65;118;0;62;52;65;68;0.40999999999999998;0.44;0.10000000000000001;0.0500000000000001;79;20;14;37;0.56999999999999995;0.23999999999999999;0.14000000000000001;0.050000000000000003;0;1.9213631869106393;33;40;23;2;nein
2019_03_18 10:23;39;4;0;timed;66;112;0;70;44;98;64;0.02;0.75;0.12;0.11;33;2;63;85;0.23999999999999999;0.31;0.080000000000000002;0.37;0;1.9214068056071483;33;40;23;2;nein
2019_03_18 10:23;39;4;0;timed;67;97;1;17;33;32;74;0.94999999999999996;0.01;0.029999999999999999;0.01;76;23;0;0;0.33000000000000002;0.67000000000000004;0.0;0.0;1;1.7512310254660406;33;40;23;2;nein
2019_03_18 10:23;39;4;0;timed;68;24;1;35;27;0;0;0.070000000000000007;0.93000000000000005;0.0;0.0;62;3;81;95;0.35999999999999999;0.55000000000000004;0.01;0.080000000000000002;0;1.7211472743611012;33;40;23;2;nein
2019_03_18 10:23;39;4;0;timed;69;62;0;12;45;16;50;0.20999999999999999;0.76000000000000001;0.02;0.01;92;15;0;0;0.20999999999999999;0.79000000000000004;0.0;0.0;1;2.1916458007863184;33;40;23;2;nein
2019_03_18 10:23;39;4;0;timed;70;137;0;71;22;28;17;0.25;0.46000000000000002;0.050000000000000003;0.23999999999999999;3;98;92;69;0.42999999999999999;0.23999999999999999;0.20000000000000001;0.13;0;2.331526150852369;33;40;23;2;nein
2019_03_18 10:23;39;4;0;timed;71;144;0;99;93;90;71;0.65000000000000002;0.32000000000000001;0.01;0.02;97;14;48;73;0.23000000000000001;0.46000000000000002;0.13;0.17999999999999999;0;1.5710200585062921;33;40;23;2;nein
2019_03_18 10:23;39;4;0;timed;72;48;0;13;32;0;0;0.90000000000000002;0.10000000000000001;0.0;0.0;24;99;84;94;0.62;0.14999999999999999;0.20000000000000001;0.029999999999999999;1;1.7311689906991887;33;40;23;2;nein
2019_03_18 10:23;39;4;0;timed;73;106;1;85;69;22;61;0.10000000000000001;0.58999999999999997;0.17999999999999999;0.13;20;79;91;84;0.55000000000000004;0.14999999999999999;0.26000000000000001;0.039999999999999897;0;2.0114335509242665;33;40;23;2;nein
2019_03_18 10:23;39;4;0;timed;74;40;1;45;49;0;0;0.68999999999999995;0.31;0.0;0.0;2;92;65;73;0.23999999999999999;0.59999999999999998;0.11;0.050000000000000003;0;1.3509980503085899;33;40;23;2;nein
2019_03_18 10:23;39;4;0;timed;75;35;1;33;37;0;0;0.88;0.12;0.0;0.0;63;4;79;98;0.16;0.46000000000000002;0.17000000000000001;0.20999999999999999;0;1.3910759353402682;33;40;23;2;nein
