date;id;block;order;cond;trial;gameid;leftright;oa1;oa2;oa3;oa4;pa1;pa2;pa3;pa4;ob1;ob2;ob3;ob4;pb1;pb2;pb3;pb4;choice;rt;paytrial;payout;alter;geschlecht;comment
2019_03_18 10:22;37;0;0;practice;1;70;1;21;42;14;63;0.96999999999999997;0.01;0.01;0.01;70;2;6;76;0.23999999999999999;0.42999999999999999;0.01;0.32000000000000001;1;21.60069313707072;41;56;27;1;
2019_03_18 10:22;37;0;0;practice;2;4;0;40;59;0;0;0.19;0.81000000000000005;0.0;0.0;10;88;13;45;0.56000000000000005;0.28999999999999998;0.01;0.14000000000000001;0;14.849553463472603;41;56;27;1;
2019_03_18 10:22;37;0;0;practice;3;7;0;13;31;0;0;0.51000000000000001;0.48999999999999999;0.0;0.0;8;79;42;18;0.85999999999999999;0.089999999999999997;0.02;0.029999999999999999;0;7.4997402179219534;41;56;27;1;
2019_03_18 10:22;37;0;0;practice;4;38;0;51;89;10;60;0.57999999999999996;0.029999999999999999;0.080000000000000002;0.31;8;84;0;0;0.33000000000000002;0.67000000000000004;0.0;0.0;1;7.6997650415428325;41;56;27;1;
2019_03_18 10:22;37;0;0;practice;5;37;0;50;66;99;12;0.26000000000000001;0.71999999999999997;0.01;0.01;22;90;0;0;0.37;0.63;0.0;0.0;1;9.7663455845709;41;56;27;1;
2019_03_18 10:22;37;0;0;practice;6;18;0;47;36;0;0;0.089999999999999997;0.91000000000000003;0.0;0.0;2;44;81;9;0.20000000000000001;0.25;0.51000000000000001;0.040000000000000001;1;4.799816420664683;41;56;27;1;
2019_03_18 10:22;37;0;0;practice;7;20;1;32;11;0;0;0.40999999999999998;0.58999999999999997;0.0;0.0;1;86;42;65;0.45000000000000001;0.38;0.050000000000000003;0.12;1;3.7998587555216545;41;56;27;1;
2019_03_18 10:22;37;0;0;practice;8;65;1;35;15;77;1;0.62;0.33000000000000002;0.029999999999999999;0.02;68;3;25;96;0.38;0.28000000000000003;0.28000000000000003;0.059999999999999901;0;4.183076448413431;41;56;27;1;
2019_03_18 10:22;37;0;0;practice;9;17;0;27;61;0;0;0.68999999999999995;0.31;0.0;0.0;3;91;69;43;0.29999999999999999;0.33000000000000002;0.27000000000000002;0.099999999999999895;0;3.8332394696853953;41;56;27;1;
2019_03_18 10:22;37;0;0;practice;10;58;1;44;50;85;42;0.38;0.57999999999999996;0.02;0.02;37;88;19;12;0.20000000000000001;0.29999999999999999;0.46000000000000002;0.040000000000000001;0;5.483132445883712;41;56;27;1;
2019_03_18 10:22;37;0;0;practice;11;33;0;54;82;55;71;0.56000000000000005;0.20999999999999999;0.02;0.20999999999999999;13;99;0;0;0.5;0.5;0.0;0.0;0;5.549788999223438;41;56;27;1;
2019_03_18 10:22;37;0;0;practice;12;46;1;79;57;98;81;0.67000000000000004;0.070000000000000007;0.20999999999999999;0.050000000000000003;1;76;0;0;0.56000000000000005;0.44;0.0;0.0;1;4.599803463632725;41;56;27;1;
2019_03_18 10:22;37;0;0;practice;13;64;1;44;60;96;45;0.53000000000000003;0.10000000000000001;0.029999999999999999;0.34000000000000002;88;20;43;31;0.47999999999999998;0.38;0.050000000000000003;0.089999999999999997;1;6.333243318308632;41;56;27;1;
2019_03_18 10:22;37;0;0;practice;14;63;0;24;82;6;96;0.91000000000000003;0.070000000000000007;0.01;0.0099999999999999603;73;10;71;22;0.31;0.51000000000000001;0.050000000000000003;0.13;0;16.966154564563567;41;56;27;1;
2019_03_18 10:22;37;0;0;practice;15;34;1;57;23;66;79;0.56000000000000005;0.23000000000000001;0.13;0.079999999999999905;85;9;0;0;0.56000000000000005;0.44;0.0;0.0;1;9.266616912519112;41;56;27;1;
2019_03_18 10:22;37;0;0;practice;16;60;1;39;93;27;78;0.85999999999999999;0.02;0.11;0.01;22;5;62;95;0.059999999999999998;0.56999999999999995;0.14000000000000001;0.23000000000000001;0;4.683244504967661;41;56;27;1;
2019_03_18 10:22;37;0;0;practice;17;73;1;99;88;95;28;0.83999999999999997;0.14000000000000001;0.01;0.01;90;93;10;74;0.080000000000000002;0.46000000000000002;0.34999999999999998;0.11;0;1.083183183568508;41;56;27;1;
2019_03_18 10:22;37;0;0;practice;18;5;0;23;58;0;0;0.71999999999999997;0.28000000000000003;0.0;0.0;94;12;52;3;0.11;0.84999999999999998;0.029999999999999999;0.01;0;4.099820782438201;41;56;27;1;
2019_03_18 10:22;37;0;0;practice;19;57;0;39;68;59;91;0.73999999999999999;0.040000000000000001;0.14999999999999999;0.070000000000000007;9;22;40;84;0.29999999999999999;0.32000000000000001;0.040000000000000001;0.34000000000000002;0;22.599354457571735;41;56;27;1;
2019_03_18 10:22;37;0;0;practice;20;71;1;94;87;26;75;0.71999999999999997;0.23999999999999999;0.02;0.02;90;27;12;83;0.16;0.73999999999999999;0.02;0.080000000000000002;0;5.183172343279239;41;56;27;1;
2019_03_18 10:22;37;0;0;practice;21;68;1;39;58;40;8;0.48999999999999999;0.44;0.02;0.050000000000000003;92;83;51;2;0.57999999999999996;0.13;0.02;0.27000000000000002;1;7.916410786665438;41;56;27;1;
2019_03_18 10:22;37;0;0;practice;22;12;0;45;86;0;0;0.97999999999999998;0.02;0.0;0.0;6;23;95;81;0.14999999999999999;0.40999999999999998;0.050000000000000003;0.39000000000000001;0;2.699805772806485;41;56;27;1;
2019_03_18 10:22;37;0;0;practice;23;6;0;42;59;0;0;0.35999999999999999;0.64000000000000001;0.0;0.0;77;19;6;7;0.44;0.14999999999999999;0.17999999999999999;0.23000000000000001;0;4.533162625505156;41;56;27;1;
2019_03_18 10:22;37;0;0;practice;24;16;0;50;42;0;0;0.32000000000000001;0.68000000000000005;0.0;0.0;97;2;56;31;0.35999999999999999;0.16;0.16;0.32000000000000001;0;3.3833283408134776;41;56;27;1;
2019_03_18 10:22;37;0;0;practice;25;48;0;20;25;24;35;0.32000000000000001;0.13;0.48999999999999999;0.059999999999999901;44;76;0;0;0.29999999999999999;0.69999999999999996;0.0;0.0;1;3.2331335683984435;41;56;27;1;
2019_03_18 10:22;37;0;0;practice;26;11;0;10;44;0;0;0.48999999999999999;0.51000000000000001;0.0;0.0;88;12;54;50;0.17000000000000001;0.75;0.02;0.059999999999999998;0;6.099895830593596;41;56;27;1;
2019_03_18 10:22;37;0;0;practice;27;8;1;20;44;0;0;0.26000000000000001;0.73999999999999999;0.0;0.0;99;3;69;24;0.20999999999999999;0.60999999999999999;0.12;0.060000000000000102;0;4.499945157117054;41;56;27;1;
2019_03_18 10:22;37;0;0;practice;28;24;0;19;38;0;0;0.89000000000000001;0.11;0.0;0.0;45;76;95;57;0.29999999999999999;0.22;0.40000000000000002;0.080000000000000002;0;2.383345980337708;41;56;27;1;
2019_03_18 10:22;37;0;0;practice;29;41;1;19;54;51;8;0.76000000000000001;0.070000000000000007;0.16;0.0099999999999999794;2;77;0;0;0.54000000000000004;0.46000000000000002;0.0;0.0;1;1.9666285866765065;41;56;27;1;
2019_03_18 10:22;37;0;0;practice;30;29;0;66;40;92;49;0.46999999999999997;0.10000000000000001;0.34000000000000002;0.089999999999999997;8;94;0;0;0.44;0.56000000000000005;0.0;0.0;0;4.466486508330036;41;56;27;1;
2019_03_18 10:22;37;0;0;practice;31;30;0;54;78;85;25;0.20999999999999999;0.60999999999999999;0.089999999999999997;0.090000000000000094;87;20;0;0;0.58999999999999997;0.40999999999999998;0.0;0.0;0;2.233239726260308;41;56;27;1;
2019_03_18 10:22;37;0;0;practice;32;61;0;51;48;56;88;0.91000000000000003;0.02;0.01;0.059999999999999998;78;21;14;82;0.55000000000000004;0.29999999999999999;0.070000000000000007;0.080000000000000002;0;7.849869692026459;41;56;27;1;
2019_03_18 10:22;37;0;0;practice;33;75;1;21;86;27;62;0.88;0.040000000000000001;0.070000000000000007;0.0099999999999999794;13;3;49;87;0.28999999999999998;0.39000000000000001;0.070000000000000007;0.25;0;4.59977812686202;41;56;27;1;
2019_03_18 10:22;37;0;0;practice;34;39;1;53;65;48;75;0.92000000000000004;0.029999999999999999;0.01;0.040000000000000001;16;83;0;0;0.31;0.68999999999999995;0.0;0.0;1;20.78261660206317;41;56;27;1;
2019_03_18 10:22;37;0;0;practice;35;21;1;59;69;0;0;0.34000000000000002;0.66000000000000003;0.0;0.0;64;18;5;24;0.14999999999999999;0.040000000000000001;0.51000000000000001;0.29999999999999999;0;4.766475796327995;41;56;27;1;
2019_03_18 10:22;37;0;0;practice;36;42;0;23;45;91;22;0.72999999999999998;0.02;0.20000000000000001;0.050000000000000003;2;86;0;0;0.40999999999999998;0.58999999999999997;0.0;0.0;1;7.199707632910304;41;56;27;1;
2019_03_18 10:22;37;0;0;practice;37;13;1;15;25;0;0;0.29999999999999999;0.69999999999999996;0.0;0.0;3;43;35;73;0.44;0.40000000000000002;0.01;0.14999999999999999;1;6.199766965854451;41;56;27;1;
2019_03_18 10:22;37;0;0;practice;38;74;0;36;46;10;12;0.11;0.19;0.65000000000000002;0.049999999999999899;92;24;79;19;0.51000000000000001;0.40999999999999998;0.02;0.059999999999999998;1;11.583162016139795;41;56;27;1;
2019_03_18 10:22;37;0;0;practice;39;3;1;20;70;0;0;0.13;0.87;0.0;0.0;95;19;80;73;0.31;0.57999999999999996;0.029999999999999999;0.080000000000000002;0;4.53315075891669;41;56;27;1;
2019_03_18 10:22;37;0;0;practice;40;51;0;38;13;51;84;0.91000000000000003;0.070000000000000007;0.01;0.0099999999999999603;4;89;35;16;0.80000000000000004;0.089999999999999997;0.059999999999999998;0.050000000000000003;0;5.683165608188119;41;56;27;1;
2019_03_18 10:22;37;0;0;practice;41;44;0;69;48;22;63;0.39000000000000001;0.40999999999999998;0.19;0.01;1;94;0;0;0.22;0.78000000000000003;0.0;0.0;1;8.266394333800235;41;56;27;1;
2019_03_18 10:22;37;0;0;practice;42;31;0;72;59;40;92;0.59999999999999998;0.34999999999999998;0.02;0.029999999999999999;97;29;0;0;0.38;0.62;0.0;0.0;0;6.649767254501057;41;56;27;1;
2019_03_18 10:22;37;0;0;practice;43;72;1;86;85;97;43;0.51000000000000001;0.14999999999999999;0.33000000000000002;0.0099999999999999499;72;29;10;90;0.01;0.11;0.65000000000000002;0.23000000000000001;0;3.6166068740262745;41;56;27;1;
2019_03_18 10:22;37;0;0;practice;44;9;1;57;44;0;0;0.14999999999999999;0.84999999999999998;0.0;0.0;38;35;64;95;0.34000000000000002;0.45000000000000001;0.089999999999999997;0.12;0;6.799762860656301;41;56;27;1;
2019_03_18 10:22;37;0;0;practice;45;62;0;65;52;74;55;0.16;0.12;0.14999999999999999;0.56999999999999995;72;86;2;68;0.12;0.53000000000000003;0.22;0.13;0;10.049828768331736;41;56;27;1;
2019_03_18 10:22;37;0;0;practice;46;52;1;17;61;57;59;0.070000000000000007;0.050000000000000003;0.33000000000000002;0.55000000000000004;12;93;94;62;0.71999999999999997;0.16;0.080000000000000002;0.040000000000000001;0;4.099867928074673;41;56;27;1;
2019_03_18 10:22;37;0;0;practice;47;49;0;14;31;42;22;0.77000000000000002;0.089999999999999997;0.02;0.12;87;28;0;0;0.68000000000000005;0.32000000000000001;0.0;0.0;1;3.933198481846375;41;56;27;1;
2019_03_18 10:22;37;0;0;practice;48;32;0;21;86;16;78;0.45000000000000001;0.41999999999999998;0.050000000000000003;0.080000000000000099;95;9;0;0;0.42999999999999999;0.56999999999999995;0.0;0.0;0;3.3664861234678938;41;56;27;1;
2019_03_18 10:22;37;0;0;practice;49;28;0;37;83;75;8;0.83999999999999997;0.070000000000000007;0.01;0.080000000000000002;94;2;0;0;0.19;0.81000000000000005;0.0;0.0;0;3.933185011664591;41;56;27;1;
2019_03_18 10:22;37;0;0;practice;50;53;1;47;24;95;38;0.57999999999999996;0.28000000000000003;0.02;0.12;8;22;93;96;0.54000000000000004;0.34000000000000002;0.10000000000000001;0.0199999999999999;0;8.316380895690145;41;56;27;1;
2019_03_18 10:22;37;0;0;practice;51;25;1;7;18;0;0;0.20999999999999999;0.79000000000000004;0.0;0.0;92;45;33;13;0.41999999999999998;0.17999999999999999;0.22;0.17999999999999999;1;6.44977738920943;41;56;27;1;
2019_03_18 10:22;37;0;0;practice;52;23;1;99;93;0;0;0.57999999999999996;0.41999999999999998;0.0;0.0;64;10;80;81;0.13;0.55000000000000004;0.02;0.29999999999999999;0;5.766444045185381;41;56;27;1;
2019_03_18 10:22;37;0;0;practice;53;50;1;17;12;21;14;0.55000000000000004;0.34000000000000002;0.059999999999999998;0.049999999999999899;13;93;0;0;0.28999999999999998;0.70999999999999996;0.0;0.0;1;4.9997601024761025;41;56;27;1;
2019_03_18 10:22;37;0;0;practice;54;36;0;56;89;86;77;0.66000000000000003;0.080000000000000002;0.14999999999999999;0.11;29;91;0;0;0.40999999999999998;0.58999999999999997;0.0;0.0;0;8.299663437885556;41;56;27;1;
2019_03_18 10:22;37;0;0;practice;55;59;1;13;27;48;51;0.56999999999999995;0.13;0.13;0.17000000000000001;8;37;97;1;0.65000000000000002;0.16;0.14999999999999999;0.040000000000000001;0;6.133105281016924;41;56;27;1;
2019_03_18 10:22;37;0;0;practice;56;56;1;47;52;64;10;0.77000000000000002;0.040000000000000001;0.11;0.080000000000000002;1;5;12;99;0.14000000000000001;0.28999999999999998;0.27000000000000002;0.29999999999999999;0;4.249767639363199;41;56;27;1;
2019_03_18 10:22;37;0;0;practice;57;35;0;84;95;4;35;0.89000000000000001;0.050000000000000003;0.01;0.050000000000000003;5;98;0;0;0.19;0.81000000000000005;0.0;0.0;1;15.06624026057716;41;56;27;1;
2019_03_18 10:22;37;0;0;practice;58;22;1;84;87;0;0;0.17000000000000001;0.82999999999999996;0.0;0.0;3;24;41;83;0.68000000000000005;0.11;0.10000000000000001;0.11;0;2.8331467820057696;41;56;27;1;
2019_03_18 10:22;37;0;0;practice;59;55;1;53;11;80;74;0.31;0.37;0.28000000000000003;0.039999999999999897;6;93;98;96;0.69999999999999996;0.22;0.050000000000000003;0.029999999999999999;0;5.216464859823645;41;56;27;1;
2019_03_18 10:22;37;0;0;practice;60;2;1;41;60;0;0;0.97999999999999998;0.02;0.0;0.0;10;14;97;6;0.54000000000000004;0.17000000000000001;0.12;0.17000000000000001;0;5.349804265429611;41;56;27;1;
2019_03_18 10:22;37;0;0;practice;61;47;1;91;99;90;78;0.93000000000000005;0.040000000000000001;0.02;0.0099999999999999499;10;87;0;0;0.23000000000000001;0.77000000000000002;0.0;0.0;0;3.8665553986884333;41;56;27;1;
2019_03_18 10:22;37;0;0;practice;62;26;0;24;46;74;59;0.29999999999999999;0.11;0.25;0.34000000000000002;91;6;0;0;0.28999999999999998;0.70999999999999996;0.0;0.0;0;5.833140688351705;41;56;27;1;
2019_03_18 10:22;37;0;0;practice;63;54;1;69;80;22;55;0.27000000000000002;0.31;0.059999999999999998;0.35999999999999999;52;2;49;90;0.059999999999999998;0.33000000000000002;0.20000000000000001;0.40999999999999998;0;8.716340741719705;41;56;27;1;
2019_03_18 10:22;37;0;0;practice;64;69;1;38;74;27;73;0.22;0.19;0.45000000000000001;0.14000000000000001;1;97;79;84;0.28000000000000003;0.45000000000000001;0.17000000000000001;0.10000000000000001;0;7.2830967178297215;41;56;27;1;
2019_03_18 10:22;37;0;0;practice;65;1;0;67;36;0;0;0.14999999999999999;0.84999999999999998;0.0;0.0;1;4;81;77;0.25;0.54000000000000004;0.14000000000000001;0.070000000000000007;0;3.6998432968848647;41;56;27;1;
2019_03_18 10:22;37;0;0;practice;66;45;0;37;40;75;23;0.54000000000000004;0.38;0.059999999999999998;0.02;1;90;0;0;0.28000000000000003;0.71999999999999997;0.0;0.0;0;2.9000294419688544;41;56;27;1;
2019_03_18 10:22;37;0;0;practice;67;10;1;34;59;0;0;0.16;0.83999999999999997;0.0;0.0;21;61;96;7;0.19;0.01;0.5;0.29999999999999999;0;5.333135236135604;41;56;27;1;
2019_03_18 10:22;37;0;0;practice;68;67;0;74;31;10;77;0.11;0.070000000000000007;0.77000000000000002;0.050000000000000003;2;23;8;97;0.56999999999999995;0.01;0.059999999999999998;0.35999999999999999;0;4.333249411962697;41;56;27;1;
2019_03_18 10:22;37;0;0;practice;69;66;0;44;18;63;36;0.47999999999999998;0.10000000000000001;0.029999999999999999;0.39000000000000001;13;93;61;53;0.52000000000000002;0.45000000000000001;0.02;0.0099999999999999707;0;7.366304276013125;41;56;27;1;
2019_03_18 10:22;37;0;0;practice;70;40;0;29;65;30;41;0.70999999999999996;0.01;0.14999999999999999;0.13;2;59;0;0;0.32000000000000001;0.68000000000000005;0.0;0.0;0;9.499699165939546;41;56;27;1;
2019_03_18 10:22;37;0;0;practice;71;14;0;92;56;0;0;0.11;0.89000000000000001;0.0;0.0;97;31;51;4;0.58999999999999997;0.22;0.080000000000000002;0.11;0;7.066434936776659;41;56;27;1;
2019_03_18 10:22;37;0;0;practice;72;27;0;68;43;98;36;0.54000000000000004;0.44;0.01;0.0099999999999999603;97;13;0;0;0.27000000000000002;0.72999999999999998;0.0;0.0;0;3.1999879409800087;41;56;27;1;
2019_03_18 10:22;37;0;0;practice;73;15;1;24;59;0;0;0.56999999999999995;0.42999999999999999;0.0;0.0;9;8;80;22;0.31;0.10000000000000001;0.55000000000000004;0.039999999999999897;0;6.499753688103738;41;56;27;1;
2019_03_18 10:22;37;0;0;practice;74;19;1;25;73;0;0;0.69999999999999996;0.29999999999999999;0.0;0.0;87;84;1;86;0.040000000000000001;0.59999999999999998;0.28000000000000003;0.080000000000000002;0;7.466382274780244;41;56;27;1;
2019_03_18 10:22;37;0;0;practice;75;43;1;11;17;21;44;0.16;0.46000000000000002;0.25;0.13;2;66;0;0;0.44;0.56000000000000005;0.0;0.0;0;2.5667332050888945;41;56;27;1;
2019_03_18 10:22;37;1;0;control;1;75;0;67;80;36;81;0.81999999999999995;0.080000000000000002;0.059999999999999998;0.040000000000000001;3;97;0;0;0.32000000000000001;0.68000000000000005;0.0;0.0;0;4.607887817760002;41;56;27;1;
2019_03_18 10:22;37;1;0;control;2;109;0;75;28;16;56;0.19;0.070000000000000007;0.059999999999999998;0.68000000000000005;3;50;98;44;0.5;0.02;0.34999999999999998;0.13;0;3.5498781589981263;41;56;27;1;
2019_03_18 10:22;37;1;0;control;3;40;0;45;49;0;0;0.68999999999999995;0.31;0.0;0.0;2;92;65;73;0.23999999999999999;0.59999999999999998;0.11;0.050000000000000003;1;3.4165304147086317;41;56;27;1;
2019_03_18 10:22;37;1;0;control;4;111;0;51;36;48;27;0.93000000000000005;0.01;0.01;0.049999999999999899;31;78;30;53;0.55000000000000004;0.16;0.029999999999999999;0.26000000000000001;0;1.0166343916830556;41;56;27;1;
2019_03_18 10:22;37;1;0;control;5;79;1;52;46;29;22;0.17999999999999999;0.51000000000000001;0.23999999999999999;0.070000000000000104;93;14;0;0;0.45000000000000001;0.55000000000000004;0.0;0.0;0;5.19985580491084;41;56;27;1;
2019_03_18 10:22;37;1;0;control;6;21;1;64;28;0;0;0.080000000000000002;0.92000000000000004;0.0;0.0;50;1;88;13;0.57999999999999996;0.13;0.02;0.27000000000000002;0;10.366280542835739;41;56;27;1;
2019_03_18 10:22;37;1;0;control;7;132;0;27;70;21;19;0.64000000000000001;0.23000000000000001;0.029999999999999999;0.10000000000000001;11;85;55;6;0.39000000000000001;0.46999999999999997;0.029999999999999999;0.11;1;14.149626138310396;41;56;27;1;
2019_03_18 10:22;37;1;0;control;8;66;0;89;23;27;15;0.070000000000000007;0.54000000000000004;0.17000000000000001;0.22;9;73;0;0;0.72999999999999998;0.27000000000000002;0.0;0.0;0;3.2332047679310563;41;56;27;1;
2019_03_18 10:22;37;1;0;control;9;89;0;26;41;13;56;0.059999999999999998;0.40999999999999998;0.050000000000000003;0.47999999999999998;5;97;0;0;0.37;0.63;0.0;0.0;0;5.899906286020723;41;56;27;1;
2019_03_18 10:22;37;1;0;control;10;8;0;50;36;0;0;0.080000000000000002;0.92000000000000004;0.0;0.0;6;19;84;29;0.54000000000000004;0.070000000000000007;0.17000000000000001;0.22;0;2.4999082744761836;41;56;27;1;
2019_03_18 10:22;37;1;0;control;11;62;1;12;45;16;50;0.20999999999999999;0.76000000000000001;0.02;0.01;92;15;0;0;0.20999999999999999;0.79000000000000004;0.0;0.0;0;6.399692687422885;41;56;27;1;
2019_03_18 10:22;37;1;0;control;12;36;0;70;17;0;0;0.33000000000000002;0.67000000000000004;0.0;0.0;84;1;12;88;0.22;0.27000000000000002;0.14000000000000001;0.37;1;11.749640314073531;41;56;27;1;
2019_03_18 10:22;37;1;0;control;13;118;0;62;52;65;68;0.40999999999999998;0.44;0.10000000000000001;0.0500000000000001;79;20;14;37;0.56999999999999995;0.23999999999999999;0.14000000000000001;0.050000000000000003;0;9.483064774256036;41;56;27;1;
2019_03_18 10:22;37;1;0;control;14;78;0;74;36;34;3;0.14999999999999999;0.64000000000000001;0.13;0.080000000000000002;1;83;0;0;0.41999999999999998;0.57999999999999996;0.0;0.0;0;3.8002323927084944;41;56;27;1;
2019_03_18 10:22;37;1;0;control;15;84;1;43;10;5;45;0.78000000000000003;0.13;0.059999999999999998;0.029999999999999999;87;1;0;0;0.57999999999999996;0.41999999999999998;0.0;0.0;0;8.733085460606617;41;56;27;1;
2019_03_18 10:22;37;1;0;control;16;123;1;26;24;51;92;0.72999999999999998;0.16;0.070000000000000007;0.040000000000000001;6;90;82;49;0.64000000000000001;0.25;0.050000000000000003;0.059999999999999998;0;9.599813405909572;41;56;27;1;
2019_03_18 10:22;37;1;0;control;17;130;1;37;79;23;95;0.94999999999999996;0.029999999999999999;0.01;0.01;94;4;58;49;0.46000000000000002;0.5;0.029999999999999999;0.01;0;4.883170547255304;41;56;27;1;
2019_03_18 10:22;37;1;0;control;18;3;0;53;40;0;0;0.31;0.68999999999999995;0.0;0.0;96;24;7;88;0.11;0.27000000000000002;0.58999999999999997;0.029999999999999999;0;3.466442249160991;41;56;27;1;
2019_03_18 10:22;37;1;0;control;19;103;1;38;49;89;50;0.89000000000000001;0.070000000000000007;0.01;0.029999999999999999;6;64;99;27;0.70999999999999996;0.17999999999999999;0.059999999999999998;0.050000000000000003;0;2.150092783895161;41;56;27;1;
2019_03_18 10:22;37;1;0;control;20;1;0;22;51;0;0;0.26000000000000001;0.73999999999999999;0.0;0.0;14;11;92;31;0.29999999999999999;0.40999999999999998;0.14999999999999999;0.14000000000000001;0;4.1332480008004495;41;56;27;1;
2019_03_18 10:22;37;1;0;control;21;131;1;83;41;81;88;0.23999999999999999;0.58999999999999997;0.10000000000000001;0.070000000000000007;82;97;4;17;0.26000000000000001;0.46999999999999997;0.11;0.16;1;9.483011214247199;41;56;27;1;
2019_03_18 10:22;37;1;0;control;22;95;0;93;88;68;85;0.83999999999999997;0.14000000000000001;0.01;0.01;2;82;0;0;0.41999999999999998;0.57999999999999996;0.0;0.0;0;2.666539875907347;41;56;27;1;
2019_03_18 10:22;37;1;0;control;23;52;1;71;51;10;54;0.22;0.12;0.19;0.46999999999999997;91;1;0;0;0.29999999999999999;0.69999999999999996;0.0;0.0;0;1.7664982466312722;41;56;27;1;
2019_03_18 10:22;37;1;0;control;24;60;0;64;59;57;96;0.83999999999999997;0.13;0.02;0.01;83;6;0;0;0.54000000000000004;0.46000000000000002;0.0;0.0;0;4.89981680552728;41;56;27;1;
2019_03_18 10:22;37;1;0;control;25;137;0;71;22;28;17;0.25;0.46000000000000002;0.050000000000000003;0.23999999999999999;3;98;92;69;0.42999999999999999;0.23999999999999999;0.20000000000000001;0.13;0;3.099881718974757;41;56;27;1;
2019_03_18 10:22;37;1;0;control;26;16;0;64;53;0;0;0.65000000000000002;0.34999999999999998;0.0;0.0;29;17;81;46;0.10000000000000001;0.01;0.44;0.45000000000000001;0;4.866471691129846;41;56;27;1;
2019_03_18 10:22;37;1;0;control;27;146;0;25;5;64;35;0.94999999999999996;0.02;0.01;0.02;47;97;12;79;0.20999999999999999;0.029999999999999999;0.02;0.73999999999999999;1;5.049822353959371;41;56;27;1;
2019_03_18 10:22;37;1;0;control;28;18;0;68;50;0;0;0.029999999999999999;0.96999999999999997;0.0;0.0;34;64;15;89;0.65000000000000002;0.029999999999999999;0.050000000000000003;0.27000000000000002;0;2.7998789607945582;41;56;27;1;
2019_03_18 10:22;37;1;0;control;29;117;0;65;85;92;41;0.23000000000000001;0.17999999999999999;0.54000000000000004;0.050000000000000003;99;93;10;13;0.64000000000000001;0.16;0.01;0.19;0;7.683210188075918;41;56;27;1;
2019_03_18 10:22;37;1;0;control;30;125;1;37;41;10;35;0.91000000000000003;0.040000000000000001;0.029999999999999999;0.02;7;13;91;93;0.26000000000000001;0.39000000000000001;0.16;0.19;0;3.4498559652697622;41;56;27;1;
2019_03_18 10:22;37;1;0;control;31;145;1;91;89;90;74;0.57999999999999996;0.29999999999999999;0.11;0.010000000000000101;2;75;84;39;0.32000000000000001;0.27000000000000002;0.39000000000000001;0.0199999999999999;0;5.983086583121349;41;56;27;1;
2019_03_18 10:22;37;1;0;control;32;104;0;55;85;93;3;0.87;0.02;0.089999999999999997;0.02;1;2;90;8;0.35999999999999999;0.070000000000000007;0.40000000000000002;0.17000000000000001;0;5.083157526079049;41;56;27;1;
2019_03_18 10:22;37;1;0;control;33;136;1;29;67;14;75;0.46000000000000002;0.29999999999999999;0.20999999999999999;0.0300000000000001;70;86;1;85;0.31;0.39000000000000001;0.27000000000000002;0.029999999999999898;1;9.799657985669;41;56;27;1;
2019_03_18 10:22;37;1;0;control;34;70;1;66;55;69;50;0.22;0.29999999999999999;0.29999999999999999;0.17999999999999999;2;90;0;0;0.34000000000000002;0.66000000000000003;0.0;0.0;0;9.183197038612434;41;56;27;1;
2019_03_18 10:22;37;1;0;control;35;17;1;81;52;0;0;0.059999999999999998;0.93999999999999995;0.0;0.0;34;3;69;41;0.01;0.22;0.75;0.02;0;8.116433365255489;41;56;27;1;
2019_03_18 10:22;37;1;0;control;36;142;0;98;65;64;84;0.88;0.070000000000000007;0.01;0.040000000000000001;5;68;60;16;0.46000000000000002;0.080000000000000002;0.27000000000000002;0.19;0;7.616409311359348;41;56;27;1;
2019_03_18 10:22;37;1;0;control;37;115;1;50;28;61;79;0.83999999999999997;0.040000000000000001;0.059999999999999998;0.059999999999999998;1;26;97;55;0.45000000000000001;0.080000000000000002;0.40999999999999998;0.060000000000000102;0;4.116495263948309;41;56;27;1;
2019_03_18 10:22;37;1;0;control;38;4;0;40;43;0;0;0.58999999999999997;0.40999999999999998;0.0;0.0;2;33;88;81;0.69999999999999996;0.14000000000000001;0.13;0.029999999999999999;0;4.750073284203609;41;56;27;1;
2019_03_18 10:22;37;1;0;control;39;122;0;35;58;25;31;0.81999999999999995;0.070000000000000007;0.080000000000000002;0.029999999999999999;18;64;68;89;0.63;0.17000000000000001;0.11;0.089999999999999997;0;6.016449016323804;41;56;27;1;
2019_03_18 10:22;37;1;0;control;40;41;1;99;40;0;0;0.89000000000000001;0.11;0.0;0.0;1;67;52;46;0.51000000000000001;0.38;0.029999999999999999;0.080000000000000002;0;2.7998626041453463;41;56;27;1;
2019_03_18 10:22;37;1;0;control;41;143;1;88;44;56;73;0.95999999999999996;0.02;0.01;0.01;20;3;87;32;0.19;0.40000000000000002;0.28000000000000003;0.13;0;2.0498925913361745;41;56;27;1;
2019_03_18 10:22;37;1;0;control;42;42;1;70;48;0;0;0.79000000000000004;0.20999999999999999;0.0;0.0;51;8;12;67;0.19;0.26000000000000001;0.28999999999999998;0.26000000000000001;0;3.6998558049108397;41;56;27;1;
2019_03_18 10:22;37;1;0;control;43;147;0;39;43;76;28;0.14000000000000001;0.10000000000000001;0.10000000000000001;0.66000000000000003;6;31;68;85;0.27000000000000002;0.20000000000000001;0.22;0.31;0;4.516493916929903;41;56;27;1;
2019_03_18 10:22;37;1;0;control;44;23;1;54;40;0;0;0.93000000000000005;0.070000000000000007;0.0;0.0;36;23;71;86;0.02;0.41999999999999998;0.19;0.37;0;2.0665115885258274;41;56;27;1;
2019_03_18 10:22;37;1;0;control;45;34;0;32;48;0;0;0.28000000000000003;0.71999999999999997;0.0;0.0;97;83;7;62;0.040000000000000001;0.54000000000000004;0.35999999999999999;0.059999999999999901;1;3.7998000640154714;41;56;27;1;
2019_03_18 10:22;37;1;0;control;46;55;1;74;55;47;48;0.60999999999999999;0.31;0.070000000000000007;0.01;97;6;0;0;0.42999999999999999;0.56999999999999995;0.0;0.0;0;4.39995407309425;41;56;27;1;
2019_03_18 10:22;37;1;0;control;47;71;0;68;55;36;51;0.20000000000000001;0.75;0.02;0.029999999999999999;38;81;0;0;0.52000000000000002;0.47999999999999998;0.0;0.0;0;8.416378714803614;41;56;27;1;
2019_03_18 10:22;37;1;0;control;48;38;0;40;70;0;0;0.53000000000000003;0.46999999999999997;0.0;0.0;97;90;6;96;0.56999999999999995;0.070000000000000007;0.27000000000000002;0.089999999999999997;0;4.766498246631272;41;56;27;1;
2019_03_18 10:22;37;1;0;control;49;2;0;59;32;0;0;0.080000000000000002;0.92000000000000004;0.0;0.0;33;38;85;1;0.28999999999999998;0.050000000000000003;0.070000000000000007;0.58999999999999997;0;10.29962687596344;41;56;27;1;
2019_03_18 10:22;37;1;0;control;50;112;0;70;44;98;64;0.02;0.75;0.12;0.11;33;2;63;85;0.23999999999999999;0.31;0.080000000000000002;0.37;0;3.9831725357103096;41;56;27;1;
2019_03_18 10:22;37;1;0;control;51;51;0;52;23;43;16;0.60999999999999999;0.20999999999999999;0.01;0.17000000000000001;92;7;0;0;0.14999999999999999;0.84999999999999998;0.0;0.0;0;4.799752597660699;41;56;27;1;
2019_03_18 10:22;37;1;0;control;52;113;0;85;65;39;64;0.44;0.34000000000000002;0.13;0.089999999999999997;87;2;4;35;0.67000000000000004;0.17000000000000001;0.11;0.049999999999999899;0;2.749695156956477;41;56;27;1;
2019_03_18 10:22;37;1;0;control;53;91;0;74;81;86;48;0.93000000000000005;0.02;0.01;0.039999999999999897;7;64;0;0;0.13;0.87;0.0;0.0;0;1.7334360060526706;41;56;27;1;
2019_03_18 10:22;37;1;0;control;54;24;0;35;27;0;0;0.070000000000000007;0.93000000000000005;0.0;0.0;62;3;81;95;0.35999999999999999;0.55000000000000004;0.01;0.080000000000000002;0;2.8666795167923738;41;56;27;1;
2019_03_18 10:22;37;1;0;control;55;76;0;39;62;9;28;0.01;0.51000000000000001;0.26000000000000001;0.22;77;7;0;0;0.57999999999999996;0.41999999999999998;0.0;0.0;1;5.966498054200201;41;56;27;1;
2019_03_18 10:22;37;1;0;control;56;138;1;8;20;43;51;0.38;0.5;0.02;0.10000000000000001;72;82;70;1;0.39000000000000001;0.050000000000000003;0.070000000000000007;0.48999999999999999;1;4.5666036347683985;41;56;27;1;
2019_03_18 10:22;37;1;0;control;57;50;0;15;20;0;0;0.82999999999999996;0.17000000000000001;0.0;0.0;97;18;88;87;0.56999999999999995;0.39000000000000001;0.01;0.029999999999999999;1;3.53318892443167;41;56;27;1;
2019_03_18 10:22;37;1;0;control;58;35;0;33;37;0;0;0.88;0.12;0.0;0.0;63;4;79;98;0.16;0.46000000000000002;0.17000000000000001;0.20999999999999999;0;5.166469317812243;41;56;27;1;
2019_03_18 10:22;37;1;0;control;59;53;1;26;70;50;80;0.29999999999999999;0.59999999999999998;0.040000000000000001;0.059999999999999998;89;1;0;0;0.40999999999999998;0.58999999999999997;0.0;0.0;0;3.0331998288643263;41;56;27;1;
2019_03_18 10:22;37;1;0;control;60;100;0;27;14;59;52;0.02;0.95999999999999996;0.01;0.01;17;98;0;0;0.48999999999999999;0.51000000000000001;0.0;0.0;1;4.76646392973953;41;56;27;1;
2019_03_18 10:22;37;1;0;control;61;116;1;53;65;43;99;0.56999999999999995;0.37;0.050000000000000003;0.010000000000000101;57;72;11;87;0.67000000000000004;0.13;0.14999999999999999;0.050000000000000003;0;8.16643115229681;41;56;27;1;
2019_03_18 10:22;37;1;0;control;62;106;0;85;69;22;61;0.10000000000000001;0.58999999999999997;0.17999999999999999;0.13;20;79;91;84;0.55000000000000004;0.14999999999999999;0.26000000000000001;0.039999999999999897;0;8.283055986566069;41;56;27;1;
2019_03_18 10:22;37;1;0;control;63;127;0;89;26;62;79;0.02;0.28999999999999998;0.53000000000000003;0.16;96;6;60;13;0.53000000000000003;0.25;0.17000000000000001;0.050000000000000003;0;8.349732103740735;41;56;27;1;
2019_03_18 10:22;37;1;0;control;64;12;1;53;68;0;0;0.31;0.68999999999999995;0.0;0.0;69;54;97;29;0.25;0.20999999999999999;0.20000000000000001;0.34000000000000002;1;6.233137737740435;41;56;27;1;
2019_03_18 10:22;37;1;0;control;65;80;1;47;39;45;10;0.13;0.76000000000000001;0.059999999999999998;0.050000000000000003;2;87;0;0;0.48999999999999999;0.51000000000000001;0.0;0.0;0;2.816661203759395;41;56;27;1;
2019_03_18 10:22;37;1;0;control;66;45;1;97;87;0;0;0.71999999999999997;0.28000000000000003;0.0;0.0;96;11;14;4;0.25;0.029999999999999999;0.14000000000000001;0.57999999999999996;0;2.1666678426345243;41;56;27;1;
2019_03_18 10:22;37;1;0;control;67;96;0;51;54;39;7;0.17000000000000001;0.26000000000000001;0.10000000000000001;0.46999999999999997;24;96;0;0;0.28000000000000003;0.71999999999999997;0.0;0.0;1;6.266597990120317;41;56;27;1;
2019_03_18 10:22;37;1;0;control;68;46;0;5;19;0;0;0.32000000000000001;0.68000000000000005;0.0;0.0;88;38;97;66;0.60999999999999999;0.20000000000000001;0.040000000000000001;0.14999999999999999;1;2.266574577661686;41;56;27;1;
2019_03_18 10:22;37;1;0;control;69;7;1;49;29;0;0;0.95999999999999996;0.040000000000000001;0.0;0.0;23;99;64;25;0.68999999999999995;0.12;0.059999999999999998;0.13;0;4.299817703539247;41;56;27;1;
2019_03_18 10:22;37;1;0;control;70;10;0;45;62;0;0;0.059999999999999998;0.93999999999999995;0.0;0.0;17;99;28;67;0.58999999999999997;0.34000000000000002;0.01;0.059999999999999998;0;4.0332142612023745;41;56;27;1;
2019_03_18 10:22;37;1;0;control;71;13;1;52;56;0;0;0.46999999999999997;0.53000000000000003;0.0;0.0;94;71;27;2;0.089999999999999997;0.31;0.57999999999999996;0.020000000000000101;0;4.69983110957719;41;56;27;1;
2019_03_18 10:22;37;1;0;control;72;37;1;14;98;0;0;0.93000000000000005;0.070000000000000007;0.0;0.0;41;2;87;66;0.17999999999999999;0.48999999999999999;0.32000000000000001;0.010000000000000101;0;7.333079110378094;41;56;27;1;
2019_03_18 10:22;37;1;0;control;73;94;0;84;86;93;39;0.78000000000000003;0.20000000000000001;0.01;0.0099999999999999603;9;83;0;0;0.46999999999999997;0.53000000000000003;0.0;0.0;0;3.933304639707785;41;56;27;1;
2019_03_18 10:22;37;1;0;control;74;67;0;44;42;8;89;0.88;0.070000000000000007;0.029999999999999999;0.02;10;63;0;0;0.39000000000000001;0.60999999999999999;0.0;0.0;0;6.51642945248841;41;56;27;1;
2019_03_18 10:22;37;1;0;control;75;32;0;19;81;0;0;0.93000000000000005;0.070000000000000007;0.0;0.0;1;65;41;68;0.45000000000000001;0.050000000000000003;0.059999999999999998;0.44;1;3.8998610646958696;41;56;27;1;
2019_03_18 10:22;37;2;0;timed;1;16;0;64;53;0;0;0.65000000000000002;0.34999999999999998;0.0;0.0;29;17;81;46;0.10000000000000001;0.01;0.44;0.45000000000000001;0;2.9922815858121794;41;56;27;1;
2019_03_18 10:22;37;2;0;timed;2;106;1;85;69;22;61;0.10000000000000001;0.58999999999999997;0.17999999999999999;0.13;20;79;91;84;0.55000000000000004;0.14999999999999999;0.26000000000000001;0.039999999999999897;0;2.783373818713244;41;56;27;1;
2019_03_18 10:22;37;2;0;timed;3;128;1;70;49;27;54;0.27000000000000002;0.53000000000000003;0.02;0.17999999999999999;72;97;6;20;0.29999999999999999;0.39000000000000001;0.22;0.0899999999999999;1;3.2832003099424583;41;56;27;1;
2019_03_18 10:22;37;2;0;timed;4;24;1;35;27;0;0;0.070000000000000007;0.93000000000000005;0.0;0.0;62;3;81;95;0.35999999999999999;0.55000000000000004;0.01;0.080000000000000002;1;3.133201175882732;41;56;27;1;
2019_03_18 10:22;37;2;0;timed;5;120;1;64;40;48;51;0.19;0.02;0.070000000000000007;0.71999999999999997;97;9;79;94;0.23000000000000001;0.54000000000000004;0.01;0.22;0;2.616547541082582;41;56;27;1;
2019_03_18 10:22;37;2;0;timed;6;77;0;24;17;99;41;0.17999999999999999;0.13;0.10000000000000001;0.58999999999999997;12;97;0;0;0.59999999999999998;0.40000000000000002;0.0;0.0;1;2.8665634166541167;41;56;27;1;
2019_03_18 10:22;37;2;0;timed;7;1;1;22;51;0;0;0.26000000000000001;0.73999999999999999;0.0;0.0;14;11;92;31;0.29999999999999999;0.40999999999999998;0.14999999999999999;0.14000000000000001;0;2.1998532391621666;41;56;27;1;
2019_03_18 10:22;37;2;0;timed;8;14;1;36;40;0;0;0.54000000000000004;0.46000000000000002;0.0;0.0;99;70;1;11;0.16;0.089999999999999997;0.080000000000000002;0.67000000000000004;0;2.4832389244634214;41;56;27;1;
2019_03_18 10:22;37;2;0;timed;9;32;0;19;81;0;0;0.93000000000000005;0.070000000000000007;0.0;0.0;1;65;41;68;0.45000000000000001;0.050000000000000003;0.059999999999999998;0.44;0;1.8000380372277505;41;56;27;1;
2019_03_18 10:22;37;2;0;timed;10;17;1;81;52;0;0;0.059999999999999998;0.93999999999999995;0.0;0.0;34;3;69;41;0.01;0.22;0.75;0.02;0;2.3998886464969473;41;56;27;1;
2019_03_18 10:22;37;2;0;timed;11;122;1;35;58;25;31;0.81999999999999995;0.070000000000000007;0.080000000000000002;0.029999999999999999;18;64;68;89;0.63;0.17000000000000001;0.11;0.089999999999999997;0;1.9500346055383488;41;56;27;1;
2019_03_18 10:22;37;2;0;timed;12;147;1;39;43;76;28;0.14000000000000001;0.10000000000000001;0.10000000000000001;0.66000000000000003;6;31;68;85;0.27000000000000002;0.20000000000000001;0.22;0.31;1;2.8832125613935204;41;56;27;1;
2019_03_18 10:22;37;2;0;timed;13;5;0;70;5;0;0;0.98999999999999999;0.01;0.0;0.0;92;87;47;1;0.44;0.02;0.16;0.38;0;2.333147423442824;41;56;27;1;
2019_03_18 10:22;37;2;0;timed;14;110;1;47;44;23;52;0.13;0.27000000000000002;0.040000000000000001;0.56000000000000005;99;2;30;22;0.28999999999999998;0.5;0.11;0.10000000000000001;0;3.2833096749900506;41;56;27;1;
2019_03_18 10:22;37;2;0;timed;15;84;1;43;10;5;45;0.78000000000000003;0.13;0.059999999999999998;0.029999999999999999;87;1;0;0;0.57999999999999996;0.41999999999999998;0.0;0.0;1;2.5998746631653376;41;56;27;1;
2019_03_18 10:22;37;2;0;timed;16;26;0;76;41;0;0;0.57999999999999996;0.41999999999999998;0.0;0.0;61;79;84;2;0.13;0.029999999999999999;0.67000000000000004;0.17000000000000001;0;2.6333490271640585;41;56;27;1;
2019_03_18 10:22;37;2;0;timed;17;63;0;56;78;42;36;0.93000000000000005;0.040000000000000001;0.01;0.0199999999999999;2;72;0;0;0.32000000000000001;0.68000000000000005;0.0;0.0;0;2.1499163886574024;41;56;27;1;
2019_03_18 10:22;37;2;0;timed;18;58;0;37;58;76;34;0.20999999999999999;0.57999999999999996;0.19;0.020000000000000101;86;5;0;0;0.47999999999999998;0.52000000000000002;0.0;0.0;0;2.333196172672615;41;56;27;1;
2019_03_18 10:22;37;2;0;timed;19;131;0;83;41;81;88;0.23999999999999999;0.58999999999999997;0.10000000000000001;0.070000000000000007;82;97;4;17;0.26000000000000001;0.46999999999999997;0.11;0.16;0;1.9833601560994794;41;56;27;1;
2019_03_18 10:22;37;2;0;timed;20;113;0;85;65;39;64;0.44;0.34000000000000002;0.13;0.089999999999999997;87;2;4;35;0.67000000000000004;0.17000000000000001;0.11;0.049999999999999899;0;1.749904586212324;41;56;27;1;
2019_03_18 10:22;37;2;0;timed;21;93;0;87;81;73;98;0.80000000000000004;0.040000000000000001;0.14999999999999999;0.0099999999999999499;5;71;0;0;0.51000000000000001;0.48999999999999999;0.0;0.0;0;1.7332005985890646;41;56;27;1;
2019_03_18 10:22;37;2;0;timed;22;86;1;56;30;57;88;0.20000000000000001;0.35999999999999999;0.080000000000000002;0.35999999999999999;98;2;0;0;0.77000000000000002;0.23000000000000001;0.0;0.0;0;1.199897177612911;41;56;27;1;
2019_03_18 10:22;37;2;0;timed;23;69;0;54;34;64;49;0.34000000000000002;0.25;0.20999999999999999;0.20000000000000001;14;98;0;0;0.62;0.38;0.0;0.0;0;1.8665663031215445;41;56;27;1;
2019_03_18 10:22;37;2;0;timed;24;3;0;53;40;0;0;0.31;0.68999999999999995;0.0;0.0;96;24;7;88;0.11;0.27000000000000002;0.58999999999999997;0.029999999999999999;0;2.0333550566738268;41;56;27;1;
2019_03_18 10:22;37;2;0;timed;25;117;1;65;85;92;41;0.23000000000000001;0.17999999999999999;0.54000000000000004;0.050000000000000003;99;93;10;13;0.64000000000000001;0.16;0.01;0.19;1;3.283333728886646;41;56;27;1;
2019_03_18 10:22;37;2;0;timed;26;111;1;51;36;48;27;0.93000000000000005;0.01;0.01;0.049999999999999899;31;78;30;53;0.55000000000000004;0.16;0.029999999999999999;0.26000000000000001;1;3.1998699165296784;41;56;27;1;
2019_03_18 10:22;37;2;0;timed;27;112;0;70;44;98;64;0.02;0.75;0.12;0.11;33;2;63;85;0.23999999999999999;0.31;0.080000000000000002;0.37;0;2.3167102737079404;41;56;27;1;
2019_03_18 10:22;37;2;0;timed;28;27;1;44;26;0;0;0.35999999999999999;0.64000000000000001;0.0;0.0;63;10;3;5;0.58999999999999997;0.19;0.14999999999999999;0.070000000000000007;0;2.233214710208813;41;56;27;1;
2019_03_18 10:22;37;2;0;timed;29;73;0;65;68;70;47;0.25;0.23000000000000001;0.20999999999999999;0.31;27;95;0;0;0.45000000000000001;0.55000000000000004;0.0;0.0;0;1.9665509727719837;41;56;27;1;
2019_03_18 10:22;37;2;0;timed;30;13;1;52;56;0;0;0.46999999999999997;0.53000000000000003;0.0;0.0;94;71;27;2;0.089999999999999997;0.31;0.57999999999999996;0.020000000000000101;0;2.266573294787122;41;56;27;1;
2019_03_18 10:22;37;2;0;timed;31;138;1;8;20;43;51;0.38;0.5;0.02;0.10000000000000001;72;82;70;1;0.39000000000000001;0.050000000000000003;0.070000000000000007;0.48999999999999999;0;2.650047883289517;41;56;27;1;
2019_03_18 10:22;37;2;0;timed;32;44;0;79;74;0;0;0.71999999999999997;0.28000000000000003;0.0;0.0;3;67;15;36;0.41999999999999998;0.53000000000000003;0.02;0.029999999999999999;0;1.7999232199636026;41;56;27;1;
2019_03_18 10:22;37;2;0;timed;33;47;0;2;40;0;0;0.45000000000000001;0.55000000000000004;0.0;0.0;93;89;11;56;0.58999999999999997;0.070000000000000007;0.28000000000000003;0.059999999999999998;1;1.7998606798337278;41;56;27;1;
2019_03_18 10:22;37;2;0;timed;34;99;0;8;24;15;73;0.56000000000000005;0.35999999999999999;0.070000000000000007;0.0099999999999999499;88;12;0;0;0.52000000000000002;0.47999999999999998;0.0;0.0;1;2.7998943552884157;41;56;27;1;
2019_03_18 10:22;37;2;0;timed;35;11;1;17;36;0;0;0.14000000000000001;0.85999999999999999;0.0;0.0;19;41;34;95;0.88;0.02;0.050000000000000003;0.050000000000000003;1;2.7166707611741003;41;56;27;1;
2019_03_18 10:22;37;2;0;timed;36;127;0;89;26;62;79;0.02;0.28999999999999998;0.53000000000000003;0.16;96;6;60;13;0.53000000000000003;0.25;0.17000000000000001;0.050000000000000003;0;1.783233023241337;41;56;27;1;
2019_03_18 10:22;37;2;0;timed;37;79;0;52;46;29;22;0.17999999999999999;0.51000000000000001;0.23999999999999999;0.070000000000000104;93;14;0;0;0.45000000000000001;0.55000000000000004;0.0;0.0;0;1.8667109472171433;41;56;27;1;
2019_03_18 10:22;37;2;0;timed;38;115;0;50;28;61;79;0.83999999999999997;0.040000000000000001;0.059999999999999998;0.059999999999999998;1;26;97;55;0.45000000000000001;0.080000000000000002;0.40999999999999998;0.060000000000000102;0;1.7165719798404098;41;56;27;1;
2019_03_18 10:22;37;2;0;timed;39;37;1;14;98;0;0;0.93000000000000005;0.070000000000000007;0.0;0.0;41;2;87;66;0.17999999999999999;0.48999999999999999;0.32000000000000001;0.010000000000000101;0;3.633289694220366;41;56;27;1;
2019_03_18 10:22;37;2;0;timed;40;108;0;48;72;39;70;0.14000000000000001;0.66000000000000003;0.02;0.17999999999999999;81;44;98;8;0.59999999999999998;0.029999999999999999;0.050000000000000003;0.32000000000000001;0;3.849765137758368;41;56;27;1;
2019_03_18 10:22;37;2;0;timed;41;109;0;75;28;16;56;0.19;0.070000000000000007;0.059999999999999998;0.68000000000000005;3;50;98;44;0.5;0.02;0.34999999999999998;0.13;0;2.68333238186824;41;56;27;1;
2019_03_18 10:22;37;2;0;timed;42;9;0;61;69;0;0;0.93999999999999995;0.060000000000000102;0.0;0.0;18;93;72;16;0.40999999999999998;0.34999999999999998;0.089999999999999997;0.14999999999999999;0;1.4667501390313191;41;56;27;1;
2019_03_18 10:22;37;2;0;timed;43;90;0;27;44;50;72;0.68000000000000005;0.28999999999999998;0.02;0.0099999999999999707;6;96;0;0;0.46999999999999997;0.53000000000000003;0.0;0.0;0;1.1999484925900106;41;56;27;1;
2019_03_18 10:22;37;2;0;timed;44;89;1;26;41;13;56;0.059999999999999998;0.40999999999999998;0.050000000000000003;0.47999999999999998;5;97;0;0;0.37;0.63;0.0;0.0;0;1.4165868611853512;41;56;27;1;
2019_03_18 10:22;37;2;0;timed;45;105;0;49;74;63;58;0.84999999999999998;0.080000000000000002;0.02;0.050000000000000003;97;5;86;8;0.25;0.52000000000000002;0.070000000000000007;0.16;0;1.7500434573721577;41;56;27;1;
2019_03_18 10:22;37;2;0;timed;46;74;1;66;47;52;44;0.41999999999999998;0.26000000000000001;0.17999999999999999;0.14000000000000001;17;99;0;0;0.47999999999999998;0.52000000000000002;0.0;0.0;1;2.5665462261367793;41;56;27;1;
2019_03_18 10:22;37;2;0;timed;47;31;0;10;59;0;0;0.23999999999999999;0.76000000000000001;0.0;0.0;1;79;53;73;0.23000000000000001;0.58999999999999997;0.050000000000000003;0.13;1;3.69986125712785;41;56;27;1;
2019_03_18 10:22;37;2;0;timed;48;28;0;47;30;0;0;0.97999999999999998;0.02;0.0;0.0;55;48;77;13;0.070000000000000007;0.26000000000000001;0.42999999999999999;0.23999999999999999;0;1.833447936784978;41;56;27;1;
2019_03_18 10:22;37;2;0;timed;49;52;0;71;51;10;54;0.22;0.12;0.19;0.46999999999999997;91;1;0;0;0.29999999999999999;0.69999999999999996;0.0;0.0;0;2.3000184733919014;41;56;27;1;
2019_03_18 10:22;37;2;0;timed;50;39;1;14;33;0;0;0.78000000000000003;0.22;0.0;0.0;93;84;1;25;0.14000000000000001;0.23999999999999999;0.39000000000000001;0.23000000000000001;0;2.6665709856133617;41;56;27;1;
2019_03_18 10:22;37;2;0;timed;51;123;0;26;24;51;92;0.72999999999999998;0.16;0.070000000000000007;0.040000000000000001;6;90;82;49;0.64000000000000001;0.25;0.050000000000000003;0.059999999999999998;0;2.216561075408208;41;56;27;1;
2019_03_18 10:22;37;2;0;timed;52;94;0;84;86;93;39;0.78000000000000003;0.20000000000000001;0.01;0.0099999999999999603;9;83;0;0;0.46999999999999997;0.53000000000000003;0.0;0.0;0;1.5999195637714365;41;56;27;1;
2019_03_18 10:22;37;2;0;timed;53;62;1;12;45;16;50;0.20999999999999999;0.76000000000000001;0.02;0.01;92;15;0;0;0.20999999999999999;0.79000000000000004;0.0;0.0;0;2.6832913298849235;41;56;27;1;
2019_03_18 10:22;37;2;0;timed;54;140;1;36;32;26;27;0.39000000000000001;0.14999999999999999;0.19;0.27000000000000002;44;3;99;25;0.29999999999999999;0.34000000000000002;0.34000000000000002;0.0199999999999999;0;2.7499363373553933;41;56;27;1;
2019_03_18 10:22;37;2;0;timed;55;149;1;14;89;73;53;0.93999999999999995;0.01;0.01;0.040000000000000001;97;45;6;13;0.34000000000000002;0.01;0.40999999999999998;0.23999999999999999;0;2.3998251442108085;41;56;27;1;
2019_03_18 10:22;37;2;0;timed;56;145;1;91;89;90;74;0.57999999999999996;0.29999999999999999;0.11;0.010000000000000101;2;75;84;39;0.32000000000000001;0.27000000000000002;0.39000000000000001;0.0199999999999999;0;2.1832396941881598;41;56;27;1;
2019_03_18 10:22;37;2;0;timed;57;67;0;44;42;8;89;0.88;0.070000000000000007;0.029999999999999999;0.02;10;63;0;0;0.39000000000000001;0.60999999999999999;0.0;0.0;0;2.1666858028775096;41;56;27;1;
2019_03_18 10:22;37;2;0;timed;58;125;1;37;41;10;35;0.91000000000000003;0.040000000000000001;0.029999999999999999;0.02;7;13;91;93;0.26000000000000001;0.39000000000000001;0.16;0.19;0;2.3165707611096877;41;56;27;1;
2019_03_18 10:22;37;2;0;timed;59;60;0;64;59;57;96;0.83999999999999997;0.13;0.02;0.01;83;6;0;0;0.54000000000000004;0.46000000000000002;0.0;0.0;0;1.96658657253829;41;56;27;1;
2019_03_18 10:22;37;2;0;timed;60;54;0;44;79;78;52;0.79000000000000004;0.19;0.01;0.0099999999999999603;96;1;0;0;0.28000000000000003;0.71999999999999997;0.0;0.0;0;1.8999184733274888;41;56;27;1;
2019_03_18 10:22;37;2;0;timed;61;15;1;77;81;0;0;0.28000000000000003;0.71999999999999997;0.0;0.0;98;14;87;18;0.55000000000000004;0.23000000000000001;0.16;0.059999999999999901;0;2.5333685268560657;41;56;27;1;
2019_03_18 10:22;37;2;0;timed;62;107;1;52;48;13;63;0.68000000000000005;0.19;0.050000000000000003;0.079999999999999905;54;91;33;3;0.19;0.17999999999999999;0.33000000000000002;0.29999999999999999;0;3.2665008123804;41;56;27;1;
2019_03_18 10:22;37;2;0;timed;63;21;0;64;28;0;0;0.080000000000000002;0.92000000000000004;0.0;0.0;50;1;88;13;0.57999999999999996;0.13;0.02;0.27000000000000002;0;2.6332313234333924;41;56;27;1;
2019_03_18 10:22;37;2;0;timed;64;143;0;88;44;56;73;0.95999999999999996;0.02;0.01;0.01;20;3;87;32;0.19;0.40000000000000002;0.28000000000000003;0.13;0;1.949900545158016;41;56;27;1;
2019_03_18 10:22;37;2;0;timed;65;53;0;26;70;50;80;0.29999999999999999;0.59999999999999998;0.040000000000000001;0.059999999999999998;89;1;0;0;0.40999999999999998;0.58999999999999997;0.0;0.0;0;2.0000295061126963;41;56;27;1;
2019_03_18 10:22;37;2;0;timed;66;102;0;40;56;53;17;0.28000000000000003;0.26000000000000001;0.14999999999999999;0.31;1;76;29;62;0.68000000000000005;0.23000000000000001;0.050000000000000003;0.039999999999999897;0;2.2165338143249755;41;56;27;1;
2019_03_18 10:22;37;2;0;timed;67;55;1;74;55;47;48;0.60999999999999999;0.31;0.070000000000000007;0.01;97;6;0;0;0.42999999999999999;0.56999999999999995;0.0;0.0;0;2.9998659396187577;41;56;27;1;
2019_03_18 10:22;37;2;0;timed;68;92;0;90;86;65;94;0.16;0.34000000000000002;0.28000000000000003;0.22;79;22;0;0;0.35999999999999999;0.64000000000000001;0.0;0.0;0;1.8001336113748039;41;56;27;1;
2019_03_18 10:22;37;2;0;timed;69;148;1;37;63;55;10;0.72999999999999998;0.070000000000000007;0.029999999999999999;0.17000000000000001;80;14;23;70;0.46999999999999997;0.10000000000000001;0.23000000000000001;0.20000000000000001;1;2.2332531964420923;41;56;27;1;
2019_03_18 10:22;37;2;0;timed;70;83;1;17;12;7;41;0.65000000000000002;0.19;0.089999999999999997;0.070000000000000007;6;84;0;0;0.72999999999999998;0.27000000000000002;0.0;0.0;0;2.8330579429484715;41;56;27;1;
2019_03_18 10:22;37;2;0;timed;71;18;1;68;50;0;0;0.029999999999999999;0.96999999999999997;0.0;0.0;34;64;15;89;0.65000000000000002;0.029999999999999999;0.050000000000000003;0.27000000000000002;1;3.9499890634951953;41;56;27;1;
2019_03_18 10:22;37;2;0;timed;72;124;0;37;65;15;41;0.17999999999999999;0.45000000000000001;0.02;0.34999999999999998;40;7;98;30;0.070000000000000007;0.45000000000000001;0.45000000000000001;0.029999999999999898;0;3.0165994333538038;41;56;27;1;
2019_03_18 10:22;37;2;0;timed;73;80;1;47;39;45;10;0.13;0.76000000000000001;0.059999999999999998;0.050000000000000003;2;87;0;0;0.48999999999999999;0.51000000000000001;0.0;0.0;0;3.466828394373806;41;56;27;1;
2019_03_18 10:22;37;2;0;timed;74;82;0;78;66;30;27;0.28999999999999998;0.58999999999999997;0.080000000000000002;0.040000000000000001;90;6;0;0;0.82999999999999996;0.17000000000000001;0.0;0.0;0;2.866492537839804;41;56;27;1;
2019_03_18 10:22;37;2;0;timed;75;104;1;55;85;93;3;0.87;0.02;0.089999999999999997;0.02;1;2;90;8;0.35999999999999999;0.070000000000000007;0.40000000000000002;0.17000000000000001;0;2.2998635663016103;41;56;27;1;
2019_03_18 10:22;37;3;0;control;1;93;1;87;81;73;98;0.80000000000000004;0.040000000000000001;0.14999999999999999;0.0099999999999999499;5;71;0;0;0.51000000000000001;0.48999999999999999;0.0;0.0;0;4.834385718015255;41;56;27;1;
2019_03_18 10:22;37;3;0;control;2;59;0;56;47;83;90;0.31;0.12;0.54000000000000004;0.029999999999999898;10;98;0;0;0.46999999999999997;0.53000000000000003;0.0;0.0;1;1.700042142426355;41;56;27;1;
2019_03_18 10:22;37;3;0;control;3;119;0;60;58;11;18;0.25;0.72999999999999998;0.01;0.01;96;23;42;85;0.44;0.48999999999999999;0.059999999999999998;0.010000000000000101;1;1.3831641328824844;41;56;27;1;
2019_03_18 10:22;37;3;0;control;4;39;0;14;33;0;0;0.78000000000000003;0.22;0.0;0.0;93;84;1;25;0.14000000000000001;0.23999999999999999;0.39000000000000001;0.23000000000000001;0;1.2998683770811112;41;56;27;1;
2019_03_18 10:22;37;3;0;control;5;15;1;77;81;0;0;0.28000000000000003;0.71999999999999997;0.0;0.0;98;14;87;18;0.55000000000000004;0.23000000000000001;0.16;0.059999999999999901;0;1.2165963544557599;41;56;27;1;
2019_03_18 10:22;37;3;0;control;6;140;0;36;32;26;27;0.39000000000000001;0.14999999999999999;0.19;0.27000000000000002;44;3;99;25;0.29999999999999999;0.34000000000000002;0.34000000000000002;0.0199999999999999;0;1.716582242836921;41;56;27;1;
2019_03_18 10:22;37;3;0;control;7;26;1;76;41;0;0;0.57999999999999996;0.41999999999999998;0.0;0.0;61;79;84;2;0.13;0.029999999999999999;0.67000000000000004;0.17000000000000001;0;1.2832666986960248;41;56;27;1;
2019_03_18 10:22;37;3;0;control;8;72;1;63;82;51;61;0.01;0.96999999999999997;0.01;0.01;92;12;0;0;0.89000000000000001;0.11;0.0;0.0;1;1.1998997433611294;41;56;27;1;
2019_03_18 10:22;37;3;0;control;9;63;0;56;78;42;36;0.93000000000000005;0.040000000000000001;0.01;0.0199999999999999;2;72;0;0;0.32000000000000001;0.68000000000000005;0.0;0.0;0;1.3332680136418276;41;56;27;1;
2019_03_18 10:22;37;3;0;control;10;49;1;21;30;0;0;0.53000000000000003;0.46999999999999997;0.0;0.0;93;99;89;25;0.44;0.02;0.11;0.42999999999999999;1;1.3833482253676266;41;56;27;1;
2019_03_18 10:22;37;3;0;control;11;105;0;49;74;63;58;0.84999999999999998;0.080000000000000002;0.02;0.050000000000000003;97;5;86;8;0.25;0.52000000000000002;0.070000000000000007;0.16;0;1.916670568743939;41;56;27;1;
2019_03_18 10:22;37;3;0;control;12;44;0;79;74;0;0;0.71999999999999997;0.28000000000000003;0.0;0.0;3;67;15;36;0.41999999999999998;0.53000000000000003;0.02;0.029999999999999999;0;1.6332133631894976;41;56;27;1;
2019_03_18 10:22;37;3;0;control;13;77;0;24;17;99;41;0.17999999999999999;0.13;0.10000000000000001;0.58999999999999997;12;97;0;0;0.59999999999999998;0.40000000000000002;0.0;0.0;0;3.699944323248019;41;56;27;1;
2019_03_18 10:22;37;3;0;control;14;74;0;66;47;52;44;0.41999999999999998;0.26000000000000001;0.17999999999999999;0.14000000000000001;17;99;0;0;0.47999999999999998;0.52000000000000002;0.0;0.0;0;3.1331601239007796;41;56;27;1;
2019_03_18 10:22;37;3;0;control;15;69;1;54;34;64;49;0.34000000000000002;0.25;0.20999999999999999;0.20000000000000001;14;98;0;0;0.62;0.38;0.0;0.0;0;1.6998250159240342;41;56;27;1;
2019_03_18 10:22;37;3;0;control;16;9;1;61;69;0;0;0.93999999999999995;0.060000000000000102;0.0;0.0;18;93;72;16;0.40999999999999998;0.34999999999999998;0.089999999999999997;0.14999999999999999;1;1.1332239469047636;41;56;27;1;
2019_03_18 10:22;37;3;0;control;17;121;1;42;51;47;70;0.41999999999999998;0.17000000000000001;0.23999999999999999;0.17000000000000001;21;76;48;9;0.14999999999999999;0.34000000000000002;0.40999999999999998;0.10000000000000001;0;1.8500319756458339;41;56;27;1;
2019_03_18 10:22;37;3;0;control;18;135;1;48;60;41;51;0.14000000000000001;0.40000000000000002;0.089999999999999997;0.37;94;1;85;65;0.64000000000000001;0.29999999999999999;0.01;0.050000000000000003;0;1.449932296300176;41;56;27;1;
2019_03_18 10:22;37;3;0;control;19;25;1;50;53;0;0;0.82999999999999996;0.17000000000000001;0.0;0.0;83;16;97;4;0.45000000000000001;0.29999999999999999;0.11;0.14000000000000001;0;4.283236230427065;41;56;27;1;
2019_03_18 10:22;37;3;0;control;20;149;1;14;89;73;53;0.93999999999999995;0.01;0.01;0.040000000000000001;97;45;6;13;0.34000000000000002;0.01;0.40999999999999998;0.23999999999999999;0;1.4833268013644556;41;56;27;1;
2019_03_18 10:22;37;3;0;control;21;101;0;30;96;61;45;0.65000000000000002;0.14000000000000001;0.11;0.10000000000000001;3;98;63;89;0.75;0.19;0.040000000000000001;0.02;0;2.1498968248215533;41;56;27;1;
2019_03_18 10:22;37;3;0;control;22;68;0;84;27;55;62;0.01;0.050000000000000003;0.40999999999999998;0.53000000000000003;9;82;0;0;0.37;0.63;0.0;0.0;0;2.6665546289632402;41;56;27;1;
2019_03_18 10:22;37;3;0;control;23;29;1;44;51;0;0;0.78000000000000003;0.22;0.0;0.0;74;1;68;82;0.69999999999999996;0.28000000000000003;0.01;0.01;1;3.999896728605563;41;56;27;1;
2019_03_18 10:22;37;3;0;control;24;128;1;70;49;27;54;0.27000000000000002;0.53000000000000003;0.02;0.17999999999999999;72;97;6;20;0.29999999999999999;0.39000000000000001;0.22;0.0899999999999999;1;5.150087652397815;41;56;27;1;
2019_03_18 10:22;37;3;0;control;25;144;1;99;93;90;71;0.65000000000000002;0.32000000000000001;0.01;0.02;97;14;48;73;0.23000000000000001;0.46000000000000002;0.13;0.17999999999999999;0;2.0832996044255196;41;56;27;1;
2019_03_18 10:22;37;3;0;control;26;86;1;56;30;57;88;0.20000000000000001;0.35999999999999999;0.080000000000000002;0.35999999999999999;98;2;0;0;0.77000000000000002;0.23000000000000001;0.0;0.0;0;3.583185749317636;41;56;27;1;
2019_03_18 10:22;37;3;0;control;27;11;0;17;36;0;0;0.14000000000000001;0.85999999999999999;0.0;0.0;19;41;34;95;0.88;0.02;0.050000000000000003;0.050000000000000003;1;1.5000548428834009;41;56;27;1;
2019_03_18 10:22;37;3;0;control;28;90;0;27;44;50;72;0.68000000000000005;0.28999999999999998;0.02;0.0099999999999999707;6;96;0;0;0.46999999999999997;0.53000000000000003;0.0;0.0;0;1.150057825566364;41;56;27;1;
2019_03_18 10:22;37;3;0;control;29;120;1;64;40;48;51;0.19;0.02;0.070000000000000007;0.71999999999999997;97;9;79;94;0.23000000000000001;0.54000000000000004;0.01;0.22;0;1.3999171904533796;41;56;27;1;
2019_03_18 10:22;37;3;0;control;30;126;1;16;55;51;42;0.68999999999999995;0.23999999999999999;0.01;0.060000000000000102;66;4;1;5;0.46999999999999997;0.38;0.089999999999999997;0.059999999999999998;0;1.516558381372306;41;56;27;1;
2019_03_18 10:22;37;3;0;control;31;65;1;75;64;59;52;0.59999999999999998;0.22;0.14000000000000001;0.040000000000000001;1;99;0;0;0.35999999999999999;0.64000000000000001;0.0;0.0;0;1.0000625401298748;41;56;27;1;
2019_03_18 10:22;37;3;0;control;32;22;0;32;55;0;0;0.39000000000000001;0.60999999999999999;0.0;0.0;93;72;59;22;0.20000000000000001;0.11;0.14000000000000001;0.55000000000000004;1;1.1999292494738256;41;56;27;1;
2019_03_18 10:22;37;3;0;control;33;148;0;37;63;55;10;0.72999999999999998;0.070000000000000007;0.029999999999999999;0.17000000000000001;80;14;23;70;0.46999999999999997;0.10000000000000001;0.23000000000000001;0.20000000000000001;1;2.1834000534963707;41;56;27;1;
2019_03_18 10:22;37;3;0;control;34;31;0;10;59;0;0;0.23999999999999999;0.76000000000000001;0.0;0.0;1;79;53;73;0.23000000000000001;0.58999999999999997;0.050000000000000003;0.13;0;2.53314562741798;41;56;27;1;
2019_03_18 10:22;37;3;0;control;35;6;1;9;51;0;0;0.14999999999999999;0.84999999999999998;0.0;0.0;6;40;50;73;0.42999999999999999;0.26000000000000001;0.059999999999999998;0.25;1;1.9663540515421118;41;56;27;1;
2019_03_18 10:22;37;3;0;control;36;97;1;17;33;32;74;0.94999999999999996;0.01;0.029999999999999999;0.01;76;23;0;0;0.33000000000000002;0.67000000000000004;0.0;0.0;1;2.1331732733633544;41;56;27;1;
2019_03_18 10:22;37;3;0;control;37;27;0;44;26;0;0;0.35999999999999999;0.64000000000000001;0.0;0.0;63;10;3;5;0.58999999999999997;0.19;0.14999999999999999;0.070000000000000007;1;4.19976183435665;41;56;27;1;
2019_03_18 10:22;37;3;0;control;38;54;0;44;79;78;52;0.79000000000000004;0.19;0.01;0.0099999999999999603;96;1;0;0;0.28000000000000003;0.71999999999999997;0.0;0.0;0;1.6668657260197506;41;56;27;1;
2019_03_18 10:22;37;3;0;control;39;139;0;44;31;16;8;0.79000000000000004;0.070000000000000007;0.13;0.0099999999999999499;92;58;2;88;0.55000000000000004;0.070000000000000007;0.34000000000000002;0.039999999999999897;1;3.433240816703801;41;56;27;1;
2019_03_18 10:22;37;3;0;control;40;5;0;70;5;0;0;0.98999999999999999;0.01;0.0;0.0;92;87;47;1;0.44;0.02;0.16;0.38;0;3.199895253300383;41;56;27;1;
2019_03_18 10:22;37;3;0;control;41;150;0;25;21;78;38;0.84999999999999998;0.059999999999999998;0.050000000000000003;0.040000000000000001;31;43;64;95;0.059999999999999998;0.45000000000000001;0.13;0.35999999999999999;1;4.483180232957238;41;56;27;1;
2019_03_18 10:22;37;3;0;control;42;108;1;48;72;39;70;0.14000000000000001;0.66000000000000003;0.02;0.17999999999999999;81;44;98;8;0.59999999999999998;0.029999999999999999;0.050000000000000003;0.32000000000000001;0;1.8998799870942094;41;56;27;1;
2019_03_18 10:22;37;3;0;control;43;48;0;13;32;0;0;0.90000000000000002;0.10000000000000001;0.0;0.0;24;99;84;94;0.62;0.14999999999999999;0.20000000000000001;0.029999999999999999;1;1.5667232628111378;41;56;27;1;
2019_03_18 10:22;37;3;0;control;44;19;0;22;53;0;0;0.13;0.87;0.0;0.0;4;93;96;65;0.46999999999999997;0.059999999999999998;0.26000000000000001;0.20999999999999999;0;2.8998719691289807;41;56;27;1;
2019_03_18 10:22;37;3;0;control;45;141;0;93;28;60;91;0.81999999999999995;0.10000000000000001;0.01;0.070000000000000007;14;85;7;89;0.45000000000000001;0.070000000000000007;0.23999999999999999;0.23999999999999999;0;2.283398514046894;41;56;27;1;
2019_03_18 10:22;37;3;0;control;46;99;0;8;24;15;73;0.56000000000000005;0.35999999999999999;0.070000000000000007;0.0099999999999999499;88;12;0;0;0.52000000000000002;0.47999999999999998;0.0;0.0;1;2.966501261385929;41;56;27;1;
2019_03_18 10:22;37;3;0;control;47;133;1;59;88;60;36;0.67000000000000004;0.070000000000000007;0.12;0.14000000000000001;7;91;66;61;0.25;0.68999999999999995;0.01;0.0500000000000001;1;2.3333805858765118;41;56;27;1;
2019_03_18 10:22;37;3;0;control;48;33;0;27;70;0;0;0.88;0.12;0.0;0.0;93;3;77;16;0.080000000000000002;0.40000000000000002;0.5;0.02;0;3.899845349484167;41;56;27;1;
2019_03_18 10:22;37;3;0;control;49;20;0;44;40;0;0;0.91000000000000003;0.089999999999999997;0.0;0.0;29;5;80;99;0.25;0.40000000000000002;0.26000000000000001;0.089999999999999997;0;4.299828607972813;41;56;27;1;
2019_03_18 10:22;37;3;0;control;50;85;1;31;22;82;50;0.11;0.69999999999999996;0.01;0.17999999999999999;3;99;0;0;0.62;0.38;0.0;0.0;0;2.7331977121220916;41;56;27;1;
2019_03_18 10:22;37;3;0;control;51;82;0;78;66;30;27;0.28999999999999998;0.58999999999999997;0.080000000000000002;0.040000000000000001;90;6;0;0;0.82999999999999996;0.17000000000000001;0.0;0.0;0;3.2497564142113333;41;56;27;1;
2019_03_18 10:22;37;3;0;control;52;134;0;57;48;50;55;0.02;0.62;0.17999999999999999;0.17999999999999999;80;96;15;18;0.23999999999999999;0.35999999999999999;0.33000000000000002;0.070000000000000007;0;5.816556970209604;41;56;27;1;
2019_03_18 10:22;37;3;0;control;53;58;1;37;58;76;34;0.20999999999999999;0.57999999999999996;0.19;0.020000000000000101;86;5;0;0;0.47999999999999998;0.52000000000000002;0.0;0.0;0;2.30005150740908;41;56;27;1;
2019_03_18 10:22;37;3;0;control;54;88;1;77;13;12;7;0.12;0.19;0.66000000000000003;0.029999999999999898;94;2;0;0;0.40999999999999998;0.58999999999999997;0.0;0.0;0;4.166544686686393;41;56;27;1;
2019_03_18 10:22;37;3;0;control;55;73;0;65;68;70;47;0.25;0.23000000000000001;0.20999999999999999;0.31;27;95;0;0;0.45000000000000001;0.55000000000000004;0.0;0.0;0;2.366530703355238;41;56;27;1;
2019_03_18 10:22;37;3;0;control;56;87;1;10;30;63;4;0.56999999999999995;0.12;0.16;0.14999999999999999;86;2;0;0;0.42999999999999999;0.56999999999999995;0.0;0.0;0;4.4667161428578765;41;56;27;1;
2019_03_18 10:22;37;3;0;control;57;124;1;37;65;15;41;0.17999999999999999;0.45000000000000001;0.02;0.34999999999999998;40;7;98;30;0.070000000000000007;0.45000000000000001;0.45000000000000001;0.029999999999999898;0;2.616530222277106;41;56;27;1;
2019_03_18 10:22;37;3;0;control;58;47;0;2;40;0;0;0.45000000000000001;0.55000000000000004;0.0;0.0;93;89;11;56;0.58999999999999997;0.070000000000000007;0.28000000000000003;0.059999999999999998;1;3.1998898010842822;41;56;27;1;
2019_03_18 10:22;37;3;0;control;59;81;0;67;38;52;65;0.27000000000000002;0.35999999999999999;0.01;0.35999999999999999;2;77;0;0;0.14000000000000001;0.85999999999999999;0.0;0.0;1;3.2665312806484508;41;56;27;1;
2019_03_18 10:22;37;3;0;control;60;43;1;60;83;0;0;0.23000000000000001;0.77000000000000002;0.0;0.0;72;5;70;12;0.29999999999999999;0.40999999999999998;0.12;0.17000000000000001;0;1.6167316335677242;41;56;27;1;
2019_03_18 10:22;37;3;0;control;61;102;1;40;56;53;17;0.28000000000000003;0.26000000000000001;0.14999999999999999;0.31;1;76;29;62;0.68000000000000005;0.23000000000000001;0.050000000000000003;0.039999999999999897;0;2.283194216289303;41;56;27;1;
2019_03_18 10:22;37;3;0;control;62;30;1;33;30;0;0;0.71999999999999997;0.28000000000000003;0.0;0.0;9;88;1;14;0.55000000000000004;0.39000000000000001;0.01;0.049999999999999899;0;2.9664765660527337;41;56;27;1;
2019_03_18 10:22;37;3;0;control;63;129;1;12;29;81;36;0.17999999999999999;0.79000000000000004;0.01;0.02;5;19;95;92;0.47999999999999998;0.26000000000000001;0.13;0.13;0;2.816547348651511;41;56;27;1;
2019_03_18 10:22;37;3;0;control;64;14;1;36;40;0;0;0.54000000000000004;0.46000000000000002;0.0;0.0;99;70;1;11;0.16;0.089999999999999997;0.080000000000000002;0.67000000000000004;0;0.7332750053083146;41;56;27;1;
2019_03_18 10:22;37;3;0;control;65;28;1;47;30;0;0;0.97999999999999998;0.02;0.0;0.0;55;48;77;13;0.070000000000000007;0.26000000000000001;0.42999999999999999;0.23999999999999999;0;1.9332305537072898;41;56;27;1;
2019_03_18 10:22;37;3;0;control;66;57;1;52;35;23;47;0.22;0.68000000000000005;0.040000000000000001;0.059999999999999998;71;7;0;0;0.28999999999999998;0.70999999999999996;0.0;0.0;0;2.5666899080752046;41;56;27;1;
2019_03_18 10:22;37;3;0;control;67;61;0;43;18;39;70;0.75;0.089999999999999997;0.089999999999999997;0.070000000000000007;16;66;0;0;0.64000000000000001;0.35999999999999999;0.0;0.0;0;2.6665976052581755;41;56;27;1;
2019_03_18 10:22;37;3;0;control;68;64;0;48;39;34;19;0.46000000000000002;0.5;0.02;0.02;13;92;0;0;0.68999999999999995;0.31;0.0;0.0;0;2.299996343807834;41;56;27;1;
2019_03_18 10:22;37;3;0;control;69;56;0;28;84;37;41;0.68000000000000005;0.28000000000000003;0.02;0.0199999999999999;6;95;0;0;0.72999999999999998;0.27000000000000002;0.0;0.0;0;1.5499031750496215;41;56;27;1;
2019_03_18 10:22;37;3;0;control;70;110;0;47;44;23;52;0.13;0.27000000000000002;0.040000000000000001;0.56000000000000005;99;2;30;22;0.28999999999999998;0.5;0.11;0.10000000000000001;0;3.049880724747709;41;56;27;1;
2019_03_18 10:22;37;3;0;control;71;92;0;90;86;65;94;0.16;0.34000000000000002;0.28000000000000003;0.22;79;22;0;0;0.35999999999999999;0.64000000000000001;0.0;0.0;0;3.1665257642880533;41;56;27;1;
2019_03_18 10:22;37;3;0;control;72;114;0;57;39;79;97;0.77000000000000002;0.02;0.13;0.080000000000000002;92;36;6;1;0.54000000000000004;0.12;0.13;0.20999999999999999;0;3.68319575573787;41;56;27;1;
2019_03_18 10:22;37;3;0;control;73;107;0;52;48;13;63;0.68000000000000005;0.19;0.050000000000000003;0.079999999999999905;54;91;33;3;0.19;0.17999999999999999;0.33000000000000002;0.29999999999999999;0;2.466844751023018;41;56;27;1;
2019_03_18 10:22;37;3;0;control;74;83;1;17;12;7;41;0.65000000000000002;0.19;0.089999999999999997;0.070000000000000007;6;84;0;0;0.72999999999999998;0.27000000000000002;0.0;0.0;0;2.1667589267208314;41;56;27;1;
2019_03_18 10:22;37;3;0;control;75;98;1;27;10;31;79;0.23000000000000001;0.67000000000000004;0.070000000000000007;0.029999999999999999;25;99;0;0;0.38;0.62;0.0;0.0;1;2.6333961728005306;41;56;27;1;
2019_03_18 10:22;37;4;0;timed;1;118;0;62;52;65;68;0.40999999999999998;0.44;0.10000000000000001;0.0500000000000001;79;20;14;37;0.56999999999999995;0.23999999999999999;0.14000000000000001;0.050000000000000003;1;2.832188474783834;41;56;27;1;
2019_03_18 10:22;37;4;0;timed;2;141;1;93;28;60;91;0.81999999999999995;0.10000000000000001;0.01;0.070000000000000007;14;85;7;89;0.45000000000000001;0.070000000000000007;0.23999999999999999;0.23999999999999999;0;0.8832138442676296;41;56;27;1;
2019_03_18 10:22;37;4;0;timed;3;40;1;45;49;0;0;0.68999999999999995;0.31;0.0;0.0;2;92;65;73;0.23999999999999999;0.59999999999999998;0.11;0.050000000000000003;0;1.4165717874093389;41;56;27;1;
2019_03_18 10:22;37;4;0;timed;4;43;1;60;83;0;0;0.23000000000000001;0.77000000000000002;0.0;0.0;72;5;70;12;0.29999999999999999;0.40999999999999998;0.12;0.17000000000000001;0;0.9665968355338919;41;56;27;1;
2019_03_18 10:22;37;4;0;timed;5;100;0;27;14;59;52;0.02;0.95999999999999996;0.01;0.01;17;98;0;0;0.48999999999999999;0.51000000000000001;0.0;0.0;0;1.2167005880055513;41;56;27;1;
2019_03_18 10:22;37;4;0;timed;6;56;1;28;84;37;41;0.68000000000000005;0.28000000000000003;0.02;0.0199999999999999;6;95;0;0;0.72999999999999998;0.27000000000000002;0.0;0.0;0;1.066609407703254;41;56;27;1;
2019_03_18 10:22;37;4;0;timed;7;35;1;33;37;0;0;0.88;0.12;0.0;0.0;63;4;79;98;0.16;0.46000000000000002;0.17000000000000001;0.20999999999999999;0;1.266670151809194;41;56;27;1;
2019_03_18 10:22;37;4;0;timed;8;64;1;48;39;34;19;0.46000000000000002;0.5;0.02;0.02;13;92;0;0;0.68999999999999995;0.31;0.0;0.0;0;1.1166533782252372;41;56;27;1;
2019_03_18 10:22;37;4;0;timed;9;66;0;89;23;27;15;0.070000000000000007;0.54000000000000004;0.17000000000000001;0.22;9;73;0;0;0.72999999999999998;0.27000000000000002;0.0;0.0;0;1.8665265340132464;41;56;27;1;
2019_03_18 10:22;37;4;0;timed;10;126;0;16;55;51;42;0.68999999999999995;0.23999999999999999;0.01;0.060000000000000102;66;4;1;5;0.46999999999999997;0.38;0.089999999999999997;0.059999999999999998;0;1.583204671715066;41;56;27;1;
2019_03_18 10:22;37;4;0;timed;11;87;1;10;30;63;4;0.56999999999999995;0.12;0.16;0.14999999999999999;86;2;0;0;0.42999999999999999;0.56999999999999995;0.0;0.0;1;1.6669526407649755;41;56;27;1;
2019_03_18 10:22;37;4;0;timed;12;65;0;75;64;59;52;0.59999999999999998;0.22;0.14000000000000001;0.040000000000000001;1;99;0;0;0.35999999999999999;0.64000000000000001;0.0;0.0;1;1.699873765153825;41;56;27;1;
2019_03_18 10:22;37;4;0;timed;13;49;1;21;30;0;0;0.53000000000000003;0.46999999999999997;0.0;0.0;93;99;89;25;0.44;0.02;0.11;0.42999999999999999;1;1.2999520846387895;41;56;27;1;
2019_03_18 10:22;37;4;0;timed;14;29;1;44;51;0;0;0.78000000000000003;0.22;0.0;0.0;74;1;68;82;0.69999999999999996;0.28000000000000003;0.01;0.01;0;1.7999168055912378;41;56;27;1;
2019_03_18 10:22;37;4;0;timed;15;50;1;15;20;0;0;0.82999999999999996;0.17000000000000001;0.0;0.0;97;18;88;87;0.56999999999999995;0.39000000000000001;0.01;0.029999999999999999;1;1.6999189864782238;41;56;27;1;
2019_03_18 10:22;37;4;0;timed;16;4;0;40;43;0;0;0.58999999999999997;0.40999999999999998;0.0;0.0;2;33;88;81;0.69999999999999996;0.14000000000000001;0.13;0.029999999999999999;0;1.699919307196069;41;56;27;1;
2019_03_18 10:22;37;4;0;timed;17;12;0;53;68;0;0;0.31;0.68999999999999995;0.0;0.0;69;54;97;29;0.25;0.20999999999999999;0.20000000000000001;0.34000000000000002;0;1.816623358963625;41;56;27;1;
2019_03_18 10:22;37;4;0;timed;18;7;1;49;29;0;0;0.95999999999999996;0.040000000000000001;0.0;0.0;23;99;64;25;0.68999999999999995;0.12;0.059999999999999998;0.13;0;1.8997850543837558;41;56;27;1;
2019_03_18 10:22;37;4;0;timed;19;46;1;5;19;0;0;0.32000000000000001;0.68000000000000005;0.0;0.0;88;38;97;66;0.60999999999999999;0.20000000000000001;0.040000000000000001;0.14999999999999999;1;2.0667239042495567;41;56;27;1;
2019_03_18 10:22;37;4;0;timed;20;129;1;12;29;81;36;0.17999999999999999;0.79000000000000004;0.01;0.02;5;19;95;92;0.47999999999999998;0.26000000000000001;0.13;0.13;0;3.1998099421489314;41;56;27;1;
2019_03_18 10:22;37;4;0;timed;21;142;1;98;65;64;84;0.88;0.070000000000000007;0.01;0.040000000000000001;5;68;60;16;0.46000000000000002;0.080000000000000002;0.27000000000000002;0.19;0;1.0832585524431124;41;56;27;1;
2019_03_18 10:22;37;4;0;timed;22;68;0;84;27;55;62;0.01;0.050000000000000003;0.40999999999999998;0.53000000000000003;9;82;0;0;0.37;0.63;0.0;0.0;NA;4.033164229097565;41;56;27;1;
2019_03_18 10:22;37;4;0;timed;23;51;1;52;23;43;16;0.60999999999999999;0.20999999999999999;0.01;0.17000000000000001;92;7;0;0;0.14999999999999999;0.84999999999999998;0.0;0.0;0;0.5332267692283494;41;56;27;1;
2019_03_18 10:22;37;4;0;timed;24;133;1;59;88;60;36;0.67000000000000004;0.070000000000000007;0.12;0.14000000000000001;7;91;66;61;0.25;0.68999999999999995;0.01;0.0500000000000001;0;1.4166035385533178;41;56;27;1;
2019_03_18 10:22;37;4;0;timed;25;85;0;31;22;82;50;0.11;0.69999999999999996;0.01;0.17999999999999999;3;99;0;0;0.62;0.38;0.0;0.0;0;1.3666419927149036;41;56;27;1;
2019_03_18 10:22;37;4;0;timed;26;59;1;56;47;83;90;0.31;0.12;0.54000000000000004;0.029999999999999898;10;98;0;0;0.46999999999999997;0.53000000000000003;0.0;0.0;0;0.8832484818785815;41;56;27;1;
2019_03_18 10:22;37;4;0;timed;27;139;0;44;31;16;8;0.79000000000000004;0.070000000000000007;0.13;0.0099999999999999499;92;58;2;88;0.55000000000000004;0.070000000000000007;0.34000000000000002;0.039999999999999897;1;1.6500802758691862;41;56;27;1;
2019_03_18 10:22;37;4;0;timed;28;6;0;9;51;0;0;0.14999999999999999;0.84999999999999998;0.0;0.0;6;40;50;73;0.42999999999999999;0.26000000000000001;0.059999999999999998;0.25;0;2.099891661251604;41;56;27;1;
2019_03_18 10:22;37;4;0;timed;29;48;0;13;32;0;0;0.90000000000000002;0.10000000000000001;0.0;0.0;24;99;84;94;0.62;0.14999999999999999;0.20000000000000001;0.029999999999999999;1;1.1665793242964355;41;56;27;1;
2019_03_18 10:22;37;4;0;timed;30;42;1;70;48;0;0;0.79000000000000004;0.20999999999999999;0.0;0.0;51;8;12;67;0.19;0.26000000000000001;0.28999999999999998;0.26000000000000001;0;1.6332492836754682;41;56;27;1;
2019_03_18 10:22;37;4;0;timed;31;150;1;25;21;78;38;0.84999999999999998;0.059999999999999998;0.050000000000000003;0.040000000000000001;31;43;64;95;0.059999999999999998;0.45000000000000001;0.13;0.35999999999999999;0;1.3499418537148813;41;56;27;1;
2019_03_18 10:22;37;4;0;timed;32;116;1;53;65;43;99;0.56999999999999995;0.37;0.050000000000000003;0.010000000000000101;57;72;11;87;0.67000000000000004;0.13;0.14999999999999999;0.050000000000000003;0;1.1165603698273117;41;56;27;1;
2019_03_18 10:22;37;4;0;timed;33;45;0;97;87;0;0;0.71999999999999997;0.28000000000000003;0.0;0.0;96;11;14;4;0.25;0.029999999999999999;0.14000000000000001;0.57999999999999996;0;1.3999082103327964;41;56;27;1;
2019_03_18 10:22;37;4;0;timed;34;103;0;38;49;89;50;0.89000000000000001;0.070000000000000007;0.01;0.029999999999999999;6;64;99;27;0.70999999999999996;0.17999999999999999;0.059999999999999998;0.050000000000000003;0;1.9498264591575207;41;56;27;1;
2019_03_18 10:22;37;4;0;timed;35;25;1;50;53;0;0;0.82999999999999996;0.17000000000000001;0.0;0.0;83;16;97;4;0.45000000000000001;0.29999999999999999;0.11;0.14000000000000001;0;1.9500333226642397;41;56;27;1;
2019_03_18 10:22;37;4;0;timed;36;20;1;44;40;0;0;0.91000000000000003;0.089999999999999997;0.0;0.0;29;5;80;99;0.25;0.40000000000000002;0.26000000000000001;0.089999999999999997;0;1.266602159462309;41;56;27;1;
2019_03_18 10:22;37;4;0;timed;37;38;1;40;70;0;0;0.53000000000000003;0.46999999999999997;0.0;0.0;97;90;6;96;0.56999999999999995;0.070000000000000007;0.27000000000000002;0.089999999999999997;0;1.1999298909104255;41;56;27;1;
2019_03_18 10:22;37;4;0;timed;38;121;1;42;51;47;70;0.41999999999999998;0.17000000000000001;0.23999999999999999;0.17000000000000001;21;76;48;9;0.14999999999999999;0.34000000000000002;0.40999999999999998;0.10000000000000001;0;1.1499333867441237;41;56;27;1;
2019_03_18 10:22;37;4;0;timed;39;81;1;67;38;52;65;0.27000000000000002;0.35999999999999999;0.01;0.35999999999999999;2;77;0;0;0.14000000000000001;0.85999999999999999;0.0;0.0;0;1.3665727174929998;41;56;27;1;
2019_03_18 10:22;37;4;0;timed;40;91;0;74;81;86;48;0.93000000000000005;0.02;0.01;0.039999999999999897;7;64;0;0;0.13;0.87;0.0;0.0;0;1.4999185374717854;41;56;27;1;
2019_03_18 10:22;37;4;0;timed;41;88;0;77;13;12;7;0.12;0.19;0.66000000000000003;0.029999999999999898;94;2;0;0;0.40999999999999998;0.58999999999999997;0.0;0.0;0;1.3999133418301426;41;56;27;1;
2019_03_18 10:22;37;4;0;timed;42;33;0;27;70;0;0;0.88;0.12;0.0;0.0;93;3;77;16;0.080000000000000002;0.40000000000000002;0.5;0.02;0;1.5332440880338254;41;56;27;1;
2019_03_18 10:22;37;4;0;timed;43;136;1;29;67;14;75;0.46000000000000002;0.29999999999999999;0.20999999999999999;0.0300000000000001;70;86;1;85;0.31;0.39000000000000001;0.27000000000000002;0.029999999999999898;1;2.1499054842242913;41;56;27;1;
2019_03_18 10:22;37;4;0;timed;44;95;0;93;88;68;85;0.83999999999999997;0.14000000000000001;0.01;0.01;2;82;0;0;0.41999999999999998;0.57999999999999996;0.0;0.0;0;2.0832078789017032;41;56;27;1;
2019_03_18 10:22;37;4;0;timed;45;2;0;59;32;0;0;0.080000000000000002;0.92000000000000004;0.0;0.0;33;38;85;1;0.28999999999999998;0.050000000000000003;0.070000000000000007;0.58999999999999997;0;1.2002926236636995;41;56;27;1;
2019_03_18 10:22;37;4;0;timed;46;57;1;52;35;23;47;0.22;0.68000000000000005;0.040000000000000001;0.059999999999999998;71;7;0;0;0.28999999999999998;0.70999999999999996;0.0;0.0;0;2.099914752992845;41;56;27;1;
2019_03_18 10:22;37;4;0;timed;47;114;0;57;39;79;97;0.77000000000000002;0.02;0.13;0.080000000000000002;92;36;6;1;0.54000000000000004;0.12;0.13;0.20999999999999999;1;1.683240335625669;41;56;27;1;
2019_03_18 10:22;37;4;0;timed;48;132;0;27;70;21;19;0.64000000000000001;0.23000000000000001;0.029999999999999999;0.10000000000000001;11;85;55;6;0.39000000000000001;0.46999999999999997;0.029999999999999999;0.11;0;1.4832411694933398;41;56;27;1;
2019_03_18 10:22;37;4;0;timed;49;72;1;63;82;51;61;0.01;0.96999999999999997;0.01;0.01;92;12;0;0;0.89000000000000001;0.11;0.0;0.0;0;1.066589202430805;41;56;27;1;
2019_03_18 10:22;37;4;0;timed;50;96;1;51;54;39;7;0.17000000000000001;0.26000000000000001;0.10000000000000001;0.46999999999999997;24;96;0;0;0.28000000000000003;0.71999999999999997;0.0;0.0;1;1.799933803677959;41;56;27;1;
2019_03_18 10:22;37;4;0;timed;51;70;0;66;55;69;50;0.22;0.29999999999999999;0.29999999999999999;0.17999999999999999;2;90;0;0;0.34000000000000002;0.66000000000000003;0.0;0.0;0;1.8334328630098753;41;56;27;1;
2019_03_18 10:22;37;4;0;timed;52;8;1;50;36;0;0;0.080000000000000002;0.92000000000000004;0.0;0.0;6;19;84;29;0.54000000000000004;0.070000000000000007;0.17000000000000001;0.22;1;2.1000706222384906;41;56;27;1;
2019_03_18 10:22;37;4;0;timed;53;71;0;68;55;36;51;0.20000000000000001;0.75;0.02;0.029999999999999999;38;81;0;0;0.52000000000000002;0.47999999999999998;0.0;0.0;0;1.4832588090175705;41;56;27;1;
2019_03_18 10:22;37;4;0;timed;54;30;1;33;30;0;0;0.71999999999999997;0.28000000000000003;0.0;0.0;9;88;1;14;0.55000000000000004;0.39000000000000001;0.01;0.049999999999999899;0;2.183272407487493;41;56;27;1;
2019_03_18 10:22;37;4;0;timed;55;19;0;22;53;0;0;0.13;0.87;0.0;0.0;4;93;96;65;0.46999999999999997;0.059999999999999998;0.26000000000000001;0.20999999999999999;0;1.333259995676599;41;56;27;1;
2019_03_18 10:22;37;4;0;timed;56;98;0;27;10;31;79;0.23000000000000001;0.67000000000000004;0.070000000000000007;0.029999999999999999;25;99;0;0;0.38;0.62;0.0;0.0;1;1.3000280949509033;41;56;27;1;
2019_03_18 10:22;37;4;0;timed;57;144;0;99;93;90;71;0.65000000000000002;0.32000000000000001;0.01;0.02;97;14;48;73;0.23000000000000001;0.46000000000000002;0.13;0.17999999999999999;1;1.8165681953614694;41;56;27;1;
2019_03_18 10:22;37;4;0;timed;58;41;0;99;40;0;0;0.89000000000000001;0.11;0.0;0.0;1;67;52;46;0.51000000000000001;0.38;0.029999999999999999;0.080000000000000002;0;1.283241682644075;41;56;27;1;
2019_03_18 10:22;37;4;0;timed;59;34;0;32;48;0;0;0.28000000000000003;0.71999999999999997;0.0;0.0;97;83;7;62;0.040000000000000001;0.54000000000000004;0.35999999999999999;0.059999999999999901;1;0.9999095573512022;41;56;27;1;
2019_03_18 10:22;37;4;0;timed;60;135;0;48;60;41;51;0.14000000000000001;0.40000000000000002;0.089999999999999997;0.37;94;1;85;65;0.64000000000000001;0.29999999999999999;0.01;0.050000000000000003;1;1.3833918431000711;41;56;27;1;
2019_03_18 10:22;37;4;0;timed;61;101;0;30;96;61;45;0.65000000000000002;0.14000000000000001;0.11;0.10000000000000001;3;98;63;89;0.75;0.19;0.040000000000000001;0.02;0;1.6832159610112285;41;56;27;1;
2019_03_18 10:22;37;4;0;timed;62;137;0;71;22;28;17;0.25;0.46000000000000002;0.050000000000000003;0.23999999999999999;3;98;92;69;0.42999999999999999;0.23999999999999999;0.20000000000000001;0.13;0;1.6331947615099125;41;56;27;1;
2019_03_18 10:22;37;4;0;timed;63;22;0;32;55;0;0;0.39000000000000001;0.60999999999999999;0.0;0.0;93;72;59;22;0.20000000000000001;0.11;0.14000000000000001;0.55000000000000004;0;1.3999030788345408;41;56;27;1;
2019_03_18 10:22;37;4;0;timed;64;36;0;70;17;0;0;0.33000000000000002;0.67000000000000004;0.0;0.0;84;1;12;88;0.22;0.27000000000000002;0.14000000000000001;0.37;1;1.9332228564608158;41;56;27;1;
2019_03_18 10:22;37;4;0;timed;65;146;0;25;5;64;35;0.94999999999999996;0.02;0.01;0.02;47;97;12;79;0.20999999999999999;0.029999999999999999;0.02;0.73999999999999999;1;2.7166803827331023;41;56;27;1;
2019_03_18 10:22;37;4;0;timed;66;97;0;17;33;32;74;0.94999999999999996;0.01;0.029999999999999999;0.01;76;23;0;0;0.33000000000000002;0.67000000000000004;0.0;0.0;1;1.8332282445335295;41;56;27;1;
2019_03_18 10:22;37;4;0;timed;67;119;0;60;58;11;18;0.25;0.72999999999999998;0.01;0.01;96;23;42;85;0.44;0.48999999999999999;0.059999999999999998;0.010000000000000101;1;1.7000408595522458;41;56;27;1;
2019_03_18 10:22;37;4;0;timed;68;130;0;37;79;23;95;0.94999999999999996;0.029999999999999999;0.01;0.01;94;4;58;49;0.46000000000000002;0.5;0.029999999999999999;0.01;1;2.566531152360767;41;56;27;1;
2019_03_18 10:22;37;4;0;timed;69;134;1;57;48;50;55;0.02;0.62;0.17999999999999999;0.17999999999999999;80;96;15;18;0.23999999999999999;0.35999999999999999;0.33000000000000002;0.070000000000000007;1;2.516554212029405;41;56;27;1;
2019_03_18 10:22;37;4;0;timed;70;76;1;39;62;9;28;0.01;0.51000000000000001;0.26000000000000001;0.22;77;7;0;0;0.57999999999999996;0.41999999999999998;0.0;0.0;1;2.2331787897228423;41;56;27;1;
2019_03_18 10:22;37;4;0;timed;71;10;1;45;62;0;0;0.059999999999999998;0.93999999999999995;0.0;0.0;17;99;28;67;0.58999999999999997;0.34000000000000002;0.01;0.059999999999999998;0;1.6333624973458427;41;56;27;1;
2019_03_18 10:22;37;4;0;timed;72;23;0;54;40;0;0;0.93000000000000005;0.070000000000000007;0.0;0.0;36;23;71;86;0.02;0.41999999999999998;0.19;0.37;0;2.1999032712656117;41;56;27;1;
2019_03_18 10:22;37;4;0;timed;73;61;0;43;18;39;70;0.75;0.089999999999999997;0.089999999999999997;0.070000000000000007;16;66;0;0;0.64000000000000001;0.35999999999999999;0.0;0.0;0;1.5666042762059078;41;56;27;1;
2019_03_18 10:22;37;4;0;timed;74;75;0;67;80;36;81;0.81999999999999995;0.080000000000000002;0.059999999999999998;0.040000000000000001;3;97;0;0;0.32000000000000001;0.68000000000000005;0.0;0.0;0;1.4999162924414122;41;56;27;1;
2019_03_18 10:22;37;4;0;timed;75;78;1;74;36;34;3;0.14999999999999999;0.64000000000000001;0.13;0.080000000000000002;1;83;0;0;0.41999999999999998;0.57999999999999996;0.0;0.0;0;2.466574705948915;41;56;27;1;
