date;id;block;order;cond;trial;gameid;leftright;oa1;oa2;oa3;oa4;pa1;pa2;pa3;pa4;ob1;ob2;ob3;ob4;pb1;pb2;pb3;pb4;choice;rt;paytrial;payout;alter;geschlecht;comment
2019_02_22 08:58;1;0;0;practice;1;12;1;45;86;0;0;0.97999999999999998;0.02;0.0;0.0;6;23;95;81;0.14999999999999999;0.40999999999999998;0.050000000000000003;0.39000000000000001;1;10.116537373137362;34;90;36;2; nein
2019_02_22 08:58;1;0;0;practice;2;43;0;11;17;21;44;0.16;0.46000000000000002;0.25;0.13;2;66;0;0;0.44;0.56000000000000005;0.0;0.0;1;5.049956043300426;34;90;36;2; nein
2019_02_22 08:58;1;0;0;practice;3;25;1;7;18;0;0;0.20999999999999999;0.79000000000000004;0.0;0.0;92;45;33;13;0.41999999999999998;0.17999999999999999;0.22;0.17999999999999999;1;4.833254165302151;34;90;36;2; nein
2019_02_22 08:58;1;0;0;practice;4;27;0;68;43;98;36;0.54000000000000004;0.44;0.01;0.0099999999999999603;97;13;0;0;0.27000000000000002;0.72999999999999998;0.0;0.0;0;10.700064243173301;34;90;36;2; nein
2019_02_22 08:58;1;0;0;practice;5;69;1;38;74;27;73;0.22;0.19;0.45000000000000001;0.14000000000000001;1;97;79;84;0.28000000000000003;0.45000000000000001;0.17000000000000001;0.10000000000000001;1;9.133434963489208;34;90;36;2; nein
2019_02_22 08:58;1;0;0;practice;6;55;1;53;11;80;74;0.31;0.37;0.28000000000000003;0.039999999999999897;6;93;98;96;0.69999999999999996;0.22;0.050000000000000003;0.029999999999999999;0;7.416630610733591;34;90;36;2; nein
2019_02_22 08:58;1;0;0;practice;7;63;1;24;82;6;96;0.91000000000000003;0.070000000000000007;0.01;0.0099999999999999603;73;10;71;22;0.31;0.51000000000000001;0.050000000000000003;0.13;1;7.733301345386053;34;90;36;2; nein
2019_02_22 08:58;1;0;0;practice;8;32;0;21;86;16;78;0.45000000000000001;0.41999999999999998;0.050000000000000003;0.080000000000000099;95;9;0;0;0.42999999999999999;0.56999999999999995;0.0;0.0;1;5.933310582547392;34;90;36;2; nein
2019_02_22 08:58;1;0;0;practice;9;9;1;57;44;0;0;0.14999999999999999;0.84999999999999998;0.0;0.0;38;35;64;95;0.34000000000000002;0.45000000000000001;0.089999999999999997;0.12;0;6.033333643377091;34;90;36;2; nein
2019_02_22 08:58;1;0;0;practice;10;20;0;32;11;0;0;0.40999999999999998;0.58999999999999997;0.0;0.0;1;86;42;65;0.45000000000000001;0.38;0.050000000000000003;0.12;1;7.1664902090901705;34;90;36;2; nein
2019_02_22 08:58;1;0;0;practice;11;52;1;17;61;57;59;0.070000000000000007;0.050000000000000003;0.33000000000000002;0.55000000000000004;12;93;94;62;0.71999999999999997;0.16;0.080000000000000002;0.040000000000000001;0;6.733289798934493;34;90;36;2; nein
2019_02_22 08:58;1;0;0;practice;12;59;0;13;27;48;51;0.56999999999999995;0.13;0.13;0.17000000000000001;8;37;97;1;0.65000000000000002;0.16;0.14999999999999999;0.040000000000000001;1;12.933250925881111;34;90;36;2; nein
2019_02_22 08:58;1;0;0;practice;13;5;0;23;58;0;0;0.71999999999999997;0.28000000000000003;0.0;0.0;94;12;52;3;0.11;0.84999999999999998;0.029999999999999999;0.01;0;5.666614173076823;34;90;36;2; nein
2019_02_22 08:58;1;0;0;practice;14;15;0;24;59;0;0;0.56999999999999995;0.42999999999999999;0.0;0.0;9;8;80;22;0.31;0.10000000000000001;0.55000000000000004;0.039999999999999897;1;3.9832608526219246;34;90;36;2; nein
2019_02_22 08:58;1;0;0;practice;15;51;0;38;13;51;84;0.91000000000000003;0.070000000000000007;0.01;0.0099999999999999603;4;89;35;16;0.80000000000000004;0.089999999999999997;0.059999999999999998;0.050000000000000003;0;6.766633064354437;34;90;36;2; nein
2019_02_22 08:58;1;0;0;practice;16;1;1;67;36;0;0;0.14999999999999999;0.84999999999999998;0.0;0.0;1;4;81;77;0.25;0.54000000000000004;0.14000000000000001;0.070000000000000007;0;5.8668777529064755;34;90;36;2; nein
2019_02_22 08:58;1;0;0;practice;17;7;0;13;31;0;0;0.51000000000000001;0.48999999999999999;0.0;0.0;8;79;42;18;0.85999999999999999;0.089999999999999997;0.02;0.029999999999999999;0;5.7332971758341955;34;90;36;2; nein
2019_02_22 08:58;1;0;0;practice;18;26;0;24;46;74;59;0.29999999999999999;0.11;0.25;0.34000000000000002;91;6;0;0;0.28999999999999998;0.70999999999999996;0.0;0.0;1;9.899910226339443;34;90;36;2; nein
2019_02_22 08:58;1;0;0;practice;19;75;1;21;86;27;62;0.88;0.040000000000000001;0.070000000000000007;0.0099999999999999794;13;3;49;87;0.28999999999999998;0.39000000000000001;0.070000000000000007;0.25;0;7.933369918478775;34;90;36;2; nein
2019_02_22 08:58;1;0;0;practice;20;66;1;44;18;63;36;0.47999999999999998;0.10000000000000001;0.029999999999999999;0.39000000000000001;13;93;61;53;0.52000000000000002;0.45000000000000001;0.02;0.0099999999999999707;1;8.349918421112534;34;90;36;2; nein
2019_02_22 08:58;1;0;0;practice;21;3;0;20;70;0;0;0.13;0.87;0.0;0.0;95;19;80;73;0.31;0.57999999999999996;0.029999999999999999;0.080000000000000002;0;4.400077810253833;34;90;36;2; nein
2019_02_22 08:58;1;0;0;practice;22;71;1;94;87;26;75;0.71999999999999997;0.23999999999999999;0.02;0.02;90;27;12;83;0.16;0.73999999999999999;0.02;0.080000000000000002;0;4.483321631860008;34;90;36;2; nein
2019_02_22 08:58;1;0;0;practice;23;18;1;47;36;0;0;0.089999999999999997;0.91000000000000003;0.0;0.0;2;44;81;9;0.20000000000000001;0.25;0.51000000000000001;0.040000000000000001;1;4.083439790547345;34;90;36;2; nein
2019_02_22 08:58;1;0;0;practice;24;24;0;19;38;0;0;0.89000000000000001;0.11;0.0;0.0;45;76;95;57;0.29999999999999999;0.22;0.40000000000000002;0.080000000000000002;1;5.783465866283905;34;90;36;2; nein
2019_02_22 08:58;1;0;0;practice;25;22;0;84;87;0;0;0.17000000000000001;0.82999999999999996;0.0;0.0;3;24;41;83;0.68000000000000005;0.11;0.10000000000000001;0.11;0;2.7834382830940285;34;90;36;2; nein
2019_02_22 08:58;1;0;0;practice;26;31;1;72;59;40;92;0.59999999999999998;0.34999999999999998;0.02;0.029999999999999999;97;29;0;0;0.38;0.62;0.0;0.0;0;4.433403755996551;34;90;36;2; nein
2019_02_22 08:58;1;0;0;practice;27;13;1;15;25;0;0;0.29999999999999999;0.69999999999999996;0.0;0.0;3;43;35;73;0.44;0.40000000000000002;0.01;0.14999999999999999;0;6.266653431011946;34;90;36;2; nein
2019_02_22 08:58;1;0;0;practice;28;41;1;19;54;51;8;0.76000000000000001;0.070000000000000007;0.16;0.0099999999999999794;2;77;0;0;0.54000000000000004;0.46000000000000002;0.0;0.0;1;6.583307808191648;34;90;36;2; nein
2019_02_22 08:58;1;0;0;practice;29;44;0;69;48;22;63;0.39000000000000001;0.40999999999999998;0.19;0.01;1;94;0;0;0.22;0.78000000000000003;0.0;0.0;1;3.3166537357101333;34;90;36;2; nein
2019_02_22 08:58;1;0;0;practice;30;70;1;21;42;14;63;0.96999999999999997;0.01;0.01;0.01;70;2;6;76;0.23999999999999999;0.42999999999999999;0.01;0.32000000000000001;0;5.733587761530998;34;90;36;2; nein
2019_02_22 08:58;1;0;0;practice;31;39;1;53;65;48;75;0.92000000000000004;0.029999999999999999;0.01;0.040000000000000001;16;83;0;0;0.31;0.68999999999999995;0.0;0.0;1;6.500130378681888;34;90;36;2; nein
2019_02_22 08:58;1;0;0;practice;32;72;1;86;85;97;43;0.51000000000000001;0.14999999999999999;0.33000000000000002;0.0099999999999999499;72;29;10;90;0.01;0.11;0.65000000000000002;0.23000000000000001;0;5.250032634762192;34;90;36;2; nein
2019_02_22 08:58;1;0;0;practice;33;11;1;10;44;0;0;0.48999999999999999;0.51000000000000001;0.0;0.0;88;12;54;50;0.17000000000000001;0.75;0.02;0.059999999999999998;0;6.666629889080468;34;90;36;2; nein
2019_02_22 08:58;1;0;0;practice;34;4;0;40;59;0;0;0.19;0.81000000000000005;0.0;0.0;10;88;13;45;0.56000000000000005;0.28999999999999998;0.01;0.14000000000000001;0;4.366679378454592;34;90;36;2; nein
2019_02_22 08:58;1;0;0;practice;35;68;0;39;58;40;8;0.48999999999999999;0.44;0.02;0.050000000000000003;92;83;51;2;0.57999999999999996;0.13;0.02;0.27000000000000002;1;4.183297993707811;34;90;36;2; nein
2019_02_22 08:58;1;0;0;practice;36;17;1;27;61;0;0;0.68999999999999995;0.31;0.0;0.0;3;91;69;43;0.29999999999999999;0.33000000000000002;0.27000000000000002;0.099999999999999895;1;5.966629472125078;34;90;36;2; nein
2019_02_22 08:58;1;0;0;practice;37;53;1;47;24;95;38;0.57999999999999996;0.28000000000000003;0.02;0.12;8;22;93;96;0.54000000000000004;0.34000000000000002;0.10000000000000001;0.0199999999999999;0;8.133402248543234;34;90;36;2; nein
2019_02_22 08:58;1;0;0;practice;38;21;1;59;69;0;0;0.34000000000000002;0.66000000000000003;0.0;0.0;64;18;5;24;0.14999999999999999;0.040000000000000001;0.51000000000000001;0.29999999999999999;0;2.866775759251368;34;90;36;2; nein
2019_02_22 08:58;1;0;0;practice;39;2;1;41;60;0;0;0.97999999999999998;0.02;0.0;0.0;10;14;97;6;0.54000000000000004;0.17000000000000001;0.12;0.17000000000000001;0;2.883417403260637;34;90;36;2; nein
2019_02_22 08:58;1;0;0;practice;40;54;1;69;80;22;55;0.27000000000000002;0.31;0.059999999999999998;0.35999999999999999;52;2;49;90;0.059999999999999998;0.33000000000000002;0.20000000000000001;0.40999999999999998;0;6.399990570398131;34;90;36;2; nein
2019_02_22 08:58;1;0;0;practice;41;40;0;29;65;30;41;0.70999999999999996;0.01;0.14999999999999999;0.13;2;59;0;0;0.32000000000000001;0.68000000000000005;0.0;0.0;0;3.6834476164756325;34;90;36;2; nein
2019_02_22 08:58;1;0;0;practice;42;46;1;79;57;98;81;0.67000000000000004;0.070000000000000007;0.20999999999999999;0.050000000000000003;1;76;0;0;0.56000000000000005;0.44;0.0;0.0;0;3.2332912422409663;34;90;36;2; nein
2019_02_22 08:58;1;0;0;practice;43;67;0;74;31;10;77;0.11;0.070000000000000007;0.77000000000000002;0.050000000000000003;2;23;8;97;0.56999999999999995;0.01;0.059999999999999998;0.35999999999999999;0;5.866583318392259;34;90;36;2; nein
2019_02_22 08:58;1;0;0;practice;44;48;0;20;25;24;35;0.32000000000000001;0.13;0.48999999999999999;0.059999999999999901;44;76;0;0;0.29999999999999999;0.69999999999999996;0.0;0.0;1;2.6666526612486905;34;90;36;2; nein
2019_02_22 08:58;1;0;0;practice;45;23;0;99;93;0;0;0.57999999999999996;0.41999999999999998;0.0;0.0;64;10;80;81;0.13;0.55000000000000004;0.02;0.29999999999999999;0;3.9664963671978057;34;90;36;2; nein
2019_02_22 08:58;1;0;0;practice;46;60;1;39;93;27;78;0.85999999999999999;0.02;0.11;0.01;22;5;62;95;0.059999999999999998;0.56999999999999995;0.14000000000000001;0.23000000000000001;0;2.749961271277243;34;90;36;2; nein
2019_02_22 08:58;1;0;0;practice;47;35;0;84;95;4;35;0.89000000000000001;0.050000000000000003;0.01;0.050000000000000003;5;98;0;0;0.19;0.81000000000000005;0.0;0.0;1;3.0335049157413323;34;90;36;2; nein
2019_02_22 08:58;1;0;0;practice;48;19;1;25;73;0;0;0.69999999999999996;0.29999999999999999;0.0;0.0;87;84;1;86;0.040000000000000001;0.59999999999999998;0.28000000000000003;0.080000000000000002;1;3.7666179898205883;34;90;36;2; nein
2019_02_22 08:58;1;0;0;practice;49;10;1;34;59;0;0;0.16;0.83999999999999997;0.0;0.0;21;61;96;7;0.19;0.01;0.5;0.29999999999999999;0;4.31663673676735;34;90;36;2; nein
2019_02_22 08:58;1;0;0;practice;50;36;1;56;89;86;77;0.66000000000000003;0.080000000000000002;0.14999999999999999;0.11;29;91;0;0;0.40999999999999998;0.58999999999999997;0.0;0.0;1;4.383250460815589;34;90;36;2; nein
2019_02_22 08:58;1;0;0;practice;51;61;1;51;48;56;88;0.91000000000000003;0.02;0.01;0.059999999999999998;78;21;14;82;0.55000000000000004;0.29999999999999999;0.070000000000000007;0.080000000000000002;0;4.033285853896814;34;90;36;2; nein
2019_02_22 08:58;1;0;0;practice;52;73;1;99;88;95;28;0.83999999999999997;0.14000000000000001;0.01;0.01;90;93;10;74;0.080000000000000002;0.46000000000000002;0.34999999999999998;0.11;0;3.6167748772306823;34;90;36;2; nein
2019_02_22 08:58;1;0;0;practice;53;42;1;23;45;91;22;0.72999999999999998;0.02;0.20000000000000001;0.050000000000000003;2;86;0;0;0.40999999999999998;0.58999999999999997;0.0;0.0;1;3.699971871561047;34;90;36;2; nein
2019_02_22 08:58;1;0;0;practice;54;16;1;50;42;0;0;0.32000000000000001;0.68000000000000005;0.0;0.0;97;2;56;31;0.35999999999999999;0.16;0.16;0.32000000000000001;0;5.133334252773011;34;90;36;2; nein
2019_02_22 08:58;1;0;0;practice;55;34;1;57;23;66;79;0.56000000000000005;0.23000000000000001;0.13;0.079999999999999905;85;9;0;0;0.56000000000000005;0.44;0.0;0.0;1;5.566733197747908;34;90;36;2; nein
2019_02_22 08:58;1;0;0;practice;56;64;0;44;60;96;45;0.53000000000000003;0.10000000000000001;0.029999999999999999;0.34000000000000002;88;20;43;31;0.47999999999999998;0.38;0.050000000000000003;0.089999999999999997;1;10.183373687112407;34;90;36;2; nein
2019_02_22 08:58;1;0;0;practice;57;38;0;51;89;10;60;0.57999999999999996;0.029999999999999999;0.080000000000000002;0.31;8;84;0;0;0.33000000000000002;0.67000000000000004;0.0;0.0;1;2.9499576790476567;34;90;36;2; nein
2019_02_22 08:58;1;0;0;practice;58;33;1;54;82;55;71;0.56000000000000005;0.20999999999999999;0.02;0.20999999999999999;13;99;0;0;0.5;0.5;0.0;0.0;1;5.933461327886789;34;90;36;2; nein
2019_02_22 08:58;1;0;0;practice;59;65;1;35;15;77;1;0.62;0.33000000000000002;0.029999999999999999;0.02;68;3;25;96;0.38;0.28000000000000003;0.28000000000000003;0.059999999999999901;0;8.09992363305264;34;90;36;2; nein
2019_02_22 08:58;1;0;0;practice;60;56;0;47;52;64;10;0.77000000000000002;0.040000000000000001;0.11;0.080000000000000002;1;5;12;99;0.14000000000000001;0.28999999999999998;0.27000000000000002;0.29999999999999999;0;4.316613964599128;34;90;36;2; nein
2019_02_22 08:58;1;0;0;practice;61;28;0;37;83;75;8;0.83999999999999997;0.070000000000000007;0.01;0.080000000000000002;94;2;0;0;0.19;0.81000000000000005;0.0;0.0;0;4.3332809466551225;34;90;36;2; nein
2019_02_22 08:58;1;0;0;practice;62;8;1;20;44;0;0;0.26000000000000001;0.73999999999999999;0.0;0.0;99;3;69;24;0.20999999999999999;0.60999999999999999;0.12;0.060000000000000102;0;5.233320108369753;34;90;36;2; nein
2019_02_22 08:58;1;0;0;practice;63;29;0;66;40;92;49;0.46999999999999997;0.10000000000000001;0.34000000000000002;0.089999999999999997;8;94;0;0;0.44;0.56000000000000005;0.0;0.0;1;5.13326112524669;34;90;36;2; nein
2019_02_22 08:58;1;0;0;practice;64;50;0;17;12;21;14;0.55000000000000004;0.34000000000000002;0.059999999999999998;0.049999999999999899;13;93;0;0;0.28999999999999998;0.70999999999999996;0.0;0.0;1;2.6668034065880875;34;90;36;2; nein
2019_02_22 08:58;1;0;0;practice;65;14;1;92;56;0;0;0.11;0.89000000000000001;0.0;0.0;97;31;51;4;0.58999999999999997;0.22;0.080000000000000002;0.11;0;4.800082172246675;34;90;36;2; nein
2019_02_22 08:58;1;0;0;practice;66;47;0;91;99;90;78;0.93000000000000005;0.040000000000000001;0.02;0.0099999999999999499;10;87;0;0;0.23000000000000001;0.77000000000000002;0.0;0.0;0;3.4003908473846423;34;90;36;2; nein
2019_02_22 08:58;1;0;0;practice;67;45;0;37;40;75;23;0.54000000000000004;0.38;0.059999999999999998;0.02;1;90;0;0;0.28000000000000003;0.71999999999999997;0.0;0.0;1;3.366700867683676;34;90;36;2; nein
2019_02_22 08:58;1;0;0;practice;68;62;1;65;52;74;55;0.16;0.12;0.14999999999999999;0.56999999999999995;72;86;2;68;0.12;0.53000000000000003;0.22;0.13;0;5.733493465510264;34;90;36;2; nein
2019_02_22 08:58;1;0;0;practice;69;74;0;36;46;10;12;0.11;0.19;0.65000000000000002;0.049999999999999899;92;24;79;19;0.51000000000000001;0.40999999999999998;0.02;0.059999999999999998;1;9.74995196996906;34;90;36;2; nein
2019_02_22 08:58;1;0;0;practice;70;6;1;42;59;0;0;0.35999999999999999;0.64000000000000001;0.0;0.0;77;19;6;7;0.44;0.14999999999999999;0.17999999999999999;0.23000000000000001;0;4.983347130273842;34;90;36;2; nein
2019_02_22 08:58;1;0;0;practice;71;57;0;39;68;59;91;0.73999999999999999;0.040000000000000001;0.14999999999999999;0.070000000000000007;9;22;40;84;0.29999999999999999;0.32000000000000001;0.040000000000000001;0.34000000000000002;1;5.416771734029908;34;90;36;2; nein
2019_02_22 08:58;1;0;0;practice;72;49;0;14;31;42;22;0.77000000000000002;0.089999999999999997;0.02;0.12;87;28;0;0;0.68000000000000005;0.32000000000000001;0.0;0.0;1;5.466787433996842;34;90;36;2; nein
2019_02_22 08:58;1;0;0;practice;73;58;0;44;50;85;42;0.38;0.57999999999999996;0.02;0.02;37;88;19;12;0.20000000000000001;0.29999999999999999;0.46000000000000002;0.040000000000000001;0;6.6667594659252245;34;90;36;2; nein
2019_02_22 08:58;1;0;0;practice;74;30;0;54;78;85;25;0.20999999999999999;0.60999999999999999;0.089999999999999997;0.090000000000000094;87;20;0;0;0.58999999999999997;0.40999999999999998;0.0;0.0;0;5.733259970601466;34;90;36;2; nein
2019_02_22 08:58;1;0;0;practice;75;37;1;50;66;99;12;0.26000000000000001;0.71999999999999997;0.01;0.01;22;90;0;0;0.37;0.63;0.0;0.0;0;6.566745706403708;34;90;36;2; nein
2019_02_22 08:58;1;1;0;control;1;144;1;99;93;90;71;0.65000000000000002;0.32000000000000001;0.01;0.02;97;14;48;73;0.23000000000000001;0.46000000000000002;0.13;0.17999999999999999;0;3.513070102035499;34;90;36;2; nein
2019_02_22 08:58;1;1;0;control;2;58;0;37;58;76;34;0.20999999999999999;0.57999999999999996;0.19;0.020000000000000101;86;5;0;0;0.47999999999999998;0.52000000000000002;0.0;0.0;1;4.633426143283259;34;90;36;2; nein
2019_02_22 08:58;1;1;0;control;3;121;1;42;51;47;70;0.41999999999999998;0.17000000000000001;0.23999999999999999;0.17000000000000001;21;76;48;9;0.14999999999999999;0.34000000000000002;0.40999999999999998;0.10000000000000001;0;7.333285757676549;34;90;36;2; nein
2019_02_22 08:58;1;1;0;control;4;100;1;27;14;59;52;0.02;0.95999999999999996;0.01;0.01;17;98;0;0;0.48999999999999999;0.51000000000000001;0.0;0.0;1;6.133230655443867;34;90;36;2; nein
2019_02_22 08:58;1;1;0;control;5;118;1;62;52;65;68;0.40999999999999998;0.44;0.10000000000000001;0.0500000000000001;79;20;14;37;0.56999999999999995;0.23999999999999999;0.14000000000000001;0.050000000000000003;1;4.783352005442339;34;90;36;2; nein
2019_02_22 08:58;1;1;0;control;6;11;0;17;36;0;0;0.14000000000000001;0.85999999999999999;0.0;0.0;19;41;34;95;0.88;0.02;0.050000000000000003;0.050000000000000003;0;5.716628590104392;34;90;36;2; nein
2019_02_22 08:58;1;1;0;control;7;92;1;90;86;65;94;0.16;0.34000000000000002;0.28000000000000003;0.22;79;22;0;0;0.35999999999999999;0.64000000000000001;0.0;0.0;0;8.41665594878009;34;90;36;2; nein
2019_02_22 08:58;1;1;0;control;8;126;0;16;55;51;42;0.68999999999999995;0.23999999999999999;0.01;0.060000000000000102;66;4;1;5;0.46999999999999997;0.38;0.089999999999999997;0.059999999999999998;1;6.583335070646626;34;90;36;2; nein
2019_02_22 08:58;1;1;0;control;9;142;1;98;65;64;84;0.88;0.070000000000000007;0.01;0.040000000000000001;5;68;60;16;0.46000000000000002;0.080000000000000002;0.27000000000000002;0.19;0;3.9667696332171545;34;90;36;2; nein
2019_02_22 08:58;1;1;0;control;10;129;0;12;29;81;36;0.17999999999999999;0.79000000000000004;0.01;0.02;5;19;95;92;0.47999999999999998;0.26000000000000001;0.13;0.13;0;5.899981108722159;34;90;36;2; nein
2019_02_22 08:58;1;1;0;control;11;37;0;14;98;0;0;0.93000000000000005;0.070000000000000007;0.0;0.0;41;2;87;66;0.17999999999999999;0.48999999999999999;0.32000000000000001;0.010000000000000101;0;11.46662963249264;34;90;36;2; nein
2019_02_22 08:58;1;1;0;control;12;89;0;26;41;13;56;0.059999999999999998;0.40999999999999998;0.050000000000000003;0.47999999999999998;5;97;0;0;0.37;0.63;0.0;0.0;1;6.749921500166238;34;90;36;2; nein
2019_02_22 08:58;1;1;0;control;13;17;1;81;52;0;0;0.059999999999999998;0.93999999999999995;0.0;0.0;34;3;69;41;0.01;0.22;0.75;0.02;1;5.383259762123771;34;90;36;2; nein
2019_02_22 08:58;1;1;0;control;14;74;1;66;47;52;44;0.41999999999999998;0.26000000000000001;0.17999999999999999;0.14000000000000001;17;99;0;0;0.47999999999999998;0.52000000000000002;0.0;0.0;1;3.7332840257088264;34;90;36;2; nein
2019_02_22 08:58;1;1;0;control;15;19;1;22;53;0;0;0.13;0.87;0.0;0.0;4;93;96;65;0.46999999999999997;0.059999999999999998;0.26000000000000001;0.20999999999999999;0;5.116717946810013;34;90;36;2; nein
2019_02_22 08:58;1;1;0;control;16;5;1;70;5;0;0;0.98999999999999999;0.01;0.0;0.0;92;87;47;1;0.44;0.02;0.16;0.38;0;4.050322963871395;34;90;36;2; nein
2019_02_22 08:58;1;1;0;control;17;38;0;40;70;0;0;0.53000000000000003;0.46999999999999997;0.0;0.0;97;90;6;96;0.56999999999999995;0.070000000000000007;0.27000000000000002;0.089999999999999997;1;6.549960693954517;34;90;36;2; nein
2019_02_22 08:58;1;1;0;control;18;59;1;56;47;83;90;0.31;0.12;0.54000000000000004;0.029999999999999898;10;98;0;0;0.46999999999999997;0.53000000000000003;0.0;0.0;1;4.566582452408738;34;90;36;2; nein
2019_02_22 08:58;1;1;0;control;19;21;0;64;28;0;0;0.080000000000000002;0.92000000000000004;0.0;0.0;50;1;88;13;0.57999999999999996;0.13;0.02;0.27000000000000002;1;5.016606363185247;34;90;36;2; nein
2019_02_22 08:58;1;1;0;control;20;60;1;64;59;57;96;0.83999999999999997;0.13;0.02;0.01;83;6;0;0;0.54000000000000004;0.46000000000000002;0.0;0.0;0;1.633313886115502;34;90;36;2; nein
2019_02_22 08:58;1;1;0;control;21;42;0;70;48;0;0;0.79000000000000004;0.20999999999999999;0.0;0.0;51;8;12;67;0.19;0.26000000000000001;0.28999999999999998;0.26000000000000001;0;6.249992222181845;34;90;36;2; nein
2019_02_22 08:58;1;1;0;control;22;12;1;53;68;0;0;0.31;0.68999999999999995;0.0;0.0;69;54;97;29;0.25;0.20999999999999999;0.20000000000000001;0.34000000000000002;0;4.800011931333302;34;90;36;2; nein
2019_02_22 08:58;1;1;0;control;23;62;1;12;45;16;50;0.20999999999999999;0.76000000000000001;0.02;0.01;92;15;0;0;0.20999999999999999;0.79000000000000004;0.0;0.0;0;6.999919174839306;34;90;36;2; nein
2019_02_22 08:58;1;1;0;control;24;6;0;9;51;0;0;0.14999999999999999;0.84999999999999998;0.0;0.0;6;40;50;73;0.42999999999999999;0.26000000000000001;0.059999999999999998;0.25;0;4.5165917697536315;34;90;36;2; nein
2019_02_22 08:58;1;1;0;control;25;56;0;28;84;37;41;0.68000000000000005;0.28000000000000003;0.02;0.0199999999999999;6;95;0;0;0.72999999999999998;0.27000000000000002;0.0;0.0;0;4.466931123171435;34;90;36;2; nein
2019_02_22 08:58;1;1;0;control;26;25;1;50;53;0;0;0.82999999999999996;0.17000000000000001;0.0;0.0;83;16;97;4;0.45000000000000001;0.29999999999999999;0.11;0.14000000000000001;1;7.200127588289433;34;90;36;2; nein
2019_02_22 08:58;1;1;0;control;27;123;1;26;24;51;92;0.72999999999999998;0.16;0.070000000000000007;0.040000000000000001;6;90;82;49;0.64000000000000001;0.25;0.050000000000000003;0.059999999999999998;0;5.550050178953825;34;90;36;2; nein
2019_02_22 08:58;1;1;0;control;28;61;1;43;18;39;70;0.75;0.089999999999999997;0.089999999999999997;0.070000000000000007;16;66;0;0;0.64000000000000001;0.35999999999999999;0.0;0.0;0;4.433223182324127;34;90;36;2; nein
2019_02_22 08:58;1;1;0;control;29;122;1;35;58;25;31;0.81999999999999995;0.070000000000000007;0.080000000000000002;0.029999999999999999;18;64;68;89;0.63;0.17000000000000001;0.11;0.089999999999999997;0;6.216749346743654;34;90;36;2; nein
2019_02_22 08:58;1;1;0;control;30;41;0;99;40;0;0;0.89000000000000001;0.11;0.0;0.0;1;67;52;46;0.51000000000000001;0.38;0.029999999999999999;0.080000000000000002;0;4.2332736018288415;34;90;36;2; nein
2019_02_22 08:58;1;1;0;control;31;51;1;52;23;43;16;0.60999999999999999;0.20999999999999999;0.01;0.17000000000000001;92;7;0;0;0.14999999999999999;0.84999999999999998;0.0;0.0;0;3.5667492344864513;34;90;36;2; nein
2019_02_22 08:58;1;1;0;control;32;117;1;65;85;92;41;0.23000000000000001;0.17999999999999999;0.54000000000000004;0.050000000000000003;99;93;10;13;0.64000000000000001;0.16;0.01;0.19;1;2.85009594780513;34;90;36;2; nein
2019_02_22 08:58;1;1;0;control;33;34;1;32;48;0;0;0.28000000000000003;0.71999999999999997;0.0;0.0;97;83;7;62;0.040000000000000001;0.54000000000000004;0.35999999999999999;0.059999999999999901;0;3.316820197052948;34;90;36;2; nein
2019_02_22 08:58;1;1;0;control;34;7;0;49;29;0;0;0.95999999999999996;0.040000000000000001;0.0;0.0;23;99;64;25;0.68999999999999995;0.12;0.059999999999999998;0.13;0;3.1665889953978876;34;90;36;2; nein
2019_02_22 08:58;1;1;0;control;35;76;1;39;62;9;28;0.01;0.51000000000000001;0.26000000000000001;0.22;77;7;0;0;0.57999999999999996;0.41999999999999998;0.0;0.0;1;3.066622383887079;34;90;36;2; nein
2019_02_22 08:58;1;1;0;control;36;44;0;79;74;0;0;0.71999999999999997;0.28000000000000003;0.0;0.0;3;67;15;36;0.41999999999999998;0.53000000000000003;0.02;0.029999999999999999;1;2.6667857661759626;34;90;36;2; nein
2019_02_22 08:58;1;1;0;control;37;139;0;44;31;16;8;0.79000000000000004;0.070000000000000007;0.13;0.0099999999999999499;92;58;2;88;0.55000000000000004;0.070000000000000007;0.34000000000000002;0.039999999999999897;1;5.333414372317293;34;90;36;2; nein
2019_02_22 08:58;1;1;0;control;38;82;0;78;66;30;27;0.28999999999999998;0.58999999999999997;0.080000000000000002;0.040000000000000001;90;6;0;0;0.82999999999999996;0.17000000000000001;0.0;0.0;1;2.5667354428915132;34;90;36;2; nein
2019_02_22 08:58;1;1;0;control;39;124;0;37;65;15;41;0.17999999999999999;0.45000000000000001;0.02;0.34999999999999998;40;7;98;30;0.070000000000000007;0.45000000000000001;0.45000000000000001;0.029999999999999898;1;4.566767516368145;34;90;36;2; nein
2019_02_22 08:58;1;1;0;control;40;1;0;22;51;0;0;0.26000000000000001;0.73999999999999999;0.0;0.0;14;11;92;31;0.29999999999999999;0.40999999999999998;0.14999999999999999;0.14000000000000001;0;3.8666083357043135;34;90;36;2; nein
2019_02_22 08:58;1;1;0;control;41;16;0;64;53;0;0;0.65000000000000002;0.34999999999999998;0.0;0.0;29;17;81;46;0.10000000000000001;0.01;0.44;0.45000000000000001;0;2.9666426222506743;34;90;36;2; nein
2019_02_22 08:58;1;1;0;control;42;108;1;48;72;39;70;0.14000000000000001;0.66000000000000003;0.02;0.17999999999999999;81;44;98;8;0.59999999999999998;0.029999999999999999;0.050000000000000003;0.32000000000000001;0;7.000073768996117;34;90;36;2; nein
2019_02_22 08:58;1;1;0;control;43;27;1;44;26;0;0;0.35999999999999999;0.64000000000000001;0.0;0.0;63;10;3;5;0.58999999999999997;0.19;0.14999999999999999;0.070000000000000007;1;5.400130731490208;34;90;36;2; nein
2019_02_22 08:58;1;1;0;control;44;86;0;56;30;57;88;0.20000000000000001;0.35999999999999999;0.080000000000000002;0.35999999999999999;98;2;0;0;0.77000000000000002;0.23000000000000001;0.0;0.0;1;3.5333196914148175;34;90;36;2; nein
2019_02_22 08:58;1;1;0;control;45;107;0;52;48;13;63;0.68000000000000005;0.19;0.050000000000000003;0.079999999999999905;54;91;33;3;0.19;0.17999999999999999;0.33000000000000002;0.29999999999999999;0;3.8834546084935937;34;90;36;2; nein
2019_02_22 08:58;1;1;0;control;46;147;0;39;43;76;28;0.14000000000000001;0.10000000000000001;0.10000000000000001;0.66000000000000003;6;31;68;85;0.27000000000000002;0.20000000000000001;0.22;0.31;0;3.500079061119777;34;90;36;2; nein
2019_02_22 08:58;1;1;0;control;47;133;1;59;88;60;36;0.67000000000000004;0.070000000000000007;0.12;0.14000000000000001;7;91;66;61;0.25;0.68999999999999995;0.01;0.0500000000000001;1;5.466592427259911;34;90;36;2; nein
2019_02_22 08:58;1;1;0;control;48;115;0;50;28;61;79;0.83999999999999997;0.040000000000000001;0.059999999999999998;0.059999999999999998;1;26;97;55;0.45000000000000001;0.080000000000000002;0.40999999999999998;0.060000000000000102;0;4.6999975303424435;34;90;36;2; nein
2019_02_22 08:58;1;1;0;control;49;130;1;37;79;23;95;0.94999999999999996;0.029999999999999999;0.01;0.01;94;4;58;49;0.46000000000000002;0.5;0.029999999999999999;0.01;0;6.050171256327758;34;90;36;2; nein
2019_02_22 08:58;1;1;0;control;50;20;1;44;40;0;0;0.91000000000000003;0.089999999999999997;0.0;0.0;29;5;80;99;0.25;0.40000000000000002;0.26000000000000001;0.089999999999999997;0;3.466705967366579;34;90;36;2; nein
2019_02_22 08:58;1;1;0;control;51;78;0;74;36;34;3;0.14999999999999999;0.64000000000000001;0.13;0.080000000000000002;1;83;0;0;0.41999999999999998;0.57999999999999996;0.0;0.0;1;8.450121734879758;34;90;36;2; nein
2019_02_22 08:58;1;1;0;control;52;46;0;5;19;0;0;0.32000000000000001;0.68000000000000005;0.0;0.0;88;38;97;66;0.60999999999999999;0.20000000000000001;0.040000000000000001;0.14999999999999999;1;5.766665458565967;34;90;36;2; nein
2019_02_22 08:58;1;1;0;control;53;50;1;15;20;0;0;0.82999999999999996;0.17000000000000001;0.0;0.0;97;18;88;87;0.56999999999999995;0.39000000000000001;0.01;0.029999999999999999;1;6.100017929073147;34;90;36;2; nein
2019_02_22 08:58;1;1;0;control;54;31;1;10;59;0;0;0.23999999999999999;0.76000000000000001;0.0;0.0;1;79;53;73;0.23000000000000001;0.58999999999999997;0.050000000000000003;0.13;0;3.366575460390777;34;90;36;2; nein
2019_02_22 08:58;1;1;0;control;55;23;0;54;40;0;0;0.93000000000000005;0.070000000000000007;0.0;0.0;36;23;71;86;0.02;0.41999999999999998;0.19;0.37;0;3.45010794328482;34;90;36;2; nein
2019_02_22 08:58;1;1;0;control;56;95;0;93;88;68;85;0.83999999999999997;0.14000000000000001;0.01;0.01;2;82;0;0;0.41999999999999998;0.57999999999999996;0.0;0.0;0;2.900119024671312;34;90;36;2; nein
2019_02_22 08:58;1;1;0;control;57;116;0;53;65;43;99;0.56999999999999995;0.37;0.050000000000000003;0.010000000000000101;57;72;11;87;0.67000000000000004;0.13;0.14999999999999999;0.050000000000000003;1;4.6166202830740986;34;90;36;2; nein
2019_02_22 08:58;1;1;0;control;58;102;0;40;56;53;17;0.28000000000000003;0.26000000000000001;0.14999999999999999;0.31;1;76;29;62;0.68000000000000005;0.23000000000000001;0.050000000000000003;0.039999999999999897;0;6.5500476130760035;34;90;36;2; nein
2019_02_22 08:58;1;1;0;control;59;77;1;24;17;99;41;0.17999999999999999;0.13;0.10000000000000001;0.58999999999999997;12;97;0;0;0.59999999999999998;0.40000000000000002;0.0;0.0;0;4.933321487529156;34;90;36;2; nein
2019_02_22 08:58;1;1;0;control;60;91;1;74;81;86;48;0.93000000000000005;0.02;0.01;0.039999999999999897;7;64;0;0;0.13;0.87;0.0;0.0;0;4.299974886468135;34;90;36;2; nein
2019_02_22 08:58;1;1;0;control;61;88;0;77;13;12;7;0.12;0.19;0.66000000000000003;0.029999999999999898;94;2;0;0;0.40999999999999998;0.58999999999999997;0.0;0.0;1;5.166758984822991;34;90;36;2; nein
2019_02_22 08:58;1;1;0;control;62;98;0;27;10;31;79;0.23000000000000001;0.67000000000000004;0.070000000000000007;0.029999999999999999;25;99;0;0;0.38;0.62;0.0;0.0;1;3.333300190740829;34;90;36;2; nein
2019_02_22 08:58;1;1;0;control;63;14;1;36;40;0;0;0.54000000000000004;0.46000000000000002;0.0;0.0;99;70;1;11;0.16;0.089999999999999997;0.080000000000000002;0.67000000000000004;0;4.316549176176977;34;90;36;2; nein
2019_02_22 08:58;1;1;0;control;64;28;0;47;30;0;0;0.97999999999999998;0.02;0.0;0.0;55;48;77;13;0.070000000000000007;0.26000000000000001;0.42999999999999999;0.23999999999999999;0;3.3834980680539957;34;90;36;2; nein
2019_02_22 08:58;1;1;0;control;65;131;0;83;41;81;88;0.23999999999999999;0.58999999999999997;0.10000000000000001;0.070000000000000007;82;97;4;17;0.26000000000000001;0.46999999999999997;0.11;0.16;1;7.183392931197886;34;90;36;2; nein
2019_02_22 08:58;1;1;0;control;66;80;1;47;39;45;10;0.13;0.76000000000000001;0.059999999999999998;0.050000000000000003;2;87;0;0;0.48999999999999999;0.51000000000000001;0.0;0.0;0;2.900112289240951;34;90;36;2; nein
2019_02_22 08:58;1;1;0;control;67;136;1;29;67;14;75;0.46000000000000002;0.29999999999999999;0.20999999999999999;0.0300000000000001;70;86;1;85;0.31;0.39000000000000001;0.27000000000000002;0.029999999999999898;1;6.850011273827022;34;90;36;2; nein
2019_02_22 08:58;1;1;0;control;68;125;0;37;41;10;35;0.91000000000000003;0.040000000000000001;0.029999999999999999;0.02;7;13;91;93;0.26000000000000001;0.39000000000000001;0.16;0.19;0;4.200065365745104;34;90;36;2; nein
2019_02_22 08:58;1;1;0;control;69;22;0;32;55;0;0;0.39000000000000001;0.60999999999999999;0.0;0.0;93;72;59;22;0.20000000000000001;0.11;0.14000000000000001;0.55000000000000004;1;7.083462883450466;34;90;36;2; nein
2019_02_22 08:58;1;1;0;control;70;97;1;17;33;32;74;0.94999999999999996;0.01;0.029999999999999999;0.01;76;23;0;0;0.33000000000000002;0.67000000000000004;0.0;0.0;1;8.500110172391487;34;90;36;2; nein
2019_02_22 08:58;1;1;0;control;71;30;0;33;30;0;0;0.71999999999999997;0.28000000000000003;0.0;0.0;9;88;1;14;0.55000000000000004;0.39000000000000001;0.01;0.049999999999999899;0;6.2999533972388235;34;90;36;2; nein
2019_02_22 08:58;1;1;0;control;72;96;1;51;54;39;7;0.17000000000000001;0.26000000000000001;0.10000000000000001;0.46999999999999997;24;96;0;0;0.28000000000000003;0.71999999999999997;0.0;0.0;1;2.849948409812896;34;90;36;2; nein
2019_02_22 08:58;1;1;0;control;73;104;1;55;85;93;3;0.87;0.02;0.089999999999999997;0.02;1;2;90;8;0.35999999999999999;0.070000000000000007;0.40000000000000002;0.17000000000000001;0;5.383315890707763;34;90;36;2; nein
2019_02_22 08:58;1;1;0;control;74;9;0;61;69;0;0;0.93999999999999995;0.060000000000000102;0.0;0.0;18;93;72;16;0.40999999999999998;0.34999999999999998;0.089999999999999997;0.14999999999999999;0;2.79998627255236;34;90;36;2; nein
2019_02_22 08:58;1;1;0;control;75;145;0;91;89;90;74;0.57999999999999996;0.29999999999999999;0.11;0.010000000000000101;2;75;84;39;0.32000000000000001;0.27000000000000002;0.39000000000000001;0.0199999999999999;0;4.000173196773176;34;90;36;2; nein
2019_02_22 08:58;1;2;0;timed;1;136;0;29;67;14;75;0.46000000000000002;0.29999999999999999;0.20999999999999999;0.0300000000000001;70;86;1;85;0.31;0.39000000000000001;0.27000000000000002;0.029999999999999898;0;2.918248557255083;34;90;36;2; nein
2019_02_22 08:58;1;2;0;timed;2;8;0;50;36;0;0;0.080000000000000002;0.92000000000000004;0.0;0.0;6;19;84;29;0.54000000000000004;0.070000000000000007;0.17000000000000001;0.22;1;2.149907901012284;34;90;36;2; nein
2019_02_22 08:58;1;2;0;timed;3;60;0;64;59;57;96;0.83999999999999997;0.13;0.02;0.01;83;6;0;0;0.54000000000000004;0.46000000000000002;0.0;0.0;0;2.0166082875939537;34;90;36;2; nein
2019_02_22 08:58;1;2;0;timed;4;18;1;68;50;0;0;0.029999999999999999;0.96999999999999997;0.0;0.0;34;64;15;89;0.65000000000000002;0.029999999999999999;0.050000000000000003;0.27000000000000002;0;2.0667356032586213;34;90;36;2; nein
2019_02_22 08:58;1;2;0;timed;5;87;1;10;30;63;4;0.56999999999999995;0.12;0.16;0.14999999999999999;86;2;0;0;0.42999999999999999;0.56999999999999995;0.0;0.0;0;2.3668496886143657;34;90;36;2; nein
2019_02_22 08:58;1;2;0;timed;6;94;1;84;86;93;39;0.78000000000000003;0.20000000000000001;0.01;0.0099999999999999603;9;83;0;0;0.46999999999999997;0.53000000000000003;0.0;0.0;0;2.066606026413865;34;90;36;2; nein
2019_02_22 08:58;1;2;0;timed;7;61;0;43;18;39;70;0.75;0.089999999999999997;0.089999999999999997;0.070000000000000007;16;66;0;0;0.64000000000000001;0.35999999999999999;0.0;0.0;0;2.0500926763102143;34;90;36;2; nein
2019_02_22 08:58;1;2;0;timed;8;113;1;85;65;39;64;0.44;0.34000000000000002;0.13;0.089999999999999997;87;2;4;35;0.67000000000000004;0.17000000000000001;0.11;0.049999999999999899;1;1.9166041501157451;34;90;36;2; nein
2019_02_22 08:58;1;2;0;timed;9;48;0;13;32;0;0;0.90000000000000002;0.10000000000000001;0.0;0.0;24;99;84;94;0.62;0.14999999999999999;0.20000000000000001;0.029999999999999999;1;2.0332428754386456;34;90;36;2; nein
2019_02_22 08:58;1;2;0;timed;10;6;1;9;51;0;0;0.14999999999999999;0.84999999999999998;0.0;0.0;6;40;50;73;0.42999999999999999;0.26000000000000001;0.059999999999999998;0.25;0;1.650149253922791;34;90;36;2; nein
2019_02_22 08:58;1;2;0;timed;11;27;0;44;26;0;0;0.35999999999999999;0.64000000000000001;0.0;0.0;63;10;3;5;0.58999999999999997;0.19;0.14999999999999999;0.070000000000000007;0;2.1832190929558237;34;90;36;2; nein
2019_02_22 08:58;1;2;0;timed;12;59;1;56;47;83;90;0.31;0.12;0.54000000000000004;0.029999999999999898;10;98;0;0;0.46999999999999997;0.53000000000000003;0.0;0.0;1;1.866610580847464;34;90;36;2; nein
2019_02_22 08:58;1;2;0;timed;13;121;1;42;51;47;70;0.41999999999999998;0.17000000000000001;0.23999999999999999;0.17000000000000001;21;76;48;9;0.14999999999999999;0.34000000000000002;0.40999999999999998;0.10000000000000001;1;2.6835261964929487;34;90;36;2; nein
2019_02_22 08:58;1;2;0;timed;14;53;1;26;70;50;80;0.29999999999999999;0.59999999999999998;0.040000000000000001;0.059999999999999998;89;1;0;0;0.40999999999999998;0.58999999999999997;0.0;0.0;0;2.4165953299093417;34;90;36;2; nein
2019_02_22 08:58;1;2;0;timed;15;132;1;27;70;21;19;0.64000000000000001;0.23000000000000001;0.029999999999999999;0.10000000000000001;11;85;55;6;0.39000000000000001;0.46999999999999997;0.029999999999999999;0.11;1;2.18342789128792;34;90;36;2; nein
2019_02_22 08:58;1;2;0;timed;16;119;1;60;58;11;18;0.25;0.72999999999999998;0.01;0.01;96;23;42;85;0.44;0.48999999999999999;0.059999999999999998;0.010000000000000101;1;2.4333627019464075;34;90;36;2; nein
2019_02_22 08:58;1;2;0;timed;17;14;1;36;40;0;0;0.54000000000000004;0.46000000000000002;0.0;0.0;99;70;1;11;0.16;0.089999999999999997;0.080000000000000002;0.67000000000000004;0;2.5667046523540193;34;90;36;2; nein
2019_02_22 08:58;1;2;0;timed;18;36;1;70;17;0;0;0.33000000000000002;0.67000000000000004;0.0;0.0;84;1;12;88;0.22;0.27000000000000002;0.14000000000000001;0.37;1;2.2666213575357688;34;90;36;2; nein
2019_02_22 08:58;1;2;0;timed;19;85;1;31;22;82;50;0.11;0.69999999999999996;0.01;0.17999999999999999;3;99;0;0;0.62;0.38;0.0;0.0;1;1.9000940073597121;34;90;36;2; nein
2019_02_22 08:58;1;2;0;timed;20;24;1;35;27;0;0;0.070000000000000007;0.93000000000000005;0.0;0.0;62;3;81;95;0.35999999999999999;0.55000000000000004;0.01;0.080000000000000002;0;2.183248279819054;34;90;36;2; nein
2019_02_22 08:58;1;2;0;timed;21;142;1;98;65;64;84;0.88;0.070000000000000007;0.01;0.040000000000000001;5;68;60;16;0.46000000000000002;0.080000000000000002;0.27000000000000002;0.19;0;2.0832948184333873;34;90;36;2; nein
2019_02_22 08:58;1;2;0;timed;22;43;0;60;83;0;0;0.23000000000000001;0.77000000000000002;0.0;0.0;72;5;70;12;0.29999999999999999;0.40999999999999998;0.12;0.17000000000000001;0;1.8999769391703012;34;90;36;2; nein
2019_02_22 08:58;1;2;0;timed;23;124;0;37;65;15;41;0.17999999999999999;0.45000000000000001;0.02;0.34999999999999998;40;7;98;30;0.070000000000000007;0.45000000000000001;0.45000000000000001;0.029999999999999898;1;2.033263081728819;34;90;36;2; nein
2019_02_22 08:58;1;2;0;timed;24;50;1;15;20;0;0;0.82999999999999996;0.17000000000000001;0.0;0.0;97;18;88;87;0.56999999999999995;0.39000000000000001;0.01;0.029999999999999999;1;3.166643841042969;34;90;36;2; nein
2019_02_22 08:58;1;2;0;timed;25;71;0;68;55;36;51;0.20000000000000001;0.75;0.02;0.029999999999999999;38;81;0;0;0.52000000000000002;0.47999999999999998;0.0;0.0;1;2.18336951756055;34;90;36;2; nein
2019_02_22 08:58;1;2;0;timed;26;138;1;8;20;43;51;0.38;0.5;0.02;0.10000000000000001;72;82;70;1;0.39000000000000001;0.050000000000000003;0.070000000000000007;0.48999999999999999;1;2.8999859197438127;34;90;36;2; nein
2019_02_22 08:58;1;2;0;timed;27;9;1;61;69;0;0;0.93999999999999995;0.060000000000000102;0.0;0.0;18;93;72;16;0.40999999999999998;0.34999999999999998;0.089999999999999997;0.14999999999999999;0;1.6333228666890136;34;90;36;2; nein
2019_02_22 08:58;1;2;0;timed;28;75;0;67;80;36;81;0.81999999999999995;0.080000000000000002;0.059999999999999998;0.040000000000000001;3;97;0;0;0.32000000000000001;0.68000000000000005;0.0;0.0;1;1.833461680695109;34;90;36;2; nein
2019_02_22 08:58;1;2;0;timed;29;55;1;74;55;47;48;0.60999999999999999;0.31;0.070000000000000007;0.01;97;6;0;0;0.42999999999999999;0.56999999999999995;0.0;0.0;0;1.9832938883027964;34;90;36;2; nein
2019_02_22 08:58;1;2;0;timed;30;47;1;2;40;0;0;0.45000000000000001;0.55000000000000004;0.0;0.0;93;89;11;56;0.58999999999999997;0.070000000000000007;0.28000000000000003;0.059999999999999998;1;2.133296085336042;34;90;36;2; nein
2019_02_22 08:58;1;2;0;timed;31;31;1;10;59;0;0;0.23999999999999999;0.76000000000000001;0.0;0.0;1;79;53;73;0.23000000000000001;0.58999999999999997;0.050000000000000003;0.13;0;2.216635485901861;34;90;36;2; nein
2019_02_22 08:58;1;2;0;timed;32;88;0;77;13;12;7;0.12;0.19;0.66000000000000003;0.029999999999999898;94;2;0;0;0.40999999999999998;0.58999999999999997;0.0;0.0;1;2.2667637637714506;34;90;36;2; nein
2019_02_22 08:58;1;2;0;timed;33;130;1;37;79;23;95;0.94999999999999996;0.029999999999999999;0.01;0.01;94;4;58;49;0.46000000000000002;0.5;0.029999999999999999;0.01;1;2.250095498776318;34;90;36;2; nein
2019_02_22 08:58;1;2;0;timed;34;123;0;26;24;51;92;0.72999999999999998;0.16;0.070000000000000007;0.040000000000000001;6;90;82;49;0.64000000000000001;0.25;0.050000000000000003;0.059999999999999998;1;2.883265054247204;34;90;36;2; nein
2019_02_22 08:58;1;2;0;timed;35;37;0;14;98;0;0;0.93000000000000005;0.070000000000000007;0.0;0.0;41;2;87;66;0.17999999999999999;0.48999999999999999;0.32000000000000001;0.010000000000000101;1;2.066621742417283;34;90;36;2; nein
2019_02_22 08:58;1;2;0;timed;36;45;1;97;87;0;0;0.71999999999999997;0.28000000000000003;0.0;0.0;96;11;14;4;0.25;0.029999999999999999;0.14000000000000001;0.57999999999999996;1;3.1832967107689;34;90;36;2; nein
2019_02_22 08:58;1;2;0;timed;37;112;1;70;44;98;64;0.02;0.75;0.12;0.11;33;2;63;85;0.23999999999999999;0.31;0.080000000000000002;0.37;0;1.7167379606594295;34;90;36;2; nein
2019_02_22 08:58;1;2;0;timed;38;137;0;71;22;28;17;0.25;0.46000000000000002;0.050000000000000003;0.23999999999999999;3;98;92;69;0.42999999999999999;0.23999999999999999;0.20000000000000001;0.13;1;2.3332825503289314;34;90;36;2; nein
2019_02_22 08:58;1;2;0;timed;39;58;0;37;58;76;34;0.20999999999999999;0.57999999999999996;0.19;0.020000000000000101;86;5;0;0;0.47999999999999998;0.52000000000000002;0.0;0.0;1;2.333439389628893;34;90;36;2; nein
2019_02_22 08:58;1;2;0;timed;40;65;0;75;64;59;52;0.59999999999999998;0.22;0.14000000000000001;0.040000000000000001;1;99;0;0;0.35999999999999999;0.64000000000000001;0.0;0.0;1;1.933261189393761;34;90;36;2; nein
2019_02_22 08:58;1;2;0;timed;41;19;0;22;53;0;0;0.13;0.87;0.0;0.0;4;93;96;65;0.46999999999999997;0.059999999999999998;0.26000000000000001;0.20999999999999999;0;1.6999609665790558;34;90;36;2; nein
2019_02_22 08:58;1;2;0;timed;42;4;1;40;43;0;0;0.58999999999999997;0.40999999999999998;0.0;0.0;2;33;88;81;0.69999999999999996;0.14000000000000001;0.13;0.029999999999999999;0;1.799951312462781;34;90;36;2; nein
2019_02_22 08:58;1;2;0;timed;43;141;1;93;28;60;91;0.81999999999999995;0.10000000000000001;0.01;0.070000000000000007;14;85;7;89;0.45000000000000001;0.070000000000000007;0.23999999999999999;0.23999999999999999;0;2.1499909713161287;34;90;36;2; nein
2019_02_22 08:58;1;2;0;timed;44;116;1;53;65;43;99;0.56999999999999995;0.37;0.050000000000000003;0.010000000000000101;57;72;11;87;0.67000000000000004;0.13;0.14999999999999999;0.050000000000000003;1;2.049896065899702;34;90;36;2; nein
2019_02_22 08:58;1;2;0;timed;45;13;1;52;56;0;0;0.46999999999999997;0.53000000000000003;0.0;0.0;94;71;27;2;0.089999999999999997;0.31;0.57999999999999996;0.020000000000000101;1;2.5500838561042656;34;90;36;2; nein
2019_02_22 08:58;1;2;0;timed;46;134;1;57;48;50;55;0.02;0.62;0.17999999999999999;0.17999999999999999;80;96;15;18;0.23999999999999999;0.35999999999999999;0.33000000000000002;0.070000000000000007;0;3.066738489871568;34;90;36;2; nein
2019_02_22 08:58;1;2;0;timed;47;26;1;76;41;0;0;0.57999999999999996;0.41999999999999998;0.0;0.0;61;79;84;2;0.13;0.029999999999999999;0.67000000000000004;0.17000000000000001;0;1.8999637890451595;34;90;36;2; nein
2019_02_22 08:58;1;2;0;timed;48;133;0;59;88;60;36;0.67000000000000004;0.070000000000000007;0.12;0.14000000000000001;7;91;66;61;0.25;0.68999999999999995;0.01;0.0500000000000001;1;1.5333280305185326;34;90;36;2; nein
2019_02_22 08:58;1;2;0;timed;49;3;1;53;40;0;0;0.31;0.68999999999999995;0.0;0.0;96;24;7;88;0.11;0.27000000000000002;0.58999999999999997;0.029999999999999999;0;2.399962987208255;34;90;36;2; nein
2019_02_22 08:58;1;2;0;timed;50;40;1;45;49;0;0;0.68999999999999995;0.31;0.0;0.0;2;92;65;73;0.23999999999999999;0.59999999999999998;0.11;0.050000000000000003;1;2.033265968341766;34;90;36;2; nein
2019_02_22 08:58;1;2;0;timed;51;120;0;64;40;48;51;0.19;0.02;0.070000000000000007;0.71999999999999997;97;9;79;94;0.23000000000000001;0.54000000000000004;0.01;0.22;0;2.8499452024652783;34;90;36;2; nein
2019_02_22 08:58;1;2;0;timed;52;25;1;50;53;0;0;0.82999999999999996;0.17000000000000001;0.0;0.0;83;16;97;4;0.45000000000000001;0.29999999999999999;0.11;0.14000000000000001;0;1.9333320717764764;34;90;36;2; nein
2019_02_22 08:58;1;2;0;timed;53;109;0;75;28;16;56;0.19;0.070000000000000007;0.059999999999999998;0.68000000000000005;3;50;98;44;0.5;0.02;0.34999999999999998;0.13;0;2.5499013580229075;34;90;36;2; nein
2019_02_22 08:58;1;2;0;timed;54;20;0;44;40;0;0;0.91000000000000003;0.089999999999999997;0.0;0.0;29;5;80;99;0.25;0.40000000000000002;0.26000000000000001;0.089999999999999997;0;1.916649052982848;34;90;36;2; nein
2019_02_22 08:58;1;2;0;timed;55;72;1;63;82;51;61;0.01;0.96999999999999997;0.01;0.01;92;12;0;0;0.89000000000000001;0.11;0.0;0.0;1;1.66658466547824;34;90;36;2; nein
2019_02_22 08:58;1;2;0;timed;56;77;1;24;17;99;41;0.17999999999999999;0.13;0.10000000000000001;0.58999999999999997;12;97;0;0;0.59999999999999998;0.40000000000000002;0.0;0.0;0;3.616817534954407;34;90;36;2; nein
2019_02_22 08:58;1;2;0;timed;57;103;0;38;49;89;50;0.89000000000000001;0.070000000000000007;0.01;0.029999999999999999;6;64;99;27;0.70999999999999996;0.17999999999999999;0.059999999999999998;0.050000000000000003;0;2.3666575684906093;34;90;36;2; nein
2019_02_22 08:58;1;2;0;timed;58;93;0;87;81;73;98;0.80000000000000004;0.040000000000000001;0.14999999999999999;0.0099999999999999499;5;71;0;0;0.51000000000000001;0.48999999999999999;0.0;0.0;1;1.5166443702551078;34;90;36;2; nein
2019_02_22 08:58;1;2;0;timed;59;107;1;52;48;13;63;0.68000000000000005;0.19;0.050000000000000003;0.079999999999999905;54;91;33;3;0.19;0.17999999999999999;0.33000000000000002;0.29999999999999999;0;2.7499801946282787;34;90;36;2; nein
2019_02_22 08:58;1;2;0;timed;60;95;1;93;88;68;85;0.83999999999999997;0.14000000000000001;0.01;0.01;2;82;0;0;0.41999999999999998;0.57999999999999996;0.0;0.0;0;1.6334989500746815;34;90;36;2; nein
2019_02_22 08:58;1;2;0;timed;61;15;0;77;81;0;0;0.28000000000000003;0.71999999999999997;0.0;0.0;98;14;87;18;0.55000000000000004;0.23000000000000001;0.16;0.059999999999999901;1;2.0335010669241456;34;90;36;2; nein
2019_02_22 08:58;1;2;0;timed;62;38;1;40;70;0;0;0.53000000000000003;0.46999999999999997;0.0;0.0;97;90;6;96;0.56999999999999995;0.070000000000000007;0.27000000000000002;0.089999999999999997;1;1.9338519828306744;34;90;36;2; nein
2019_02_22 08:58;1;2;0;timed;63;67;1;44;42;8;89;0.88;0.070000000000000007;0.029999999999999999;0.02;10;63;0;0;0.39000000000000001;0.60999999999999999;0.0;0.0;0;1.966626585512131;34;90;36;2; nein
2019_02_22 08:58;1;2;0;timed;64;21;0;64;28;0;0;0.080000000000000002;0.92000000000000004;0.0;0.0;50;1;88;13;0.57999999999999996;0.13;0.02;0.27000000000000002;1;1.983319547084193;34;90;36;2; nein
2019_02_22 08:58;1;2;0;timed;65;73;0;65;68;70;47;0.25;0.23000000000000001;0.20999999999999999;0.31;27;95;0;0;0.45000000000000001;0.55000000000000004;0.0;0.0;1;1.9166041501152904;34;90;36;2; nein
2019_02_22 08:58;1;2;0;timed;66;10;0;45;62;0;0;0.059999999999999998;0.93999999999999995;0.0;0.0;17;99;28;67;0.58999999999999997;0.34000000000000002;0.01;0.059999999999999998;0;2.1501385093083627;34;90;36;2; nein
2019_02_22 08:58;1;2;0;timed;67;17;1;81;52;0;0;0.059999999999999998;0.93999999999999995;0.0;0.0;34;3;69;41;0.01;0.22;0.75;0.02;0;1.9334068029770606;34;90;36;2; nein
2019_02_22 08:58;1;2;0;timed;68;32;1;19;81;0;0;0.93000000000000005;0.070000000000000007;0.0;0.0;1;65;41;68;0.45000000000000001;0.050000000000000003;0.059999999999999998;0.44;1;2.449912295078775;34;90;36;2; nein
2019_02_22 08:58;1;2;0;timed;69;104;1;55;85;93;3;0.87;0.02;0.089999999999999997;0.02;1;2;90;8;0.35999999999999999;0.070000000000000007;0.40000000000000002;0.17000000000000001;0;2.2499765061784274;34;90;36;2; nein
2019_02_22 08:58;1;2;0;timed;70;74;0;66;47;52;44;0.41999999999999998;0.26000000000000001;0.17999999999999999;0.14000000000000001;17;99;0;0;0.47999999999999998;0.52000000000000002;0.0;0.0;1;2.099956347998159;34;90;36;2; nein
2019_02_22 08:58;1;2;0;timed;71;86;0;56;30;57;88;0.20000000000000001;0.35999999999999999;0.080000000000000002;0.35999999999999999;98;2;0;0;0.77000000000000002;0.23000000000000001;0.0;0.0;1;1.7999157109038606;34;90;36;2; nein
2019_02_22 08:58;1;2;0;timed;72;33;1;27;70;0;0;0.88;0.12;0.0;0.0;93;3;77;16;0.080000000000000002;0.40000000000000002;0.5;0.02;0;2.03345071156582;34;90;36;2; nein
2019_02_22 08:58;1;2;0;timed;73;126;1;16;55;51;42;0.68999999999999995;0.23999999999999999;0.01;0.060000000000000102;66;4;1;5;0.46999999999999997;0.38;0.089999999999999997;0.059999999999999998;0;1.6166398478944757;34;90;36;2; nein
2019_02_22 08:58;1;2;0;timed;74;125;1;37;41;10;35;0.91000000000000003;0.040000000000000001;0.029999999999999999;0.02;7;13;91;93;0.26000000000000001;0.39000000000000001;0.16;0.19;0;2.333345414343057;34;90;36;2; nein
2019_02_22 08:58;1;2;0;timed;75;101;1;30;96;61;45;0.65000000000000002;0.14000000000000001;0.11;0.10000000000000001;3;98;63;89;0.75;0.19;0.040000000000000001;0.02;0;2.449980932317885;34;90;36;2; nein
2019_02_22 08:58;1;3;0;control;1;103;1;38;49;89;50;0.89000000000000001;0.070000000000000007;0.01;0.029999999999999999;6;64;99;27;0.70999999999999996;0.17999999999999999;0.059999999999999998;0.050000000000000003;0;5.41726726924162;34;90;36;2; nein
2019_02_22 08:58;1;3;0;control;2;113;1;85;65;39;64;0.44;0.34000000000000002;0.13;0.089999999999999997;87;2;4;35;0.67000000000000004;0.17000000000000001;0.11;0.049999999999999899;1;2.23321266222365;34;90;36;2; nein
2019_02_22 08:58;1;3;0;control;3;128;0;70;49;27;54;0.27000000000000002;0.53000000000000003;0.02;0.17999999999999999;72;97;6;20;0.29999999999999999;0.39000000000000001;0.22;0.0899999999999999;0;4.216599242873599;34;90;36;2; nein
2019_02_22 08:58;1;3;0;control;4;55;0;74;55;47;48;0.60999999999999999;0.31;0.070000000000000007;0.01;97;6;0;0;0.42999999999999999;0.56999999999999995;0.0;0.0;0;2.9999894157526796;34;90;36;2; nein
2019_02_22 08:58;1;3;0;control;5;149;1;14;89;73;53;0.93999999999999995;0.01;0.01;0.040000000000000001;97;45;6;13;0.34000000000000002;0.01;0.40999999999999998;0.23999999999999999;1;3.766776112059688;34;90;36;2; nein
2019_02_22 08:58;1;3;0;control;6;141;1;93;28;60;91;0.81999999999999995;0.10000000000000001;0.01;0.070000000000000007;14;85;7;89;0.45000000000000001;0.070000000000000007;0.23999999999999999;0.23999999999999999;0;1.966785349221027;34;90;36;2; nein
2019_02_22 08:58;1;3;0;control;7;105;1;49;74;63;58;0.84999999999999998;0.080000000000000002;0.02;0.050000000000000003;97;5;86;8;0.25;0.52000000000000002;0.070000000000000007;0.16;0;3.3167050532724716;34;90;36;2; nein
2019_02_22 08:58;1;3;0;control;8;32;1;19;81;0;0;0.93000000000000005;0.070000000000000007;0.0;0.0;1;65;41;68;0.45000000000000001;0.050000000000000003;0.059999999999999998;0.44;0;7.349939589606947;34;90;36;2; nein
2019_02_22 08:58;1;3;0;control;9;134;1;57;48;50;55;0.02;0.62;0.17999999999999999;0.17999999999999999;80;96;15;18;0.23999999999999999;0.35999999999999999;0.33000000000000002;0.070000000000000007;0;3.433314270997471;34;90;36;2; nein
2019_02_22 08:58;1;3;0;control;10;150;0;25;21;78;38;0.84999999999999998;0.059999999999999998;0.050000000000000003;0.040000000000000001;31;43;64;95;0.059999999999999998;0.45000000000000001;0.13;0.35999999999999999;0;4.283218098677935;34;90;36;2; nein
2019_02_22 08:58;1;3;0;control;11;52;0;71;51;10;54;0.22;0.12;0.19;0.46999999999999997;91;1;0;0;0.29999999999999999;0.69999999999999996;0.0;0.0;1;4.900024728650351;34;90;36;2; nein
2019_02_22 08:58;1;3;0;control;12;54;0;44;79;78;52;0.79000000000000004;0.19;0.01;0.0099999999999999603;96;1;0;0;0.28000000000000003;0.71999999999999997;0.0;0.0;0;3.0834824482712975;34;90;36;2; nein
2019_02_22 08:58;1;3;0;control;13;73;0;65;68;70;47;0.25;0.23000000000000001;0.20999999999999999;0.31;27;95;0;0;0.45000000000000001;0.55000000000000004;0.0;0.0;1;2.616761085635517;34;90;36;2; nein
2019_02_22 08:58;1;3;0;control;14;138;1;8;20;43;51;0.38;0.5;0.02;0.10000000000000001;72;82;70;1;0.39000000000000001;0.050000000000000003;0.070000000000000007;0.48999999999999999;0;5.083814088017789;34;90;36;2; nein
2019_02_22 08:58;1;3;0;control;15;87;0;10;30;63;4;0.56999999999999995;0.12;0.16;0.14999999999999999;86;2;0;0;0.42999999999999999;0.56999999999999995;0.0;0.0;1;4.099986817801437;34;90;36;2; nein
2019_02_22 08:58;1;3;0;control;16;48;0;13;32;0;0;0.90000000000000002;0.10000000000000001;0.0;0.0;24;99;84;94;0.62;0.14999999999999999;0.20000000000000001;0.029999999999999999;1;0.39996459088206393;34;90;36;2; nein
2019_02_22 08:58;1;3;0;control;17;137;0;71;22;28;17;0.25;0.46000000000000002;0.050000000000000003;0.23999999999999999;3;98;92;69;0.42999999999999999;0.23999999999999999;0.20000000000000001;0.13;1;7.633288548069231;34;90;36;2; nein
2019_02_22 08:58;1;3;0;control;18;40;1;45;49;0;0;0.68999999999999995;0.31;0.0;0.0;2;92;65;73;0.23999999999999999;0.59999999999999998;0.11;0.050000000000000003;1;3.000073768996117;34;90;36;2; nein
2019_02_22 08:58;1;3;0;control;19;110;0;47;44;23;52;0.13;0.27000000000000002;0.040000000000000001;0.56000000000000005;99;2;30;22;0.28999999999999998;0.5;0.11;0.10000000000000001;1;6.46676690697177;34;90;36;2; nein
2019_02_22 08:58;1;3;0;control;20;135;0;48;60;41;51;0.14000000000000001;0.40000000000000002;0.089999999999999997;0.37;94;1;85;65;0.64000000000000001;0.29999999999999999;0.01;0.050000000000000003;1;5.000093333816494;34;90;36;2; nein
2019_02_22 08:58;1;3;0;control;21;132;1;27;70;21;19;0.64000000000000001;0.23000000000000001;0.029999999999999999;0.10000000000000001;11;85;55;6;0.39000000000000001;0.46999999999999997;0.029999999999999999;0.11;1;3.9665531372511396;34;90;36;2; nein
2019_02_22 08:58;1;3;0;control;22;69;0;54;34;64;49;0.34000000000000002;0.25;0.20999999999999999;0.20000000000000001;14;98;0;0;0.62;0.38;0.0;0.0;0;3.7001941407534105;34;90;36;2; nein
2019_02_22 08:58;1;3;0;control;23;15;1;77;81;0;0;0.28000000000000003;0.71999999999999997;0.0;0.0;98;14;87;18;0.55000000000000004;0.23000000000000001;0.16;0.059999999999999901;0;3.1333833251919714;34;90;36;2; nein
2019_02_22 08:58;1;3;0;control;24;2;1;59;32;0;0;0.080000000000000002;0.92000000000000004;0.0;0.0;33;38;85;1;0.28999999999999998;0.050000000000000003;0.070000000000000007;0.58999999999999997;0;5.016777956284386;34;90;36;2; nein
2019_02_22 08:58;1;3;0;control;25;36;1;70;17;0;0;0.33000000000000002;0.67000000000000004;0.0;0.0;84;1;12;88;0.22;0.27000000000000002;0.14000000000000001;0.37;1;4.816587503981282;34;90;36;2; nein
2019_02_22 08:58;1;3;0;control;26;94;0;84;86;93;39;0.78000000000000003;0.20000000000000001;0.01;0.0099999999999999603;9;83;0;0;0.46999999999999997;0.53000000000000003;0.0;0.0;0;2.1999636928248947;34;90;36;2; nein
2019_02_22 08:58;1;3;0;control;27;8;1;50;36;0;0;0.080000000000000002;0.92000000000000004;0.0;0.0;6;19;84;29;0.54000000000000004;0.070000000000000007;0.17000000000000001;0.22;0;5.366833331141606;34;90;36;2; nein
2019_02_22 08:58;1;3;0;control;28;18;0;68;50;0;0;0.029999999999999999;0.96999999999999997;0.0;0.0;34;64;15;89;0.65000000000000002;0.029999999999999999;0.050000000000000003;0.27000000000000002;0;3.6666343793667693;34;90;36;2; nein
2019_02_22 08:58;1;3;0;control;29;85;0;31;22;82;50;0.11;0.69999999999999996;0.01;0.17999999999999999;3;99;0;0;0.62;0.38;0.0;0.0;1;4.099922350113502;34;90;36;2; nein
2019_02_22 08:58;1;3;0;control;30;72;0;63;82;51;61;0.01;0.96999999999999997;0.01;0.01;92;12;0;0;0.89000000000000001;0.11;0.0;0.0;1;4.749923424575172;34;90;36;2; nein
2019_02_22 08:58;1;3;0;control;31;83;0;17;12;7;41;0.65000000000000002;0.19;0.089999999999999997;0.070000000000000007;6;84;0;0;0.72999999999999998;0.27000000000000002;0.0;0.0;1;3.3336863553981857;34;90;36;2; nein
2019_02_22 08:58;1;3;0;control;32;57;0;52;35;23;47;0.22;0.68000000000000005;0.040000000000000001;0.059999999999999998;71;7;0;0;0.28999999999999998;0.70999999999999996;0.0;0.0;0;3.2666345076609105;34;90;36;2; nein
2019_02_22 08:58;1;3;0;control;33;70;0;66;55;69;50;0.22;0.29999999999999999;0.29999999999999999;0.17999999999999999;2;90;0;0;0.34000000000000002;0.66000000000000003;0.0;0.0;1;2.9332939043397346;34;90;36;2; nein
2019_02_22 08:58;1;3;0;control;34;148;0;37;63;55;10;0.72999999999999998;0.070000000000000007;0.029999999999999999;0.17000000000000001;80;14;23;70;0.46999999999999997;0.10000000000000001;0.23000000000000001;0.20000000000000001;1;0.49998765171176274;34;90;36;2; nein
2019_02_22 08:58;1;3;0;control;35;71;1;68;55;36;51;0.20000000000000001;0.75;0.02;0.029999999999999999;38;81;0;0;0.52000000000000002;0.47999999999999998;0.0;0.0;0;3.7332208409598024;34;90;36;2; nein
2019_02_22 08:58;1;3;0;control;36;26;1;76;41;0;0;0.57999999999999996;0.41999999999999998;0.0;0.0;61;79;84;2;0.13;0.029999999999999999;0.67000000000000004;0.17000000000000001;0;0.3998289200767431;34;90;36;2; nein
2019_02_22 08:58;1;3;0;control;37;33;1;27;70;0;0;0.88;0.12;0.0;0.0;93;3;77;16;0.080000000000000002;0.40000000000000002;0.5;0.02;1;5.766750774013417;34;90;36;2; nein
2019_02_22 08:58;1;3;0;control;38;39;1;14;33;0;0;0.78000000000000003;0.22;0.0;0.0;93;84;1;25;0.14000000000000001;0.23999999999999999;0.39000000000000001;0.23000000000000001;1;5.533305579084754;34;90;36;2; nein
2019_02_22 08:58;1;3;0;control;39;106;0;85;69;22;61;0.10000000000000001;0.58999999999999997;0.17999999999999999;0.13;20;79;91;84;0.55000000000000004;0.14999999999999999;0.26000000000000001;0.039999999999999897;0;3.6503519582943227;34;90;36;2; nein
2019_02_22 08:58;1;3;0;control;40;93;1;87;81;73;98;0.80000000000000004;0.040000000000000001;0.14999999999999999;0.0099999999999999499;5;71;0;0;0.51000000000000001;0.48999999999999999;0.0;0.0;0;3.9666012474654053;34;90;36;2; nein
2019_02_22 08:58;1;3;0;control;41;81;0;67;38;52;65;0.27000000000000002;0.35999999999999999;0.01;0.35999999999999999;2;77;0;0;0.14000000000000001;0.85999999999999999;0.0;0.0;1;4.766596500591277;34;90;36;2; nein
2019_02_22 08:58;1;3;0;control;42;101;1;30;96;61;45;0.65000000000000002;0.14000000000000001;0.11;0.10000000000000001;3;98;63;89;0.75;0.19;0.040000000000000001;0.02;0;3.6333052262766614;34;90;36;2; nein
2019_02_22 08:58;1;3;0;control;43;63;0;56;78;42;36;0.93000000000000005;0.040000000000000001;0.01;0.0199999999999999;2;72;0;0;0.32000000000000001;0.68000000000000005;0.0;0.0;1;4.883260884695574;34;90;36;2; nein
2019_02_22 08:58;1;3;0;control;44;119;1;60;58;11;18;0.25;0.72999999999999998;0.01;0.01;96;23;42;85;0.44;0.48999999999999999;0.059999999999999998;0.010000000000000101;0;4.566625110132463;34;90;36;2; nein
2019_02_22 08:58;1;3;0;control;45;35;1;33;37;0;0;0.88;0.12;0.0;0.0;63;4;79;98;0.16;0.46000000000000002;0.17000000000000001;0.20999999999999999;0;4.366641531752521;34;90;36;2; nein
2019_02_22 08:58;1;3;0;control;46;29;1;44;51;0;0;0.78000000000000003;0.22;0.0;0.0;74;1;68;82;0.69999999999999996;0.28000000000000003;0.01;0.01;1;2.983230062084658;34;90;36;2; nein
2019_02_22 08:58;1;3;0;control;47;143;1;88;44;56;73;0.95999999999999996;0.02;0.01;0.01;20;3;87;32;0.19;0.40000000000000002;0.28000000000000003;0.13;0;4.449979970113873;34;90;36;2; nein
2019_02_22 08:58;1;3;0;control;48;79;0;52;46;29;22;0.17999999999999999;0.51000000000000001;0.23999999999999999;0.070000000000000104;93;14;0;0;0.45000000000000001;0.55000000000000004;0.0;0.0;0;5.966537421247267;34;90;36;2; nein
2019_02_22 08:58;1;3;0;control;49;24;0;35;27;0;0;0.070000000000000007;0.93000000000000005;0.0;0.0;62;3;81;95;0.35999999999999999;0.55000000000000004;0.01;0.080000000000000002;0;4.733320589471987;34;90;36;2; nein
2019_02_22 08:58;1;3;0;control;50;43;0;60;83;0;0;0.23000000000000001;0.77000000000000002;0.0;0.0;72;5;70;12;0.29999999999999999;0.40999999999999998;0.12;0.17000000000000001;1;0.39996779822968165;34;90;36;2; nein
2019_02_22 08:58;1;3;0;control;51;68;1;84;27;55;62;0.01;0.050000000000000003;0.40999999999999998;0.53000000000000003;9;82;0;0;0.37;0.63;0.0;0.0;1;3.699934345593647;34;90;36;2; nein
2019_02_22 08:58;1;3;0;control;52;127;1;89;26;62;79;0.02;0.28999999999999998;0.53000000000000003;0.16;96;6;60;13;0.53000000000000003;0.25;0.17000000000000001;0.050000000000000003;1;5.849963163612301;34;90;36;2; nein
2019_02_22 08:58;1;3;0;control;53;53;0;26;70;50;80;0.29999999999999999;0.59999999999999998;0.040000000000000001;0.059999999999999998;89;1;0;0;0.40999999999999998;0.58999999999999997;0.0;0.0;0;4.033448466422669;34;90;36;2; nein
2019_02_22 08:58;1;3;0;control;54;49;0;21;30;0;0;0.53000000000000003;0.46999999999999997;0.0;0.0;93;99;89;25;0.44;0.02;0.11;0.42999999999999999;1;5.733414244023152;34;90;36;2; nein
2019_02_22 08:58;1;3;0;control;55;84;0;43;10;5;45;0.78000000000000003;0.13;0.059999999999999998;0.029999999999999999;87;1;0;0;0.57999999999999996;0.41999999999999998;0.0;0.0;1;3.033305097982975;34;90;36;2; nein
2019_02_22 08:58;1;3;0;control;56;64;0;48;39;34;19;0.46000000000000002;0.5;0.02;0.02;13;92;0;0;0.68999999999999995;0.31;0.0;0.0;0;2.799965745527061;34;90;36;2; nein
2019_02_22 08:58;1;3;0;control;57;75;1;67;80;36;81;0.81999999999999995;0.080000000000000002;0.059999999999999998;0.040000000000000001;3;97;0;0;0.32000000000000001;0.68000000000000005;0.0;0.0;1;2.3999472712048373;34;90;36;2; nein
2019_02_22 08:58;1;3;0;control;58;66;0;89;23;27;15;0.070000000000000007;0.54000000000000004;0.17000000000000001;0.22;9;73;0;0;0.72999999999999998;0.27000000000000002;0.0;0.0;0;7.8833128437272535;34;90;36;2; nein
2019_02_22 08:58;1;3;0;control;59;140;1;36;32;26;27;0.39000000000000001;0.14999999999999999;0.19;0.27000000000000002;44;3;99;25;0.29999999999999999;0.34000000000000002;0.34000000000000002;0.0199999999999999;1;4.883263129839179;34;90;36;2; nein
2019_02_22 08:58;1;3;0;control;60;99;1;8;24;15;73;0.56000000000000005;0.35999999999999999;0.070000000000000007;0.0099999999999999499;88;12;0;0;0.52000000000000002;0.47999999999999998;0.0;0.0;1;3.900158475047192;34;90;36;2; nein
2019_02_22 08:58;1;3;0;control;61;109;1;75;28;16;56;0.19;0.070000000000000007;0.059999999999999998;0.68000000000000005;3;50;98;44;0.5;0.02;0.34999999999999998;0.13;0;4.366627419422457;34;90;36;2; nein
2019_02_22 08:58;1;3;0;control;62;90;0;27;44;50;72;0.68000000000000005;0.28999999999999998;0.02;0.0099999999999999707;6;96;0;0;0.46999999999999997;0.53000000000000003;0.0;0.0;1;3.0666631172016423;34;90;36;2; nein
2019_02_22 08:58;1;3;0;control;63;120;0;64;40;48;51;0.19;0.02;0.070000000000000007;0.71999999999999997;97;9;79;94;0.23000000000000001;0.54000000000000004;0.01;0.22;0;6.383253347428763;34;90;36;2; nein
2019_02_22 08:58;1;3;0;control;64;47;1;2;40;0;0;0.45000000000000001;0.55000000000000004;0.0;0.0;93;89;11;56;0.58999999999999997;0.070000000000000007;0.28000000000000003;0.059999999999999998;1;4.200085892769948;34;90;36;2; nein
2019_02_22 08:58;1;3;0;control;65;13;0;52;56;0;0;0.46999999999999997;0.53000000000000003;0.0;0.0;94;71;27;2;0.089999999999999997;0.31;0.57999999999999996;0.020000000000000101;0;4.199971390459268;34;90;36;2; nein
2019_02_22 08:58;1;3;0;control;66;65;1;75;64;59;52;0.59999999999999998;0.22;0.14000000000000001;0.040000000000000001;1;99;0;0;0.35999999999999999;0.64000000000000001;0.0;0.0;0;1.0832864793296721;34;90;36;2; nein
2019_02_22 08:58;1;3;0;control;67;67;1;44;42;8;89;0.88;0.070000000000000007;0.029999999999999999;0.02;10;63;0;0;0.39000000000000001;0.60999999999999999;0.0;0.0;0;1.4001108459351599;34;90;36;2; nein
2019_02_22 08:58;1;3;0;control;68;114;1;57;39;79;97;0.77000000000000002;0.02;0.13;0.080000000000000002;92;36;6;1;0.54000000000000004;0.12;0.13;0.20999999999999999;1;3.3333296983396394;34;90;36;2; nein
2019_02_22 08:58;1;3;0;control;69;112;0;70;44;98;64;0.02;0.75;0.12;0.11;33;2;63;85;0.23999999999999999;0.31;0.080000000000000002;0.37;0;4.383266176819234;34;90;36;2; nein
2019_02_22 08:58;1;3;0;control;70;45;1;97;87;0;0;0.71999999999999997;0.28000000000000003;0.0;0.0;96;11;14;4;0.25;0.029999999999999999;0.14000000000000001;0.57999999999999996;0;3.783609555458497;34;90;36;2; nein
2019_02_22 08:58;1;3;0;control;71;4;1;40;43;0;0;0.58999999999999997;0.40999999999999998;0.0;0.0;2;33;88;81;0.69999999999999996;0.14000000000000001;0.13;0.029999999999999999;0;6.400026813426393;34;90;36;2; nein
2019_02_22 08:58;1;3;0;control;72;3;1;53;40;0;0;0.31;0.68999999999999995;0.0;0.0;96;24;7;88;0.11;0.27000000000000002;0.58999999999999997;0.029999999999999999;0;3.699786166132526;34;90;36;2; nein
2019_02_22 08:58;1;3;0;control;73;146;0;25;5;64;35;0.94999999999999996;0.02;0.01;0.02;47;97;12;79;0.20999999999999999;0.029999999999999999;0.02;0.73999999999999999;1;8.06691457325769;34;90;36;2; nein
2019_02_22 08:58;1;3;0;control;74;111;1;51;36;48;27;0.93000000000000005;0.01;0.01;0.049999999999999899;31;78;30;53;0.55000000000000004;0.16;0.029999999999999999;0.26000000000000001;0;3.7166253827567743;34;90;36;2; nein
2019_02_22 08:58;1;3;0;control;75;10;0;45;62;0;0;0.059999999999999998;0.93999999999999995;0.0;0.0;17;99;28;67;0.58999999999999997;0.34000000000000002;0.01;0.059999999999999998;0;2.2166402969232877;34;90;36;2; nein
2019_02_22 08:58;1;4;0;timed;1;34;1;32;48;0;0;0.28000000000000003;0.71999999999999997;0.0;0.0;97;83;7;62;0.040000000000000001;0.54000000000000004;0.35999999999999999;0.059999999999999901;0;2.2694236171764715;34;90;36;2; nein
2019_02_22 08:58;1;4;0;timed;2;44;1;79;74;0;0;0.71999999999999997;0.28000000000000003;0.0;0.0;3;67;15;36;0.41999999999999998;0.53000000000000003;0.02;0.029999999999999999;0;2.600025787075083;34;90;36;2; nein
2019_02_22 08:58;1;4;0;timed;3;83;0;17;12;7;41;0.65000000000000002;0.19;0.089999999999999997;0.070000000000000007;6;84;0;0;0.72999999999999998;0.27000000000000002;0.0;0.0;0;2.549921564313081;34;90;36;2; nein
2019_02_22 08:58;1;4;0;timed;4;81;1;67;38;52;65;0.27000000000000002;0.35999999999999999;0.01;0.35999999999999999;2;77;0;0;0.14000000000000001;0.85999999999999999;0.0;0.0;1;2.1166037652337764;34;90;36;2; nein
2019_02_22 08:58;1;4;0;timed;5;56;1;28;84;37;41;0.68000000000000005;0.28000000000000003;0.02;0.0199999999999999;6;95;0;0;0.72999999999999998;0.27000000000000002;0.0;0.0;0;2.08333362734038;34;90;36;2; nein
2019_02_22 08:58;1;4;0;timed;6;69;0;54;34;64;49;0.34000000000000002;0.25;0.20999999999999999;0.20000000000000001;14;98;0;0;0.62;0.38;0.0;0.0;0;2.4666328398402584;34;90;36;2; nein
2019_02_22 08:58;1;4;0;timed;7;90;0;27;44;50;72;0.68000000000000005;0.28999999999999998;0.02;0.0099999999999999707;6;96;0;0;0.46999999999999997;0.53000000000000003;0.0;0.0;1;2.0667769780434355;34;90;36;2; nein
2019_02_22 08:58;1;4;0;timed;8;96;0;51;54;39;7;0.17000000000000001;0.26000000000000001;0.10000000000000001;0.46999999999999997;24;96;0;0;0.28000000000000003;0.71999999999999997;0.0;0.0;1;2.3166790737564043;34;90;36;2; nein
2019_02_22 08:58;1;4;0;timed;9;97;0;17;33;32;74;0.94999999999999996;0.01;0.029999999999999999;0.01;76;23;0;0;0.33000000000000002;0.67000000000000004;0.0;0.0;0;2.7999827444696166;34;90;36;2; nein
2019_02_22 08:58;1;4;0;timed;10;52;0;71;51;10;54;0.22;0.12;0.19;0.46999999999999997;91;1;0;0;0.29999999999999999;0.69999999999999996;0.0;0.0;0;3.5999731865736067;34;90;36;2; nein
2019_02_22 08:58;1;4;0;timed;11;84;0;43;10;5;45;0.78000000000000003;0.13;0.059999999999999998;0.029999999999999999;87;1;0;0;0.57999999999999996;0.41999999999999998;0.0;0.0;1;1.7166353255342983;34;90;36;2; nein
2019_02_22 08:58;1;4;0;timed;12;49;1;21;30;0;0;0.53000000000000003;0.46999999999999997;0.0;0.0;93;99;89;25;0.44;0.02;0.11;0.42999999999999999;0;3.4832799363407503;34;90;36;2; nein
2019_02_22 08:58;1;4;0;timed;13;144;0;99;93;90;71;0.65000000000000002;0.32000000000000001;0.01;0.02;97;14;48;73;0.23000000000000001;0.46000000000000002;0.13;0.17999999999999999;0;2.700059752886773;34;90;36;2; nein
2019_02_22 08:58;1;4;0;timed;14;111;1;51;36;48;27;0.93000000000000005;0.01;0.01;0.049999999999999899;31;78;30;53;0.55000000000000004;0.16;0.029999999999999999;0.26000000000000001;0;2.349940231076289;34;90;36;2; nein
2019_02_22 08:58;1;4;0;timed;15;149;0;14;89;73;53;0.93999999999999995;0.01;0.01;0.040000000000000001;97;45;6;13;0.34000000000000002;0.01;0.40999999999999998;0.23999999999999999;1;2.6666363037757037;34;90;36;2; nein
2019_02_22 08:58;1;4;0;timed;16;42;0;70;48;0;0;0.79000000000000004;0.20999999999999999;0.0;0.0;51;8;12;67;0.19;0.26000000000000001;0.28999999999999998;0.26000000000000001;0;1.8499477683435543;34;90;36;2; nein
2019_02_22 08:58;1;4;0;timed;17;22;0;32;55;0;0;0.39000000000000001;0.60999999999999999;0.0;0.0;93;72;59;22;0.20000000000000001;0.11;0.14000000000000001;0.55000000000000004;0;3.2334589865226917;34;90;36;2; nein
2019_02_22 08:58;1;4;0;timed;18;135;1;48;60;41;51;0.14000000000000001;0.40000000000000002;0.089999999999999997;0.37;94;1;85;65;0.64000000000000001;0.29999999999999999;0.01;0.050000000000000003;1;2.7833706080587035;34;90;36;2; nein
2019_02_22 08:58;1;4;0;timed;19;82;0;78;66;30;27;0.28999999999999998;0.58999999999999997;0.080000000000000002;0.040000000000000001;90;6;0;0;0.82999999999999996;0.17000000000000001;0.0;0.0;1;1.4000996202175884;34;90;36;2; nein
2019_02_22 08:58;1;4;0;timed;20;106;1;85;69;22;61;0.10000000000000001;0.58999999999999997;0.17999999999999999;0.13;20;79;91;84;0.55000000000000004;0.14999999999999999;0.26000000000000001;0.039999999999999897;0;2.866625976116211;34;90;36;2; nein
2019_02_22 08:58;1;4;0;timed;21;147;0;39;43;76;28;0.14000000000000001;0.10000000000000001;0.10000000000000001;0.66000000000000003;6;31;68;85;0.27000000000000002;0.20000000000000001;0.22;0.31;1;3.749954856582008;34;90;36;2; nein
2019_02_22 08:58;1;4;0;timed;22;139;1;44;31;16;8;0.79000000000000004;0.070000000000000007;0.13;0.0099999999999999499;92;58;2;88;0.55000000000000004;0.070000000000000007;0.34000000000000002;0.039999999999999897;1;2.7333026283254185;34;90;36;2; nein
2019_02_22 08:58;1;4;0;timed;23;129;1;12;29;81;36;0.17999999999999999;0.79000000000000004;0.01;0.02;5;19;95;92;0.47999999999999998;0.26000000000000001;0.13;0.13;1;3.383425261262346;34;90;36;2; nein
2019_02_22 08:58;1;4;0;timed;24;28;1;47;30;0;0;0.97999999999999998;0.02;0.0;0.0;55;48;77;13;0.070000000000000007;0.26000000000000001;0.42999999999999999;0.23999999999999999;0;1.7332448960678448;34;90;36;2; nein
2019_02_22 08:58;1;4;0;timed;25;131;0;83;41;81;88;0.23999999999999999;0.58999999999999997;0.10000000000000001;0.070000000000000007;82;97;4;17;0.26000000000000001;0.46999999999999997;0.11;0.16;0;2.983435332334011;34;90;36;2; nein
2019_02_22 08:58;1;4;0;timed;26;68;1;84;27;55;62;0.01;0.050000000000000003;0.40999999999999998;0.53000000000000003;9;82;0;0;0.37;0.63;0.0;0.0;1;2.049978815468876;34;90;36;2; nein
2019_02_22 08:58;1;4;0;timed;27;92;0;90;86;65;94;0.16;0.34000000000000002;0.28000000000000003;0.22;79;22;0;0;0.35999999999999999;0.64000000000000001;0.0;0.0;1;2.499979312607593;34;90;36;2; nein
2019_02_22 08:58;1;4;0;timed;28;80;1;47;39;45;10;0.13;0.76000000000000001;0.059999999999999998;0.050000000000000003;2;87;0;0;0.48999999999999999;0.51000000000000001;0.0;0.0;0;2.5669121677469775;34;90;36;2; nein
2019_02_22 08:58;1;4;0;timed;29;108;0;48;72;39;70;0.14000000000000001;0.66000000000000003;0.02;0.17999999999999999;81;44;98;8;0.59999999999999998;0.029999999999999999;0.050000000000000003;0.32000000000000001;0;2.9166009427676727;34;90;36;2; nein
2019_02_22 08:58;1;4;0;timed;30;63;0;56;78;42;36;0.93000000000000005;0.040000000000000001;0.01;0.0199999999999999;2;72;0;0;0.32000000000000001;0.68000000000000005;0.0;0.0;1;3.48333381978091;34;90;36;2; nein
2019_02_22 08:58;1;4;0;timed;31;146;1;25;5;64;35;0.94999999999999996;0.02;0.01;0.02;47;97;12;79;0.20999999999999999;0.029999999999999999;0.02;0.73999999999999999;1;3.383392867051498;34;90;36;2; nein
2019_02_22 08:58;1;4;0;timed;32;29;1;44;51;0;0;0.78000000000000003;0.22;0.0;0.0;74;1;68;82;0.69999999999999996;0.28000000000000003;0.01;0.01;0;3.8332278650518674;34;90;36;2; nein
2019_02_22 08:58;1;4;0;timed;33;118;1;62;52;65;68;0.40999999999999998;0.44;0.10000000000000001;0.0500000000000001;79;20;14;37;0.56999999999999995;0.23999999999999999;0.14000000000000001;0.050000000000000003;1;3.4500928687511987;34;90;36;2; nein
2019_02_22 08:58;1;4;0;timed;34;16;0;64;53;0;0;0.65000000000000002;0.34999999999999998;0.0;0.0;29;17;81;46;0.10000000000000001;0.01;0.44;0.45000000000000001;0;3.066742980158324;34;90;36;2; nein
2019_02_22 08:58;1;4;0;timed;35;102;1;40;56;53;17;0.28000000000000003;0.26000000000000001;0.14999999999999999;0.31;1;76;29;62;0.68000000000000005;0.23000000000000001;0.050000000000000003;0.039999999999999897;0;3.7834822237568915;34;90;36;2; nein
2019_02_22 08:58;1;4;0;timed;36;64;0;48;39;34;19;0.46000000000000002;0.5;0.02;0.02;13;92;0;0;0.68999999999999995;0.31;0.0;0.0;0;3.0332903441840244;34;90;36;2; nein
2019_02_22 08:58;1;4;0;timed;37;46;0;5;19;0;0;0.32000000000000001;0.68000000000000005;0.0;0.0;88;38;97;66;0.60999999999999999;0.20000000000000001;0.040000000000000001;0.14999999999999999;0;2.433338005369478;34;90;36;2; nein
2019_02_22 08:58;1;4;0;timed;38;7;1;49;29;0;0;0.95999999999999996;0.040000000000000001;0.0;0.0;23;99;64;25;0.68999999999999995;0.12;0.059999999999999998;0.13;0;2.4999174107979343;34;90;36;2; nein
2019_02_22 08:58;1;4;0;timed;39;110;0;47;44;23;52;0.13;0.27000000000000002;0.040000000000000001;0.56000000000000005;99;2;30;22;0.28999999999999998;0.5;0.11;0.10000000000000001;1;3.033310871208414;34;90;36;2; nein
2019_02_22 08:58;1;4;0;timed;40;105;0;49;74;63;58;0.84999999999999998;0.080000000000000002;0.02;0.050000000000000003;97;5;86;8;0.25;0.52000000000000002;0.070000000000000007;0.16;0;2.849832624563078;34;90;36;2; nein
2019_02_22 08:58;1;4;0;timed;41;5;0;70;5;0;0;0.98999999999999999;0.01;0.0;0.0;92;87;47;1;0.44;0.02;0.16;0.38;0;1.8834180447306608;34;90;36;2; nein
2019_02_22 08:58;1;4;0;timed;42;127;0;89;26;62;79;0.02;0.28999999999999998;0.53000000000000003;0.16;96;6;60;13;0.53000000000000003;0.25;0.17000000000000001;0.050000000000000003;1;3.499955578235131;34;90;36;2; nein
2019_02_22 08:58;1;4;0;timed;43;117;0;65;85;92;41;0.23000000000000001;0.17999999999999999;0.54000000000000004;0.050000000000000003;99;93;10;13;0.64000000000000001;0.16;0.01;0.19;1;3.033391696369108;34;90;36;2; nein
2019_02_22 08:58;1;4;0;timed;44;76;1;39;62;9;28;0.01;0.51000000000000001;0.26000000000000001;0.22;77;7;0;0;0.57999999999999996;0.41999999999999998;0.0;0.0;1;2.533299485124644;34;90;36;2; nein
2019_02_22 08:58;1;4;0;timed;45;11;0;17;36;0;0;0.14000000000000001;0.85999999999999999;0.0;0.0;19;41;34;95;0.88;0.02;0.050000000000000003;0.050000000000000003;1;2.56660490384229;34;90;36;2; nein
2019_02_22 08:58;1;4;0;timed;46;99;0;8;24;15;73;0.56000000000000005;0.35999999999999999;0.070000000000000007;0.0099999999999999499;88;12;0;0;0.52000000000000002;0.47999999999999998;0.0;0.0;1;2.8000706257948877;34;90;36;2; nein
2019_02_22 08:58;1;4;0;timed;47;91;1;74;81;86;48;0.93000000000000005;0.02;0.01;0.039999999999999897;7;64;0;0;0.13;0.87;0.0;0.0;1;2.533339897704991;34;90;36;2; nein
2019_02_22 08:58;1;4;0;timed;48;150;1;25;21;78;38;0.84999999999999998;0.059999999999999998;0.050000000000000003;0.040000000000000001;31;43;64;95;0.059999999999999998;0.45000000000000001;0.13;0.35999999999999999;1;3.266643167499751;34;90;36;2; nein
2019_02_22 08:58;1;4;0;timed;49;30;1;33;30;0;0;0.71999999999999997;0.28000000000000003;0.0;0.0;9;88;1;14;0.55000000000000004;0.39000000000000001;0.01;0.049999999999999899;1;3.483299821896253;34;90;36;2; nein
2019_02_22 08:58;1;4;0;timed;50;79;0;52;46;29;22;0.17999999999999999;0.51000000000000001;0.23999999999999999;0.070000000000000104;93;14;0;0;0.45000000000000001;0.55000000000000004;0.0;0.0;1;2.199967220907183;34;90;36;2; nein
2019_02_22 08:58;1;4;0;timed;51;35;1;33;37;0;0;0.88;0.12;0.0;0.0;63;4;79;98;0.16;0.46000000000000002;0.17000000000000001;0.20999999999999999;1;3.5000829099367365;34;90;36;2; nein
2019_02_22 08:58;1;4;0;timed;52;143;0;88;44;56;73;0.95999999999999996;0.02;0.01;0.01;20;3;87;32;0.19;0.40000000000000002;0.28000000000000003;0.13;0;3.0999637248983163;34;90;36;2; nein
2019_02_22 08:58;1;4;0;timed;53;70;1;66;55;69;50;0.22;0.29999999999999999;0.29999999999999999;0.17999999999999999;2;90;0;0;0.34000000000000002;0.66000000000000003;0.0;0.0;1;2.6334219737314015;34;90;36;2; nein
2019_02_22 08:58;1;4;0;timed;54;1;1;22;51;0;0;0.26000000000000001;0.73999999999999999;0.0;0.0;14;11;92;31;0.29999999999999999;0.40999999999999998;0.14999999999999999;0.14000000000000001;1;3.4667662655024287;34;90;36;2; nein
2019_02_22 08:58;1;4;0;timed;55;128;0;70;49;27;54;0.27000000000000002;0.53000000000000003;0.02;0.17999999999999999;72;97;6;20;0.29999999999999999;0.39000000000000001;0.22;0.0899999999999999;1;2.883409705626036;34;90;36;2; nein
2019_02_22 08:58;1;4;0;timed;56;66;1;89;23;27;15;0.070000000000000007;0.54000000000000004;0.17000000000000001;0.22;9;73;0;0;0.72999999999999998;0.27000000000000002;0.0;0.0;0;3.1334125120556564;34;90;36;2; nein
2019_02_22 08:58;1;4;0;timed;57;39;1;14;33;0;0;0.78000000000000003;0.22;0.0;0.0;93;84;1;25;0.14000000000000001;0.23999999999999999;0.39000000000000001;0.23000000000000001;0;3.4501547705608573;34;90;36;2; nein
2019_02_22 08:58;1;4;0;timed;58;114;1;57;39;79;97;0.77000000000000002;0.02;0.13;0.080000000000000002;92;36;6;1;0.54000000000000004;0.12;0.13;0.20999999999999999;0;2.9502075314294416;34;90;36;2; nein
2019_02_22 08:58;1;4;0;timed;59;41;0;99;40;0;0;0.89000000000000001;0.11;0.0;0.0;1;67;52;46;0.51000000000000001;0.38;0.029999999999999999;0.080000000000000002;0;1.9333179594468675;34;90;36;2; nein
2019_02_22 08:58;1;4;0;timed;60;78;1;74;36;34;3;0.14999999999999999;0.64000000000000001;0.13;0.080000000000000002;1;83;0;0;0.41999999999999998;0.57999999999999996;0.0;0.0;1;2.249868097827857;34;90;36;2; nein
2019_02_22 08:58;1;4;0;timed;61;51;0;52;23;43;16;0.60999999999999999;0.20999999999999999;0.01;0.17000000000000001;92;7;0;0;0.14999999999999999;0.84999999999999998;0.0;0.0;0;3.0499582884440315;34;90;36;2; nein
2019_02_22 08:58;1;4;0;timed;62;12;1;53;68;0;0;0.31;0.68999999999999995;0.0;0.0;69;54;97;29;0.25;0.20999999999999999;0.20000000000000001;0.34000000000000002;0;2.5999747902474155;34;90;36;2; nein
2019_02_22 08:58;1;4;0;timed;63;115;0;50;28;61;79;0.83999999999999997;0.040000000000000001;0.059999999999999998;0.059999999999999998;1;26;97;55;0.45000000000000001;0.080000000000000002;0.40999999999999998;0.060000000000000102;0;3.2332877141584504;34;90;36;2; nein
2019_02_22 08:58;1;4;0;timed;64;2;1;59;32;0;0;0.080000000000000002;0.92000000000000004;0.0;0.0;33;38;85;1;0.28999999999999998;0.050000000000000003;0.070000000000000007;0.58999999999999997;0;3.200010520100477;34;90;36;2; nein
2019_02_22 08:58;1;4;0;timed;65;122;1;35;58;25;31;0.81999999999999995;0.070000000000000007;0.080000000000000002;0.029999999999999999;18;64;68;89;0.63;0.17000000000000001;0.11;0.089999999999999997;0;3.2833916161853267;34;90;36;2; nein
2019_02_22 08:58;1;4;0;timed;66;148;0;37;63;55;10;0.72999999999999998;0.070000000000000007;0.029999999999999999;0.17000000000000001;80;14;23;70;0.46999999999999997;0.10000000000000001;0.23000000000000001;0.20000000000000001;0;2.9333092996084815;34;90;36;2; nein
2019_02_22 08:58;1;4;0;timed;67;140;1;36;32;26;27;0.39000000000000001;0.14999999999999999;0.19;0.27000000000000002;44;3;99;25;0.29999999999999999;0.34000000000000002;0.34000000000000002;0.0199999999999999;0;2.849965088020781;34;90;36;2; nein
2019_02_22 08:58;1;4;0;timed;68;100;0;27;14;59;52;0.02;0.95999999999999996;0.01;0.01;17;98;0;0;0.48999999999999999;0.51000000000000001;0.0;0.0;1;2.7666410827237087;34;90;36;2; nein
2019_02_22 08:58;1;4;0;timed;69;145;1;91;89;90;74;0.57999999999999996;0.29999999999999999;0.11;0.010000000000000101;2;75;84;39;0.32000000000000001;0.27000000000000002;0.39000000000000001;0.0199999999999999;0;3.3166344916239723;34;90;36;2; nein
2019_02_22 08:58;1;4;0;timed;70;54;1;44;79;78;52;0.79000000000000004;0.19;0.01;0.0099999999999999603;96;1;0;0;0.28000000000000003;0.71999999999999997;0.0;0.0;0;2.9499563961089734;34;90;36;2; nein
2019_02_22 08:58;1;4;0;timed;71;62;1;12;45;16;50;0.20999999999999999;0.76000000000000001;0.02;0.01;92;15;0;0;0.20999999999999999;0.79000000000000004;0.0;0.0;0;3.0334965766378446;34;90;36;2; nein
2019_02_22 08:58;1;4;0;timed;72;57;1;52;35;23;47;0.22;0.68000000000000005;0.040000000000000001;0.059999999999999998;71;7;0;0;0.28999999999999998;0.70999999999999996;0.0;0.0;0;2.300167327327017;34;90;36;2; nein
2019_02_22 08:58;1;4;0;timed;73;23;1;54;40;0;0;0.93000000000000005;0.070000000000000007;0.0;0.0;36;23;71;86;0.02;0.41999999999999998;0.19;0.37;0;2.5334765307143243;34;90;36;2; nein
2019_02_22 08:58;1;4;0;timed;74;98;0;27;10;31;79;0.23000000000000001;0.67000000000000004;0.070000000000000007;0.029999999999999999;25;99;0;0;0.38;0.62;0.0;0.0;NA;4.116694212437324;34;90;36;2; nein
2019_02_22 08:58;1;4;0;timed;75;89;1;26;41;13;56;0.059999999999999998;0.40999999999999998;0.050000000000000003;0.47999999999999998;5;97;0;0;0.37;0.63;0.0;0.0;0;2.4333514762297455;34;90;36;2; nein
