date;id;block;order;cond;trial;gameid;leftright;oa1;oa2;oa3;oa4;pa1;pa2;pa3;pa4;ob1;ob2;ob3;ob4;pb1;pb2;pb3;pb4;choice;rt;paytrial;payout;alter;geschlecht;comment
2019_03_04 11:47;25;0;0;practice;1;68;0;39;58;40;8;0.48999999999999999;0.44;0.02;0.050000000000000003;92;83;51;2;0.57999999999999996;0.13;0.02;0.27000000000000002;1;7.4479154506043415;16;92;19;2; nein 
2019_03_04 11:47;25;0;0;practice;2;7;1;13;31;0;0;0.51000000000000001;0.48999999999999999;0.0;0.0;8;79;42;18;0.85999999999999999;0.089999999999999997;0.02;0.029999999999999999;0;9.316080754641007;16;92;19;2; nein 
2019_03_04 11:47;25;0;0;practice;3;39;0;53;65;48;75;0.92000000000000004;0.029999999999999999;0.01;0.040000000000000001;16;83;0;0;0.31;0.68999999999999995;0.0;0.0;1;5.513703708929825;16;92;19;2; nein 
2019_03_04 11:47;25;0;0;practice;4;11;1;10;44;0;0;0.48999999999999999;0.51000000000000001;0.0;0.0;88;12;54;50;0.17000000000000001;0.75;0.02;0.059999999999999998;0;8.365585755942448;16;92;19;2; nein 
2019_03_04 11:47;25;0;0;practice;5;69;0;38;74;27;73;0.22;0.19;0.45000000000000001;0.14000000000000001;1;97;79;84;0.28000000000000003;0.45000000000000001;0.17000000000000001;0.10000000000000001;1;9.526415111282404;16;92;19;2; nein 
2019_03_04 11:47;25;0;0;practice;6;20;0;32;11;0;0;0.40999999999999998;0.58999999999999997;0.0;0.0;1;86;42;65;0.45000000000000001;0.38;0.050000000000000003;0.12;0;5.353568390899454;16;92;19;2; nein 
2019_03_04 11:47;25;0;0;practice;7;53;1;47;24;95;38;0.57999999999999996;0.28000000000000003;0.02;0.12;8;22;93;96;0.54000000000000004;0.34000000000000002;0.10000000000000001;0.0199999999999999;0;6.4043889841777855;16;92;19;2; nein 
2019_03_04 11:47;25;0;0;practice;8;18;1;47;36;0;0;0.089999999999999997;0.91000000000000003;0.0;0.0;2;44;81;9;0.20000000000000001;0.25;0.51000000000000001;0.040000000000000001;0;7.915145279583157;16;92;19;2; nein 
2019_03_04 11:47;25;0;0;practice;9;63;0;24;82;6;96;0.91000000000000003;0.070000000000000007;0.01;0.0099999999999999603;73;10;71;22;0.31;0.51000000000000001;0.050000000000000003;0.13;0;8.495562843731022;16;92;19;2; nein 
2019_03_04 11:47;25;0;0;practice;10;13;0;15;25;0;0;0.29999999999999999;0.69999999999999996;0.0;0.0;3;43;35;73;0.44;0.40000000000000002;0.01;0.14999999999999999;0;7.014554898863935;16;92;19;2; nein 
2019_03_04 11:47;25;0;0;practice;11;58;0;44;50;85;42;0.38;0.57999999999999996;0.02;0.02;37;88;19;12;0.20000000000000001;0.29999999999999999;0.46000000000000002;0.040000000000000001;0;6.724368406807116;16;92;19;2; nein 
2019_03_04 11:47;25;0;0;practice;12;41;0;19;54;51;8;0.76000000000000001;0.070000000000000007;0.16;0.0099999999999999794;2;77;0;0;0.54000000000000004;0.46000000000000002;0.0;0.0;0;5.473567569855732;16;92;19;2; nein 
2019_03_04 11:47;25;0;0;practice;13;55;0;53;11;80;74;0.31;0.37;0.28000000000000003;0.039999999999999897;6;93;98;96;0.69999999999999996;0.22;0.050000000000000003;0.029999999999999999;1;7.725028447832301;16;92;19;2; nein 
2019_03_04 11:47;25;0;0;practice;14;34;1;57;23;66;79;0.56000000000000005;0.23000000000000001;0.13;0.079999999999999905;85;9;0;0;0.56000000000000005;0.44;0.0;0.0;1;7.354915092682859;16;92;19;2; nein 
2019_03_04 11:47;25;0;0;practice;15;75;0;21;86;27;62;0.88;0.040000000000000001;0.070000000000000007;0.0099999999999999794;13;3;49;87;0.28999999999999998;0.39000000000000001;0.070000000000000007;0.25;0;9.966672418238886;16;92;19;2; nein 
2019_03_04 11:47;25;0;0;practice;16;65;1;35;15;77;1;0.62;0.33000000000000002;0.029999999999999999;0.02;68;3;25;96;0.38;0.28000000000000003;0.28000000000000003;0.059999999999999901;0;4.092703050813725;16;92;19;2; nein 
2019_03_04 11:47;25;0;0;practice;17;70;0;21;42;14;63;0.96999999999999997;0.01;0.01;0.01;70;2;6;76;0.23999999999999999;0.42999999999999999;0.01;0.32000000000000001;0;4.793112738087075;16;92;19;2; nein 
2019_03_04 11:47;25;0;0;practice;18;25;1;7;18;0;0;0.20999999999999999;0.79000000000000004;0.0;0.0;92;45;33;13;0.41999999999999998;0.17999999999999999;0.22;0.17999999999999999;0;6.434311485481885;16;92;19;2; nein 
2019_03_04 11:47;25;0;0;practice;19;61;1;51;48;56;88;0.91000000000000003;0.02;0.01;0.059999999999999998;78;21;14;82;0.55000000000000004;0.29999999999999999;0.070000000000000007;0.080000000000000002;0;5.263430135073577;16;92;19;2; nein 
2019_03_04 11:47;25;0;0;practice;20;26;0;24;46;74;59;0.29999999999999999;0.11;0.25;0.34000000000000002;91;6;0;0;0.28999999999999998;0.70999999999999996;0.0;0.0;1;5.5135690066799725;16;92;19;2; nein 
2019_03_04 11:47;25;0;0;practice;21;8;1;20;44;0;0;0.26000000000000001;0.73999999999999999;0.0;0.0;99;3;69;24;0.20999999999999999;0.60999999999999999;0.12;0.060000000000000102;0;3.4622474493153277;16;92;19;2; nein 
2019_03_04 11:47;25;0;0;practice;22;14;0;92;56;0;0;0.11;0.89000000000000001;0.0;0.0;97;31;51;4;0.58999999999999997;0.22;0.080000000000000002;0.11;0;5.233528801265493;16;92;19;2; nein 
2019_03_04 11:47;25;0;0;practice;23;2;1;41;60;0;0;0.97999999999999998;0.02;0.0;0.0;10;14;97;6;0.54000000000000004;0.17000000000000001;0.12;0.17000000000000001;0;5.793901387689402;16;92;19;2; nein 
2019_03_04 11:47;25;0;0;practice;24;19;1;25;73;0;0;0.69999999999999996;0.29999999999999999;0.0;0.0;87;84;1;86;0.040000000000000001;0.59999999999999998;0.28000000000000003;0.080000000000000002;1;5.96386772495498;16;92;19;2; nein 
2019_03_04 11:47;25;0;0;practice;25;51;0;38;13;51;84;0.91000000000000003;0.070000000000000007;0.01;0.0099999999999999603;4;89;35;16;0.80000000000000004;0.089999999999999997;0.059999999999999998;0.050000000000000003;0;4.13283245477578;16;92;19;2; nein 
2019_03_04 11:47;25;0;0;practice;26;10;1;34;59;0;0;0.16;0.83999999999999997;0.0;0.0;21;61;96;7;0.19;0.01;0.5;0.29999999999999999;0;4.142667643365712;16;92;19;2; nein 
2019_03_04 11:47;25;0;0;practice;27;6;0;42;59;0;0;0.35999999999999999;0.64000000000000001;0.0;0.0;77;19;6;7;0.44;0.14999999999999999;0.17999999999999999;0.23000000000000001;0;6.154142030052753;16;92;19;2; nein 
2019_03_04 11:47;25;0;0;practice;28;46;0;79;57;98;81;0.67000000000000004;0.070000000000000007;0.20999999999999999;0.050000000000000003;1;76;0;0;0.56000000000000005;0.44;0.0;0.0;0;7.154757170328594;16;92;19;2; nein 
2019_03_04 11:47;25;0;0;practice;29;71;0;94;87;26;75;0.71999999999999997;0.23999999999999999;0.02;0.02;90;27;12;83;0.16;0.73999999999999999;0.02;0.080000000000000002;0;4.412974007596858;16;92;19;2; nein 
2019_03_04 11:47;25;0;0;practice;30;52;1;17;61;57;59;0.070000000000000007;0.050000000000000003;0.33000000000000002;0.55000000000000004;12;93;94;62;0.71999999999999997;0.16;0.080000000000000002;0.040000000000000001;1;4.923261410884152;16;92;19;2; nein 
2019_03_04 11:47;25;0;0;practice;31;64;0;44;60;96;45;0.53000000000000003;0.10000000000000001;0.029999999999999999;0.34000000000000002;88;20;43;31;0.47999999999999998;0.38;0.050000000000000003;0.089999999999999997;0;3.7925306319339143;16;92;19;2; nein 
2019_03_04 11:47;25;0;0;practice;32;21;0;59;69;0;0;0.34000000000000002;0.66000000000000003;0.0;0.0;64;18;5;24;0.14999999999999999;0.040000000000000001;0.51000000000000001;0.29999999999999999;0;5.223366157919372;16;92;19;2; nein 
2019_03_04 11:47;25;0;0;practice;33;62;1;65;52;74;55;0.16;0.12;0.14999999999999999;0.56999999999999995;72;86;2;68;0.12;0.53000000000000003;0.22;0.13;0;6.013898706472901;16;92;19;2; nein 
2019_03_04 11:47;25;0;0;practice;34;73;0;99;88;95;28;0.83999999999999997;0.14000000000000001;0.01;0.01;90;93;10;74;0.080000000000000002;0.46000000000000002;0.34999999999999998;0.11;0;3.172168398337817;16;92;19;2; nein 
2019_03_04 11:47;25;0;0;practice;35;16;0;50;42;0;0;0.32000000000000001;0.68000000000000005;0.0;0.0;97;2;56;31;0.35999999999999999;0.16;0.16;0.32000000000000001;0;3.5424068341508246;16;92;19;2; nein 
2019_03_04 11:47;25;0;0;practice;36;49;1;14;31;42;22;0.77000000000000002;0.089999999999999997;0.02;0.12;87;28;0;0;0.68000000000000005;0.32000000000000001;0.0;0.0;1;2.5516252788656857;16;92;19;2; nein 
2019_03_04 11:47;25;0;0;practice;37;23;0;99;93;0;0;0.57999999999999996;0.41999999999999998;0.0;0.0;64;10;80;81;0.13;0.55000000000000004;0.02;0.29999999999999999;0;3.292111451359233;16;92;19;2; nein 
2019_03_04 11:47;25;0;0;practice;38;40;0;29;65;30;41;0.70999999999999996;0.01;0.14999999999999999;0.13;2;59;0;0;0.32000000000000001;0.68000000000000005;0.0;0.0;1;4.683018343881486;16;92;19;2; nein 
2019_03_04 11:47;25;0;0;practice;39;29;1;66;40;92;49;0.46999999999999997;0.10000000000000001;0.34000000000000002;0.089999999999999997;8;94;0;0;0.44;0.56000000000000005;0.0;0.0;1;3.992698175874466;16;92;19;2; nein 
2019_03_04 11:47;25;0;0;practice;40;67;1;74;31;10;77;0.11;0.070000000000000007;0.77000000000000002;0.050000000000000003;2;23;8;97;0.56999999999999995;0.01;0.059999999999999998;0.35999999999999999;0;4.633118857416775;16;92;19;2; nein 
2019_03_04 11:47;25;0;0;practice;41;35;1;84;95;4;35;0.89000000000000001;0.050000000000000003;0.01;0.050000000000000003;5;98;0;0;0.19;0.81000000000000005;0.0;0.0;1;2.881846562589999;16;92;19;2; nein 
2019_03_04 11:47;25;0;0;practice;42;9;1;57;44;0;0;0.14999999999999999;0.84999999999999998;0.0;0.0;38;35;64;95;0.34000000000000002;0.45000000000000001;0.089999999999999997;0.12;0;5.233505388730919;16;92;19;2; nein 
2019_03_04 11:47;25;0;0;practice;43;57;1;39;68;59;91;0.73999999999999999;0.040000000000000001;0.14999999999999999;0.070000000000000007;9;22;40;84;0.29999999999999999;0.32000000000000001;0.040000000000000001;0.34000000000000002;0;7.454901686600351;16;92;19;2; nein 
2019_03_04 11:47;25;0;0;practice;44;56;1;47;52;64;10;0.77000000000000002;0.040000000000000001;0.11;0.080000000000000002;1;5;12;99;0.14000000000000001;0.28999999999999998;0.27000000000000002;0.29999999999999999;0;5.853920861785809;16;92;19;2; nein 
2019_03_04 11:47;25;0;0;practice;45;45;0;37;40;75;23;0.54000000000000004;0.38;0.059999999999999998;0.02;1;90;0;0;0.28000000000000003;0.71999999999999997;0.0;0.0;1;4.823120550816384;16;92;19;2; nein 
2019_03_04 11:47;25;0;0;practice;46;5;1;23;58;0;0;0.71999999999999997;0.28000000000000003;0.0;0.0;94;12;52;3;0.11;0.84999999999999998;0.029999999999999999;0.01;1;5.033374727549017;16;92;19;2; nein 
2019_03_04 11:47;25;0;0;practice;47;33;0;54;82;55;71;0.56000000000000005;0.20999999999999999;0.02;0.20999999999999999;13;99;0;0;0.5;0.5;0.0;0.0;1;5.873808366164667;16;92;19;2; nein 
2019_03_04 11:47;25;0;0;practice;48;54;1;69;80;22;55;0.27000000000000002;0.31;0.059999999999999998;0.35999999999999999;52;2;49;90;0.059999999999999998;0.33000000000000002;0.20000000000000001;0.40999999999999998;0;7.5248682804431155;16;92;19;2; nein 
2019_03_04 11:47;25;0;0;practice;49;50;0;17;12;21;14;0.55000000000000004;0.34000000000000002;0.059999999999999998;0.049999999999999899;13;93;0;0;0.28999999999999998;0.70999999999999996;0.0;0.0;1;4.272890081681908;16;92;19;2; nein 
2019_03_04 11:47;25;0;0;practice;50;48;0;20;25;24;35;0.32000000000000001;0.13;0.48999999999999999;0.059999999999999901;44;76;0;0;0.29999999999999999;0.69999999999999996;0.0;0.0;1;2.191505868528111;16;92;19;2; nein 
2019_03_04 11:47;25;0;0;practice;51;4;1;40;59;0;0;0.19;0.81000000000000005;0.0;0.0;10;88;13;45;0.56000000000000005;0.28999999999999998;0.01;0.14000000000000001;0;5.303406555765832;16;92;19;2; nein 
2019_03_04 11:47;25;0;0;practice;52;37;0;50;66;99;12;0.26000000000000001;0.71999999999999997;0.01;0.01;22;90;0;0;0.37;0.63;0.0;0.0;0;5.783773061346437;16;92;19;2; nein 
2019_03_04 11:47;25;0;0;practice;53;17;0;27;61;0;0;0.68999999999999995;0.31;0.0;0.0;3;91;69;43;0.29999999999999999;0.33000000000000002;0.27000000000000002;0.099999999999999895;0;6.234195898123289;16;92;19;2; nein 
2019_03_04 11:47;25;0;0;practice;54;72;0;86;85;97;43;0.51000000000000001;0.14999999999999999;0.33000000000000002;0.0099999999999999499;72;29;10;90;0.01;0.11;0.65000000000000002;0.23000000000000001;0;6.5742777072900935;16;92;19;2; nein 
2019_03_04 11:47;25;0;0;practice;55;12;1;45;86;0;0;0.97999999999999998;0.02;0.0;0.0;6;23;95;81;0.14999999999999999;0.40999999999999998;0.050000000000000003;0.39000000000000001;0;4.152677624158969;16;92;19;2; nein 
2019_03_04 11:47;25;0;0;practice;56;43;1;11;17;21;44;0.16;0.46000000000000002;0.25;0.13;2;66;0;0;0.44;0.56000000000000005;0.0;0.0;1;4.683172610029942;16;92;19;2; nein 
2019_03_04 11:47;25;0;0;practice;57;66;1;44;18;63;36;0.47999999999999998;0.10000000000000001;0.029999999999999999;0.39000000000000001;13;93;61;53;0.52000000000000002;0.45000000000000001;0.02;0.0099999999999999707;1;4.162659381627236;16;92;19;2; nein 
2019_03_04 11:47;25;0;0;practice;58;42;1;23;45;91;22;0.72999999999999998;0.02;0.20000000000000001;0.050000000000000003;2;86;0;0;0.40999999999999998;0.58999999999999997;0.0;0.0;1;4.443025438198674;16;92;19;2; nein 
2019_03_04 11:47;25;0;0;practice;59;60;1;39;93;27;78;0.85999999999999999;0.02;0.11;0.01;22;5;62;95;0.059999999999999998;0.56999999999999995;0.14000000000000001;0.23000000000000001;0;9.175967322516954;16;92;19;2; nein 
2019_03_04 11:47;25;0;0;practice;60;74;1;36;46;10;12;0.11;0.19;0.65000000000000002;0.049999999999999899;92;24;79;19;0.51000000000000001;0.40999999999999998;0.02;0.059999999999999998;0;3.051969090323837;16;92;19;2; nein 
2019_03_04 11:47;25;0;0;practice;61;44;0;69;48;22;63;0.39000000000000001;0.40999999999999998;0.19;0.01;1;94;0;0;0.22;0.78000000000000003;0.0;0.0;1;5.193509404141878;16;92;19;2; nein 
2019_03_04 11:47;25;0;0;practice;62;36;1;56;89;86;77;0.66000000000000003;0.080000000000000002;0.14999999999999999;0.11;29;91;0;0;0.40999999999999998;0.58999999999999997;0.0;0.0;1;2.091318183393014;16;92;19;2; nein 
2019_03_04 11:47;25;0;0;practice;63;27;0;68;43;98;36;0.54000000000000004;0.44;0.01;0.0099999999999999603;97;13;0;0;0.27000000000000002;0.72999999999999998;0.0;0.0;0;3.382258687332069;16;92;19;2; nein 
2019_03_04 11:47;25;0;0;practice;64;28;1;37;83;75;8;0.83999999999999997;0.070000000000000007;0.01;0.080000000000000002;94;2;0;0;0.19;0.81000000000000005;0.0;0.0;0;4.463025515173285;16;92;19;2; nein 
2019_03_04 11:47;25;0;0;practice;65;3;1;20;70;0;0;0.13;0.87;0.0;0.0;95;19;80;73;0.31;0.57999999999999996;0.029999999999999999;0.080000000000000002;0;3.5623212789778336;16;92;19;2; nein 
2019_03_04 11:47;25;0;0;practice;66;38;0;51;89;10;60;0.57999999999999996;0.029999999999999999;0.080000000000000002;0.31;8;84;0;0;0.33000000000000002;0.67000000000000004;0.0;0.0;1;3.622330169328052;16;92;19;2; nein 
2019_03_04 11:47;25;0;0;practice;67;59;0;13;27;48;51;0.56999999999999995;0.13;0.13;0.17000000000000001;8;37;97;1;0.65000000000000002;0.16;0.14999999999999999;0.040000000000000001;0;6.734500261065477;16;92;19;2; nein 
2019_03_04 11:47;25;0;0;practice;68;31;0;72;59;40;92;0.59999999999999998;0.34999999999999998;0.02;0.029999999999999999;97;29;0;0;0.38;0.62;0.0;0.0;1;2.981870359988534;16;92;19;2; nein 
2019_03_04 11:47;25;0;0;practice;69;47;1;91;99;90;78;0.93000000000000005;0.040000000000000001;0.02;0.0099999999999999499;10;87;0;0;0.23000000000000001;0.77000000000000002;0.0;0.0;0;4.39296879910944;16;92;19;2; nein 
2019_03_04 11:47;25;0;0;practice;70;24;1;19;38;0;0;0.89000000000000001;0.11;0.0;0.0;45;76;95;57;0.29999999999999999;0.22;0.40000000000000002;0.080000000000000002;0;3.1920398667352856;16;92;19;2; nein 
2019_03_04 11:47;25;0;0;practice;71;1;0;67;36;0;0;0.14999999999999999;0.84999999999999998;0.0;0.0;1;4;81;77;0.25;0.54000000000000004;0.14000000000000001;0.070000000000000007;0;2.181397426802505;16;92;19;2; nein 
2019_03_04 11:47;25;0;0;practice;72;30;0;54;78;85;25;0.20999999999999999;0.60999999999999999;0.089999999999999997;0.090000000000000094;87;20;0;0;0.58999999999999997;0.40999999999999998;0.0;0.0;1;2.991892207410274;16;92;19;2; nein 
2019_03_04 11:47;25;0;0;practice;73;32;1;21;86;16;78;0.45000000000000001;0.41999999999999998;0.050000000000000003;0.080000000000000099;95;9;0;0;0.42999999999999999;0.56999999999999995;0.0;0.0;1;3.8324637554724177;16;92;19;2; nein 
2019_03_04 11:47;25;0;0;practice;74;22;0;84;87;0;0;0.17000000000000001;0.82999999999999996;0.0;0.0;3;24;41;83;0.68000000000000005;0.11;0.10000000000000001;0.11;0;6.324095859252338;16;92;19;2; nein 
2019_03_04 11:47;25;0;0;practice;75;15;0;24;59;0;0;0.56999999999999995;0.42999999999999999;0.0;0.0;9;8;80;22;0.31;0.10000000000000001;0.55000000000000004;0.039999999999999897;0;9.476307477771115;16;92;19;2; nein 
2019_03_04 11:47;25;1;0;control;1;112;1;70;44;98;64;0.02;0.75;0.12;0.11;33;2;63;85;0.23999999999999999;0.31;0.080000000000000002;0.37;0;7.9808761290933035;16;92;19;2; nein 
2019_03_04 11:47;25;1;0;control;2;130;0;37;79;23;95;0.94999999999999996;0.029999999999999999;0.01;0.01;94;4;58;49;0.46000000000000002;0.5;0.029999999999999999;0.01;0;8.695650528481565;16;92;19;2; nein 
2019_03_04 11:47;25;1;0;control;3;33;1;27;70;0;0;0.88;0.12;0.0;0.0;93;3;77;16;0.080000000000000002;0.40000000000000002;0.5;0.02;0;4.963340782580417;16;92;19;2; nein 
2019_03_04 11:47;25;1;0;control;4;28;0;47;30;0;0;0.97999999999999998;0.02;0.0;0.0;55;48;77;13;0.070000000000000007;0.26000000000000001;0.42999999999999999;0.23999999999999999;0;2.531600185760908;16;92;19;2; nein 
2019_03_04 11:47;25;1;0;control;5;76;0;39;62;9;28;0.01;0.51000000000000001;0.26000000000000001;0.22;77;7;0;0;0.57999999999999996;0.41999999999999998;0.0;0.0;1;8.555570771921339;16;92;19;2; nein 
2019_03_04 11:47;25;1;0;control;6;101;0;30;96;61;45;0.65000000000000002;0.14000000000000001;0.11;0.10000000000000001;3;98;63;89;0.75;0.19;0.040000000000000001;0.02;0;4.042607604647856;16;92;19;2; nein 
2019_03_04 11:47;25;1;0;control;7;23;1;54;40;0;0;0.93000000000000005;0.070000000000000007;0.0;0.0;36;23;71;86;0.02;0.41999999999999998;0.19;0.37;0;3.7125123637415527;16;92;19;2; nein 
2019_03_04 11:47;25;1;0;control;8;8;0;50;36;0;0;0.080000000000000002;0.92000000000000004;0.0;0.0;6;19;84;29;0.54000000000000004;0.070000000000000007;0.17000000000000001;0.22;0;3.542270528301742;16;92;19;2; nein 
2019_03_04 11:47;25;1;0;control;9;88;0;77;13;12;7;0.12;0.19;0.66000000000000003;0.029999999999999898;94;2;0;0;0.40999999999999998;0.58999999999999997;0.0;0.0;0;3.9026785863188707;16;92;19;2; nein 
2019_03_04 11:47;25;1;0;control;10;92;0;90;86;65;94;0.16;0.34000000000000002;0.28000000000000003;0.22;79;22;0;0;0.35999999999999999;0.64000000000000001;0.0;0.0;1;6.314093575729203;16;92;19;2; nein 
2019_03_04 11:47;25;1;0;control;11;145;1;91;89;90;74;0.57999999999999996;0.29999999999999999;0.11;0.010000000000000101;2;75;84;39;0.32000000000000001;0.27000000000000002;0.39000000000000001;0.0199999999999999;0;4.412901524956396;16;92;19;2; nein 
2019_03_04 11:47;25;1;0;control;12;64;1;48;39;34;19;0.46000000000000002;0.5;0.02;0.02;13;92;0;0;0.68999999999999995;0.31;0.0;0.0;1;6.784436951007592;16;92;19;2; nein 
2019_03_04 11:47;25;1;0;control;13;136;0;29;67;14;75;0.46000000000000002;0.29999999999999999;0.20999999999999999;0.0300000000000001;70;86;1;85;0.31;0.39000000000000001;0.27000000000000002;0.029999999999999898;0;7.164645598379138;16;92;19;2; nein 
2019_03_04 11:47;25;1;0;control;14;125;0;37;41;10;35;0.91000000000000003;0.040000000000000001;0.029999999999999999;0.02;7;13;91;93;0.26000000000000001;0.39000000000000001;0.16;0.19;0;5.93384066904764;16;92;19;2; nein 
2019_03_04 11:47;25;1;0;control;15;77;0;24;17;99;41;0.17999999999999999;0.13;0.10000000000000001;0.58999999999999997;12;97;0;0;0.59999999999999998;0.40000000000000002;0.0;0.0;1;3.822480394408558;16;92;19;2; nein 
2019_03_04 11:47;25;1;0;control;16;135;1;48;60;41;51;0.14000000000000001;0.40000000000000002;0.089999999999999997;0.37;94;1;85;65;0.64000000000000001;0.29999999999999999;0.01;0.050000000000000003;1;8.235509565784014;16;92;19;2; nein 
2019_03_04 11:47;25;1;0;control;17;61;0;43;18;39;70;0.75;0.089999999999999997;0.089999999999999997;0.070000000000000007;16;66;0;0;0.64000000000000001;0.35999999999999999;0.0;0.0;1;3.5224555065651657;16;92;19;2; nein 
2019_03_04 11:47;25;1;0;control;18;54;0;44;79;78;52;0.79000000000000004;0.19;0.01;0.0099999999999999603;96;1;0;0;0.28000000000000003;0.71999999999999997;0.0;0.0;0;3.8324759428196558;16;92;19;2; nein 
2019_03_04 11:47;25;1;0;control;19;22;0;32;55;0;0;0.39000000000000001;0.60999999999999999;0.0;0.0;93;72;59;22;0.20000000000000001;0.11;0.14000000000000001;0.55000000000000004;0;5.433518025085505;16;92;19;2; nein 
2019_03_04 11:47;25;1;0;control;20;24;1;35;27;0;0;0.070000000000000007;0.93000000000000005;0.0;0.0;62;3;81;95;0.35999999999999999;0.55000000000000004;0.01;0.080000000000000002;0;4.923226131724732;16;92;19;2; nein 
2019_03_04 11:47;25;1;0;control;21;18;0;68;50;0;0;0.029999999999999999;0.96999999999999997;0.0;0.0;34;64;15;89;0.65000000000000002;0.029999999999999999;0.050000000000000003;0.27000000000000002;0;3.8424961866421654;16;92;19;2; nein 
2019_03_04 11:47;25;1;0;control;22;87;0;10;30;63;4;0.56999999999999995;0.12;0.16;0.14999999999999999;86;2;0;0;0.42999999999999999;0.56999999999999995;0.0;0.0;1;6.674363082860509;16;92;19;2; nein 
2019_03_04 11:47;25;1;0;control;23;78;1;74;36;34;3;0.14999999999999999;0.64000000000000001;0.13;0.080000000000000002;1;83;0;0;0.41999999999999998;0.57999999999999996;0.0;0.0;1;4.633065617956163;16;92;19;2; nein 
2019_03_04 11:47;25;1;0;control;24;95;1;93;88;68;85;0.83999999999999997;0.14000000000000001;0.01;0.01;2;82;0;0;0.41999999999999998;0.57999999999999996;0.0;0.0;0;3.352138302007006;16;92;19;2; nein 
2019_03_04 11:47;25;1;0;control;25;119;1;60;58;11;18;0.25;0.72999999999999998;0.01;0.01;96;23;42;85;0.44;0.48999999999999999;0.059999999999999998;0.010000000000000101;0;8.97598707884572;16;92;19;2; nein 
2019_03_04 11:47;25;1;0;control;26;91;0;74;81;86;48;0.93000000000000005;0.02;0.01;0.039999999999999897;7;64;0;0;0.13;0.87;0.0;0.0;1;4.392963667594813;16;92;19;2; nein 
2019_03_04 11:47;25;1;0;control;27;49;0;21;30;0;0;0.53000000000000003;0.46999999999999997;0.0;0.0;93;99;89;25;0.44;0.02;0.11;0.42999999999999999;1;3.8424150445734995;16;92;19;2; nein 
2019_03_04 11:47;25;1;0;control;28;6;0;9;51;0;0;0.14999999999999999;0.84999999999999998;0.0;0.0;6;40;50;73;0.42999999999999999;0.26000000000000001;0.059999999999999998;0.25;0;5.833781271767293;16;92;19;2; nein 
2019_03_04 11:47;25;1;0;control;29;82;1;78;66;30;27;0.28999999999999998;0.58999999999999997;0.080000000000000002;0.040000000000000001;90;6;0;0;0.82999999999999996;0.17000000000000001;0.0;0.0;1;1.951371204764655;16;92;19;2; nein 
2019_03_04 11:47;25;1;0;control;30;93;0;87;81;73;98;0.80000000000000004;0.040000000000000001;0.14999999999999999;0.0099999999999999499;5;71;0;0;0.51000000000000001;0.48999999999999999;0.0;0.0;0;4.162830004477655;16;92;19;2; nein 
2019_03_04 11:47;25;1;0;control;31;147;0;39;43;76;28;0.14000000000000001;0.10000000000000001;0.10000000000000001;0.66000000000000003;6;31;68;85;0.27000000000000002;0.20000000000000001;0.22;0.31;0;7.044607612344407;16;92;19;2; nein 
2019_03_04 11:47;25;1;0;control;32;20;1;44;40;0;0;0.91000000000000003;0.089999999999999997;0.0;0.0;29;5;80;99;0.25;0.40000000000000002;0.26000000000000001;0.089999999999999997;0;3.0419732211921655;16;92;19;2; nein 
2019_03_04 11:47;25;1;0;control;33;118;0;62;52;65;68;0.40999999999999998;0.44;0.10000000000000001;0.0500000000000001;79;20;14;37;0.56999999999999995;0.23999999999999999;0.14000000000000001;0.050000000000000003;1;4.122672377186973;16;92;19;2; nein 
2019_03_04 11:47;25;1;0;control;34;63;1;56;78;42;36;0.93000000000000005;0.040000000000000001;0.01;0.0199999999999999;2;72;0;0;0.32000000000000001;0.68000000000000005;0.0;0.0;0;2.831834824251928;16;92;19;2; nein 
2019_03_04 11:47;25;1;0;control;35;11;1;17;36;0;0;0.14000000000000001;0.85999999999999999;0.0;0.0;19;41;34;95;0.88;0.02;0.050000000000000003;0.050000000000000003;0;3.0621044724994135;16;92;19;2; nein 
2019_03_04 11:47;25;1;0;control;36;102;1;40;56;53;17;0.28000000000000003;0.26000000000000001;0.14999999999999999;0.31;1;76;29;62;0.68000000000000005;0.23000000000000001;0.050000000000000003;0.039999999999999897;0;4.252870440808692;16;92;19;2; nein 
2019_03_04 11:47;25;1;0;control;37;123;0;26;24;51;92;0.72999999999999998;0.16;0.070000000000000007;0.040000000000000001;6;90;82;49;0.64000000000000001;0.25;0.050000000000000003;0.059999999999999998;0;4.002710722426855;16;92;19;2; nein 
2019_03_04 11:47;25;1;0;control;38;59;1;56;47;83;90;0.31;0.12;0.54000000000000004;0.029999999999999898;10;98;0;0;0.46999999999999997;0.53000000000000003;0.0;0.0;1;5.913959258341492;16;92;19;2; nein 
2019_03_04 11:47;25;1;0;control;39;31;1;10;59;0;0;0.23999999999999999;0.76000000000000001;0.0;0.0;1;79;53;73;0.23000000000000001;0.58999999999999997;0.050000000000000003;0.13;1;2.7618900393445074;16;92;19;2; nein 
2019_03_04 11:47;25;1;0;control;40;83;0;17;12;7;41;0.65000000000000002;0.19;0.089999999999999997;0.070000000000000007;6;84;0;0;0.72999999999999998;0.27000000000000002;0.0;0.0;0;8.13538826961485;16;92;19;2; nein 
2019_03_04 11:47;25;1;0;control;41;84;0;43;10;5;45;0.78000000000000003;0.13;0.059999999999999998;0.029999999999999999;87;1;0;0;0.57999999999999996;0.41999999999999998;0.0;0.0;1;2.5916761065145693;16;92;19;2; nein 
2019_03_04 11:47;25;1;0;control;42;111;0;51;36;48;27;0.93000000000000005;0.01;0.01;0.049999999999999899;31;78;30;53;0.55000000000000004;0.16;0.029999999999999999;0.26000000000000001;0;1.6910728970105993;16;92;19;2; nein 
2019_03_04 11:47;25;1;0;control;43;17;1;81;52;0;0;0.059999999999999998;0.93999999999999995;0.0;0.0;34;3;69;41;0.01;0.22;0.75;0.02;0;4.653120217268224;16;92;19;2; nein 
2019_03_04 11:47;25;1;0;control;44;120;1;64;40;48;51;0.19;0.02;0.070000000000000007;0.71999999999999997;97;9;79;94;0.23000000000000001;0.54000000000000004;0.01;0.22;1;2.3216070748185302;16;92;19;2; nein 
2019_03_04 11:47;25;1;0;control;45;73;0;65;68;70;47;0.25;0.23000000000000001;0.20999999999999999;0.31;27;95;0;0;0.45000000000000001;0.55000000000000004;0.0;0.0;1;3.0921132473904436;16;92;19;2; nein 
2019_03_04 11:47;25;1;0;control;46;42;0;70;48;0;0;0.79000000000000004;0.20999999999999999;0.0;0.0;51;8;12;67;0.19;0.26000000000000001;0.28999999999999998;0.26000000000000001;0;5.913820386736916;16;92;19;2; nein 
2019_03_04 11:47;25;1;0;control;47;10;0;45;62;0;0;0.059999999999999998;0.93999999999999995;0.0;0.0;17;99;28;67;0.58999999999999997;0.34000000000000002;0.01;0.059999999999999998;0;3.762424999709765;16;92;19;2; nein 
2019_03_04 11:47;25;1;0;control;48;56;1;28;84;37;41;0.68000000000000005;0.28000000000000003;0.02;0.0199999999999999;6;95;0;0;0.72999999999999998;0.27000000000000002;0.0;0.0;0;4.4428865665922785;16;92;19;2; nein 
2019_03_04 11:47;25;1;0;control;49;139;1;44;31;16;8;0.79000000000000004;0.070000000000000007;0.13;0.0099999999999999499;92;58;2;88;0.55000000000000004;0.070000000000000007;0.34000000000000002;0.039999999999999897;0;3.402322908235874;16;92;19;2; nein 
2019_03_04 11:47;25;1;0;control;50;80;0;47;39;45;10;0.13;0.76000000000000001;0.059999999999999998;0.050000000000000003;2;87;0;0;0.48999999999999999;0.51000000000000001;0.0;0.0;0;5.153462104408391;16;92;19;2; nein 
2019_03_04 11:47;25;1;0;control;51;5;0;70;5;0;0;0.98999999999999999;0.01;0.0;0.0;92;87;47;1;0.44;0.02;0.16;0.38;0;2.111359953918509;16;92;19;2; nein 
2019_03_04 11:47;25;1;0;control;52;100;0;27;14;59;52;0.02;0.95999999999999996;0.01;0.01;17;98;0;0;0.48999999999999999;0.51000000000000001;0.0;0.0;1;4.192851287432859;16;92;19;2; nein 
2019_03_04 11:47;25;1;0;control;53;52;0;71;51;10;54;0.22;0.12;0.19;0.46999999999999997;91;1;0;0;0.29999999999999999;0.69999999999999996;0.0;0.0;0;3.7325409847635456;16;92;19;2; nein 
2019_03_04 11:47;25;1;0;control;54;131;1;83;41;81;88;0.23999999999999999;0.58999999999999997;0.10000000000000001;0.070000000000000007;82;97;4;17;0.26000000000000001;0.46999999999999997;0.11;0.16;0;5.693835896738165;16;92;19;2; nein 
2019_03_04 11:47;25;1;0;control;55;132;1;27;70;21;19;0.64000000000000001;0.23000000000000001;0.029999999999999999;0.10000000000000001;11;85;55;6;0.39000000000000001;0.46999999999999997;0.029999999999999999;0.11;0;4.372811890230878;16;92;19;2; nein 
2019_03_04 11:47;25;1;0;control;56;142;0;98;65;64;84;0.88;0.070000000000000007;0.01;0.040000000000000001;5;68;60;16;0.46000000000000002;0.080000000000000002;0.27000000000000002;0.19;0;1.9712301650943118;16;92;19;2; nein 
2019_03_04 11:47;25;1;0;control;57;46;0;5;19;0;0;0.32000000000000001;0.68000000000000005;0.0;0.0;88;38;97;66;0.60999999999999999;0.20000000000000001;0.040000000000000001;0.14999999999999999;1;3.8726018188644957;16;92;19;2; nein 
2019_03_04 11:47;25;1;0;control;58;40;1;45;49;0;0;0.68999999999999995;0.31;0.0;0.0;2;92;65;73;0.23999999999999999;0.59999999999999998;0.11;0.050000000000000003;0;3.192067769345158;16;92;19;2; nein 
2019_03_04 11:47;25;1;0;control;59;4;0;40;43;0;0;0.58999999999999997;0.40999999999999998;0.0;0.0;2;33;88;81;0.69999999999999996;0.14000000000000001;0.13;0.029999999999999999;0;2.3214624302581797;16;92;19;2; nein 
2019_03_04 11:47;25;1;0;control;60;29;1;44;51;0;0;0.78000000000000003;0.22;0.0;0.0;74;1;68;82;0.69999999999999996;0.28000000000000003;0.01;0.01;1;4.14267822711372;16;92;19;2; nein 
2019_03_04 11:47;25;1;0;control;61;89;0;26;41;13;56;0.059999999999999998;0.40999999999999998;0.050000000000000003;0.47999999999999998;5;97;0;0;0.37;0.63;0.0;0.0;1;4.542948529629939;16;92;19;2; nein 
2019_03_04 11:47;25;1;0;control;62;104;0;55;85;93;3;0.87;0.02;0.089999999999999997;0.02;1;2;90;8;0.35999999999999999;0.070000000000000007;0.40000000000000002;0.17000000000000001;0;6.374137745237022;16;92;19;2; nein 
2019_03_04 11:47;25;1;0;control;63;53;0;26;70;50;80;0.29999999999999999;0.59999999999999998;0.040000000000000001;0.059999999999999998;89;1;0;0;0.40999999999999998;0.58999999999999997;0.0;0.0;0;2.9919066397942515;16;92;19;2; nein 
2019_03_04 11:47;25;1;0;control;64;67;0;44;42;8;89;0.88;0.070000000000000007;0.029999999999999999;0.02;10;63;0;0;0.39000000000000001;0.60999999999999999;0.0;0.0;0;2.161304661853137;16;92;19;2; nein 
2019_03_04 11:47;25;1;0;control;65;122;1;35;58;25;31;0.81999999999999995;0.070000000000000007;0.080000000000000002;0.029999999999999999;18;64;68;89;0.63;0.17000000000000001;0.11;0.089999999999999997;1;1.050388904641295;16;92;19;2; nein 
2019_03_04 11:47;25;1;0;control;66;146;1;25;5;64;35;0.94999999999999996;0.02;0.01;0.02;47;97;12;79;0.20999999999999999;0.029999999999999999;0.02;0.73999999999999999;0;3.4123216638436134;16;92;19;2; nein 
2019_03_04 11:47;25;1;0;control;67;38;0;40;70;0;0;0.53000000000000003;0.46999999999999997;0.0;0.0;97;90;6;96;0.56999999999999995;0.070000000000000007;0.27000000000000002;0.089999999999999997;1;2.4115275620042667;16;92;19;2; nein 
2019_03_04 11:47;25;1;0;control;68;144;1;99;93;90;71;0.65000000000000002;0.32000000000000001;0.01;0.02;97;14;48;73;0.23000000000000001;0.46000000000000002;0.13;0.17999999999999999;0;3.2021919263315795;16;92;19;2; nein 
2019_03_04 11:47;25;1;0;control;69;41;0;99;40;0;0;0.89000000000000001;0.11;0.0;0.0;1;67;52;46;0.51000000000000001;0.38;0.029999999999999999;0.080000000000000002;0;2.471556978411172;16;92;19;2; nein 
2019_03_04 11:47;25;1;0;control;70;35;0;33;37;0;0;0.88;0.12;0.0;0.0;63;4;79;98;0.16;0.46000000000000002;0.17000000000000001;0.20999999999999999;1;3.792519406746578;16;92;19;2; nein 
2019_03_04 11:47;25;1;0;control;71;71;0;68;55;36;51;0.20000000000000001;0.75;0.02;0.029999999999999999;38;81;0;0;0.52000000000000002;0.47999999999999998;0.0;0.0;0;3.7724304904331802;16;92;19;2; nein 
2019_03_04 11:47;25;1;0;control;72;3;0;53;40;0;0;0.31;0.68999999999999995;0.0;0.0;96;24;7;88;0.11;0.27000000000000002;0.58999999999999997;0.029999999999999999;0;2.471650307827076;16;92;19;2; nein 
2019_03_04 11:47;25;1;0;control;73;138;1;8;20;43;51;0.38;0.5;0.02;0.10000000000000001;72;82;70;1;0.39000000000000001;0.050000000000000003;0.070000000000000007;0.48999999999999999;1;4.97320611881878;16;92;19;2; nein 
2019_03_04 11:47;25;1;0;control;74;97;0;17;33;32;74;0.94999999999999996;0.01;0.029999999999999999;0.01;76;23;0;0;0.33000000000000002;0.67000000000000004;0.0;0.0;0;6.914503840298494;16;92;19;2; nein 
2019_03_04 11:47;25;1;0;control;75;58;0;37;58;76;34;0.20999999999999999;0.57999999999999996;0.19;0.020000000000000101;86;5;0;0;0.47999999999999998;0.52000000000000002;0.0;0.0;1;10.046559832815547;16;92;19;2; nein 
2019_03_04 11:47;25;2;0;timed;1;48;0;13;32;0;0;0.90000000000000002;0.10000000000000001;0.0;0.0;24;99;84;94;0.62;0.14999999999999999;0.20000000000000001;0.029999999999999999;1;3.6388347229039937;16;92;19;2; nein 
2019_03_04 11:47;25;2;0;timed;2;76;1;39;62;9;28;0.01;0.51000000000000001;0.26000000000000001;0.22;77;7;0;0;0.57999999999999996;0.41999999999999998;0.0;0.0;1;1.7010815949251992;16;92;19;2; nein 
2019_03_04 11:47;25;2;0;timed;3;100;1;27;14;59;52;0.02;0.95999999999999996;0.01;0.01;17;98;0;0;0.48999999999999999;0.51000000000000001;0.0;0.0;0;1.4709171427221008;16;92;19;2; nein 
2019_03_04 11:47;25;2;0;timed;4;69;1;54;34;64;49;0.34000000000000002;0.25;0.20999999999999999;0.20000000000000001;14;98;0;0;0.62;0.38;0.0;0.0;0;1.361056232415649;16;92;19;2; nein 
2019_03_04 11:47;25;2;0;timed;5;28;1;47;30;0;0;0.97999999999999998;0.02;0.0;0.0;55;48;77;13;0.070000000000000007;0.26000000000000001;0.42999999999999999;0.23999999999999999;1;1.4208489577249566;16;92;19;2; nein 
2019_03_04 11:47;25;2;0;timed;6;67;1;44;42;8;89;0.88;0.070000000000000007;0.029999999999999999;0.02;10;63;0;0;0.39000000000000001;0.60999999999999999;0.0;0.0;0;1.3309637497004587;16;92;19;2; nein 
2019_03_04 11:47;25;2;0;timed;7;56;0;28;84;37;41;0.68000000000000005;0.28000000000000003;0.02;0.0199999999999999;6;95;0;0;0.72999999999999998;0.27000000000000002;0.0;0.0;0;0.9506082127318223;16;92;19;2; nein 
2019_03_04 11:47;25;2;0;timed;8;114;0;57;39;79;97;0.77000000000000002;0.02;0.13;0.080000000000000002;92;36;6;1;0.54000000000000004;0.12;0.13;0.20999999999999999;1;1.0506692136095808;16;92;19;2; nein 
2019_03_04 11:47;25;2;0;timed;9;137;1;71;22;28;17;0.25;0.46000000000000002;0.050000000000000003;0.23999999999999999;3;98;92;69;0.42999999999999999;0.23999999999999999;0.20000000000000001;0.13;1;1.280786520024776;16;92;19;2; nein 
2019_03_04 11:47;25;2;0;timed;10;107;1;52;48;13;63;0.68000000000000005;0.19;0.050000000000000003;0.079999999999999905;54;91;33;3;0.19;0.17999999999999999;0.33000000000000002;0.29999999999999999;1;1.2608098555847391;16;92;19;2; nein 
2019_03_04 11:47;25;2;0;timed;11;66;1;89;23;27;15;0.070000000000000007;0.54000000000000004;0.17000000000000001;0.22;9;73;0;0;0.72999999999999998;0.27000000000000002;0.0;0.0;1;1.7911970796540118;16;92;19;2; nein 
2019_03_04 11:47;25;2;0;timed;12;33;0;27;70;0;0;0.88;0.12;0.0;0.0;93;3;77;16;0.080000000000000002;0.40000000000000002;0.5;0.02;1;0.9507230303643155;16;92;19;2; nein 
2019_03_04 11:47;25;2;0;timed;13;65;0;75;64;59;52;0.59999999999999998;0.22;0.14000000000000001;0.040000000000000001;1;99;0;0;0.35999999999999999;0.64000000000000001;0.0;0.0;0;0.7906047104734171;16;92;19;2; nein 
2019_03_04 11:47;25;2;0;timed;14;30;1;33;30;0;0;0.71999999999999997;0.28000000000000003;0.0;0.0;9;88;1;14;0.55000000000000004;0.39000000000000001;0.01;0.049999999999999899;0;1.0306248773249536;16;92;19;2; nein 
2019_03_04 11:47;25;2;0;timed;15;128;0;70;49;27;54;0.27000000000000002;0.53000000000000003;0.02;0.17999999999999999;72;97;6;20;0.29999999999999999;0.39000000000000001;0.22;0.0899999999999999;0;0.9005291232679156;16;92;19;2; nein 
2019_03_04 11:47;25;2;0;timed;16;124;1;37;65;15;41;0.17999999999999999;0.45000000000000001;0.02;0.34999999999999998;40;7;98;30;0.070000000000000007;0.45000000000000001;0.45000000000000001;0.029999999999999898;1;0.8004562557653117;16;92;19;2; nein 
2019_03_04 11:47;25;2;0;timed;17;53;0;26;70;50;80;0.29999999999999999;0.59999999999999998;0.040000000000000001;0.059999999999999998;89;1;0;0;0.40999999999999998;0.58999999999999997;0.0;0.0;1;0.3901730859779491;16;92;19;2; nein 
2019_03_04 11:47;25;2;0;timed;18;85;1;31;22;82;50;0.11;0.69999999999999996;0.01;0.17999999999999999;3;99;0;0;0.62;0.38;0.0;0.0;1;0.6305133310324891;16;92;19;2; nein 
2019_03_04 11:47;25;2;0;timed;19;23;0;54;40;0;0;0.93000000000000005;0.070000000000000007;0.0;0.0;36;23;71;86;0.02;0.41999999999999998;0.19;0.37;1;0.8705546653818601;16;92;19;2; nein 
2019_03_04 11:47;25;2;0;timed;20;64;1;48;39;34;19;0.46000000000000002;0.5;0.02;0.02;13;92;0;0;0.68999999999999995;0.31;0.0;0.0;1;1.0206787197384983;16;92;19;2; nein 
2019_03_04 11:47;25;2;0;timed;21;146;1;25;5;64;35;0.94999999999999996;0.02;0.01;0.02;47;97;12;79;0.20999999999999999;0.029999999999999999;0.02;0.73999999999999999;1;1.611118452026858;16;92;19;2; nein 
2019_03_04 11:47;25;2;0;timed;22;44;1;79;74;0;0;0.71999999999999997;0.28000000000000003;0.0;0.0;3;67;15;36;0.41999999999999998;0.53000000000000003;0.02;0.029999999999999999;0;1.3108238389631879;16;92;19;2; nein 
2019_03_04 11:47;25;2;0;timed;23;20;0;44;40;0;0;0.91000000000000003;0.089999999999999997;0.0;0.0;29;5;80;99;0.25;0.40000000000000002;0.26000000000000001;0.089999999999999997;1;1.3910233137521573;16;92;19;2; nein 
2019_03_04 11:47;25;2;0;timed;24;147;0;39;43;76;28;0.14000000000000001;0.10000000000000001;0.10000000000000001;0.66000000000000003;6;31;68;85;0.27000000000000002;0.20000000000000001;0.22;0.31;1;1.4509135378339124;16;92;19;2; nein 
2019_03_04 11:47;25;2;0;timed;25;45;0;97;87;0;0;0.71999999999999997;0.28000000000000003;0.0;0.0;96;11;14;4;0.25;0.029999999999999999;0.14000000000000001;0.57999999999999996;0;1.1908352437549183;16;92;19;2; nein 
2019_03_04 11:47;25;2;0;timed;26;22;0;32;55;0;0;0.39000000000000001;0.60999999999999999;0.0;0.0;93;72;59;22;0.20000000000000001;0.11;0.14000000000000001;0.55000000000000004;1;1.1908435824643675;16;92;19;2; nein 
2019_03_04 11:47;25;2;0;timed;27;8;1;50;36;0;0;0.080000000000000002;0.92000000000000004;0.0;0.0;6;19;84;29;0.54000000000000004;0.070000000000000007;0.17000000000000001;0.22;1;1.4709181048801838;16;92;19;2; nein 
2019_03_04 11:47;25;2;0;timed;28;111;1;51;36;48;27;0.93000000000000005;0.01;0.01;0.049999999999999899;31;78;30;53;0.55000000000000004;0.16;0.029999999999999999;0.26000000000000001;1;1.3209948210205766;16;92;19;2; nein 
2019_03_04 11:47;25;2;0;timed;29;72;0;63;82;51;61;0.01;0.96999999999999997;0.01;0.01;92;12;0;0;0.89000000000000001;0.11;0.0;0.0;0;1.1708489577249566;16;92;19;2; nein 
2019_03_04 11:47;25;2;0;timed;30;16;0;64;53;0;0;0.65000000000000002;0.34999999999999998;0.0;0.0;29;17;81;46;0.10000000000000001;0.01;0.44;0.45000000000000001;1;1.1608168472757825;16;92;19;2; nein 
2019_03_04 11:47;25;2;0;timed;31;38;0;40;70;0;0;0.53000000000000003;0.46999999999999997;0.0;0.0;97;90;6;96;0.56999999999999995;0.070000000000000007;0.27000000000000002;0.089999999999999997;1;1.520947803519448;16;92;19;2; nein 
2019_03_04 11:47;25;2;0;timed;32;27;0;44;26;0;0;0.35999999999999999;0.64000000000000001;0.0;0.0;63;10;3;5;0.58999999999999997;0.19;0.14999999999999999;0.070000000000000007;1;1.2708887911048805;16;92;19;2; nein 
2019_03_04 11:47;25;2;0;timed;33;145;1;91;89;90;74;0.57999999999999996;0.29999999999999999;0.11;0.010000000000000101;2;75;84;39;0.32000000000000001;0.27000000000000002;0.39000000000000001;0.0199999999999999;1;1.370866725594169;16;92;19;2; nein 
2019_03_04 11:47;25;2;0;timed;34;34;1;32;48;0;0;0.28000000000000003;0.71999999999999997;0.0;0.0;97;83;7;62;0.040000000000000001;0.54000000000000004;0.35999999999999999;0.059999999999999901;1;1.351077682147661;16;92;19;2; nein 
2019_03_04 11:47;25;2;0;timed;35;93;1;87;81;73;98;0.80000000000000004;0.040000000000000001;0.14999999999999999;0.0099999999999999499;5;71;0;0;0.51000000000000001;0.48999999999999999;0.0;0.0;0;1.1006164872978843;16;92;19;2; nein 
2019_03_04 11:47;25;2;0;timed;36;39;1;14;33;0;0;0.78000000000000003;0.22;0.0;0.0;93;84;1;25;0.14000000000000001;0.23999999999999999;0.39000000000000001;0.23000000000000001;1;1.0007892910416558;16;92;19;2; nein 
2019_03_04 11:47;25;2;0;timed;37;86;0;56;30;57;88;0.20000000000000001;0.35999999999999999;0.080000000000000002;0.35999999999999999;98;2;0;0;0.77000000000000002;0.23000000000000001;0.0;0.0;1;1.0707892397276737;16;92;19;2; nein 
2019_03_04 11:47;25;2;0;timed;38;77;1;24;17;99;41;0.17999999999999999;0.13;0.10000000000000001;0.58999999999999997;12;97;0;0;0.59999999999999998;0.40000000000000002;0.0;0.0;1;1.3908748205576558;16;92;19;2; nein 
2019_03_04 11:47;25;2;0;timed;39;148;1;37;63;55;10;0.72999999999999998;0.070000000000000007;0.029999999999999999;0.17000000000000001;80;14;23;70;0.46999999999999997;0.10000000000000001;0.23000000000000001;0.20000000000000001;0;1.2107865713405772;16;92;19;2; nein 
2019_03_04 11:47;25;2;0;timed;40;59;0;56;47;83;90;0.31;0.12;0.54000000000000004;0.029999999999999898;10;98;0;0;0.46999999999999997;0.53000000000000003;0.0;0.0;0;1.1106854805075272;16;92;19;2; nein 
2019_03_04 11:47;25;2;0;timed;41;11;0;17;36;0;0;0.14000000000000001;0.85999999999999999;0.0;0.0;19;41;34;95;0.88;0.02;0.050000000000000003;0.050000000000000003;1;1.0707693551103148;16;92;19;2; nein 
2019_03_04 11:47;25;2;0;timed;42;62;0;12;45;16;50;0.20999999999999999;0.76000000000000001;0.02;0.01;92;15;0;0;0.20999999999999999;0.79000000000000004;0.0;0.0;1;0.5200664659387257;16;92;19;2; nein 
2019_03_04 11:47;25;2;0;timed;43;84;0;43;10;5;45;0.78000000000000003;0.13;0.059999999999999998;0.029999999999999999;87;1;0;0;0.57999999999999996;0.41999999999999998;0.0;0.0;0;0.7504640813240258;16;92;19;2; nein 
2019_03_04 11:47;25;2;0;timed;44;99;0;8;24;15;73;0.56000000000000005;0.35999999999999999;0.070000000000000007;0.0099999999999999499;88;12;0;0;0.52000000000000002;0.47999999999999998;0.0;0.0;1;1.0107088288987143;16;92;19;2; nein 
2019_03_04 11:47;25;2;0;timed;45;136;1;29;67;14;75;0.46000000000000002;0.29999999999999999;0.20999999999999999;0.0300000000000001;70;86;1;85;0.31;0.39000000000000001;0.27000000000000002;0.029999999999999898;1;1.8513204669161496;16;92;19;2; nein 
2019_03_04 11:47;25;2;0;timed;46;4;1;40;43;0;0;0.58999999999999997;0.40999999999999998;0.0;0.0;2;33;88;81;0.69999999999999996;0.14000000000000001;0.13;0.029999999999999999;1;1.5109807991557318;16;92;19;2; nein 
2019_03_04 11:47;25;2;0;timed;47;91;1;74;81;86;48;0.93000000000000005;0.02;0.01;0.039999999999999897;7;64;0;0;0.13;0.87;0.0;0.0;0;1.4208714081014477;16;92;19;2; nein 
2019_03_04 11:47;25;2;0;timed;48;5;1;70;5;0;0;0.98999999999999999;0.01;0.0;0.0;92;87;47;1;0.44;0.02;0.16;0.38;1;1.5610711138069746;16;92;19;2; nein 
2019_03_04 11:47;25;2;0;timed;49;143;0;88;44;56;73;0.95999999999999996;0.02;0.01;0.01;20;3;87;32;0.19;0.40000000000000002;0.28000000000000003;0.13;0;1.5609601448122703;16;92;19;2; nein 
2019_03_04 11:47;25;2;0;timed;50;127;0;89;26;62;79;0.02;0.28999999999999998;0.53000000000000003;0.16;96;6;60;13;0.53000000000000003;0.25;0.17000000000000001;0.050000000000000003;1;1.6009801833733945;16;92;19;2; nein 
2019_03_04 11:47;25;2;0;timed;51;36;1;70;17;0;0;0.33000000000000002;0.67000000000000004;0.0;0.0;84;1;12;88;0.22;0.27000000000000002;0.14000000000000001;0.37;0;1.4909457637440937;16;92;19;2; nein 
2019_03_04 11:47;25;2;0;timed;52;19;1;22;53;0;0;0.13;0.87;0.0;0.0;4;93;96;65;0.46999999999999997;0.059999999999999998;0.26000000000000001;0.20999999999999999;1;1.3909989390595001;16;92;19;2; nein 
2019_03_04 11:47;25;2;0;timed;53;79;1;52;46;29;22;0.17999999999999999;0.51000000000000001;0.23999999999999999;0.070000000000000104;93;14;0;0;0.45000000000000001;0.55000000000000004;0.0;0.0;1;1.4708892401122284;16;92;19;2; nein 
2019_03_04 11:47;25;2;0;timed;54;120;0;64;40;48;51;0.19;0.02;0.070000000000000007;0.71999999999999997;97;9;79;94;0.23000000000000001;0.54000000000000004;0.01;0.22;1;2.49158367511518;16;92;19;2; nein 
2019_03_04 11:47;25;2;0;timed;55;58;1;37;58;76;34;0.20999999999999999;0.57999999999999996;0.19;0.020000000000000101;86;5;0;0;0.47999999999999998;0.52000000000000002;0.0;0.0;0;1.2707993103249464;16;92;19;2; nein 
2019_03_04 11:47;25;2;0;timed;56;121;1;42;51;47;70;0.41999999999999998;0.17000000000000001;0.23999999999999999;0.17000000000000001;21;76;48;9;0.14999999999999999;0.34000000000000002;0.40999999999999998;0.10000000000000001;1;1.570981350794682;16;92;19;2; nein 
2019_03_04 11:47;25;2;0;timed;57;101;0;30;96;61;45;0.65000000000000002;0.14000000000000001;0.11;0.10000000000000001;3;98;63;89;0.75;0.19;0.040000000000000001;0.02;0;1.4410366556912777;16;92;19;2; nein 
2019_03_04 11:47;25;2;0;timed;58;102;0;40;56;53;17;0.28000000000000003;0.26000000000000001;0.14999999999999999;0.31;1;76;29;62;0.68000000000000005;0.23000000000000001;0.050000000000000003;0.039999999999999897;1;1.7311144237901317;16;92;19;2; nein 
2019_03_04 11:47;25;2;0;timed;59;80;0;47;39;45;10;0.13;0.76000000000000001;0.059999999999999998;0.050000000000000003;2;87;0;0;0.48999999999999999;0.51000000000000001;0.0;0.0;0;1.1007024401642411;16;92;19;2; nein 
2019_03_04 11:47;25;2;0;timed;60;112;1;70;44;98;64;0.02;0.75;0.12;0.11;33;2;63;85;0.23999999999999999;0.31;0.080000000000000002;0.37;0;0.7604310856877419;16;92;19;2; nein 
2019_03_04 11:47;25;2;0;timed;61;60;1;64;59;57;96;0.83999999999999997;0.13;0.02;0.01;83;6;0;0;0.54000000000000004;0.46000000000000002;0.0;0.0;1;0.8706592199851002;16;92;19;2; nein 
2019_03_04 11:47;25;2;0;timed;62;70;1;66;55;69;50;0.22;0.29999999999999999;0.29999999999999999;0.17999999999999999;2;90;0;0;0.34000000000000002;0.66000000000000003;0.0;0.0;1;1.7110704082242592;16;92;19;2; nein 
2019_03_04 11:47;25;2;0;timed;63;32;0;19;81;0;0;0.93000000000000005;0.070000000000000007;0.0;0.0;1;65;41;68;0.45000000000000001;0.050000000000000003;0.059999999999999998;0.44;1;1.7812801075560856;16;92;19;2; nein 
2019_03_04 11:47;25;2;0;timed;64;87;0;10;30;63;4;0.56999999999999995;0.12;0.16;0.14999999999999999;86;2;0;0;0.42999999999999999;0.56999999999999995;0.0;0.0;0;1.3107924084379192;16;92;19;2; nein 
2019_03_04 11:47;25;2;0;timed;65;13;0;52;56;0;0;0.46999999999999997;0.53000000000000003;0.0;0.0;94;71;27;2;0.089999999999999997;0.31;0.57999999999999996;0.020000000000000101;1;1.9213515254068625;16;92;19;2; nein 
2019_03_04 11:47;25;2;0;timed;66;109;1;75;28;16;56;0.19;0.070000000000000007;0.059999999999999998;0.68000000000000005;3;50;98;44;0.5;0.02;0.34999999999999998;0.13;1;1.4010159756871872;16;92;19;2; nein 
2019_03_04 11:47;25;2;0;timed;67;1;0;22;51;0;0;0.26000000000000001;0.73999999999999999;0.0;0.0;14;11;92;31;0.29999999999999999;0.40999999999999998;0.14999999999999999;0.14000000000000001;1;1.6710631984478823;16;92;19;2; nein 
2019_03_04 11:47;25;2;0;timed;68;37;0;14;98;0;0;0.93000000000000005;0.070000000000000007;0.0;0.0;41;2;87;66;0.17999999999999999;0.48999999999999999;0.32000000000000001;0.010000000000000101;0;1.230412689208606;16;92;19;2; nein 
2019_03_04 11:47;25;2;0;timed;69;41;0;99;40;0;0;0.89000000000000001;0.11;0.0;0.0;1;67;52;46;0.51000000000000001;0.38;0.029999999999999999;0.080000000000000002;0;1.5811148086522735;16;92;19;2; nein 
2019_03_04 11:47;25;2;0;timed;70;126;1;16;55;51;42;0.68999999999999995;0.23999999999999999;0.01;0.060000000000000102;66;4;1;5;0.46999999999999997;0.38;0.089999999999999997;0.059999999999999998;1;1.6111530897487683;16;92;19;2; nein 
2019_03_04 11:47;25;2;0;timed;71;97;0;17;33;32;74;0.94999999999999996;0.01;0.029999999999999999;0.01;76;23;0;0;0.33000000000000002;0.67000000000000004;0.0;0.0;1;1.4609061997671233;16;92;19;2; nein 
2019_03_04 11:47;25;2;0;timed;72;119;1;60;58;11;18;0.25;0.72999999999999998;0.01;0.01;96;23;42;85;0.44;0.48999999999999999;0.059999999999999998;0.010000000000000101;1;1.480924557759863;16;92;19;2; nein 
2019_03_04 11:47;25;2;0;timed;73;138;0;8;20;43;51;0.38;0.5;0.02;0.10000000000000001;72;82;70;1;0.39000000000000001;0.050000000000000003;0.070000000000000007;0.48999999999999999;1;1.4510248275491904;16;92;19;2; nein 
2019_03_04 11:47;25;2;0;timed;74;52;1;71;51;10;54;0.22;0.12;0.19;0.46999999999999997;91;1;0;0;0.29999999999999999;0.69999999999999996;0.0;0.0;1;1.0307675975655002;16;92;19;2; nein 
2019_03_04 11:47;25;2;0;timed;75;131;1;83;41;81;88;0.23999999999999999;0.58999999999999997;0.10000000000000001;0.070000000000000007;82;97;4;17;0.26000000000000001;0.46999999999999997;0.11;0.16;1;1.5711083557725942;16;92;19;2; nein 
2019_03_04 11:47;25;3;0;control;1;103;0;38;49;89;50;0.89000000000000001;0.070000000000000007;0.01;0.029999999999999999;6;64;99;27;0.70999999999999996;0.17999999999999999;0.059999999999999998;0.050000000000000003;1;3.2943706005298736;16;92;19;2; nein 
2019_03_04 11:47;25;3;0;control;2;75;0;67;80;36;81;0.81999999999999995;0.080000000000000002;0.059999999999999998;0.040000000000000001;3;97;0;0;0.32000000000000001;0.68000000000000005;0.0;0.0;1;3.3121429588554747;16;92;19;2; nein 
2019_03_04 11:47;25;3;0;control;3;14;1;36;40;0;0;0.54000000000000004;0.46000000000000002;0.0;0.0;99;70;1;11;0.16;0.089999999999999997;0.080000000000000002;0.67000000000000004;1;3.8324554167629685;16;92;19;2; nein 
2019_03_04 11:47;25;3;0;control;4;25;0;50;53;0;0;0.82999999999999996;0.17000000000000001;0.0;0.0;83;16;97;4;0.45000000000000001;0.29999999999999999;0.11;0.14000000000000001;0;4.552947605956433;16;92;19;2; nein 
2019_03_04 11:47;25;3;0;control;5;106;0;85;69;22;61;0.10000000000000001;0.58999999999999997;0.17999999999999999;0.13;20;79;91;84;0.55000000000000004;0.14999999999999999;0.26000000000000001;0.039999999999999897;0;5.013365670425628;16;92;19;2; nein 
2019_03_04 11:47;25;3;0;control;6;50;0;15;20;0;0;0.82999999999999996;0.17000000000000001;0.0;0.0;97;18;88;87;0.56999999999999995;0.39000000000000001;0.01;0.029999999999999999;1;3.472218943754342;16;92;19;2; nein 
2019_03_04 11:47;25;3;0;control;7;26;1;76;41;0;0;0.57999999999999996;0.41999999999999998;0.0;0.0;61;79;84;2;0.13;0.029999999999999999;0.67000000000000004;0.17000000000000001;0;4.632991210997716;16;92;19;2; nein 
2019_03_04 11:47;25;3;0;control;8;51;1;52;23;43;16;0.60999999999999999;0.20999999999999999;0.01;0.17000000000000001;92;7;0;0;0.14999999999999999;0.84999999999999998;0.0;0.0;0;3.962684590191202;16;92;19;2; nein 
2019_03_04 11:47;25;3;0;control;9;65;0;75;64;59;52;0.59999999999999998;0.22;0.14000000000000001;0.040000000000000001;1;99;0;0;0.35999999999999999;0.64000000000000001;0.0;0.0;0;3.482355608810394;16;92;19;2; nein 
2019_03_04 11:47;25;3;0;control;10;143;1;88;44;56;73;0.95999999999999996;0.02;0.01;0.01;20;3;87;32;0.19;0.40000000000000002;0.28000000000000003;0.13;0;2.9218614696383156;16;92;19;2; nein 
2019_03_04 11:47;25;3;0;control;11;32;1;19;81;0;0;0.93000000000000005;0.070000000000000007;0.0;0.0;1;65;41;68;0.45000000000000001;0.050000000000000003;0.059999999999999998;0.44;1;5.353597255665591;16;92;19;2; nein 
2019_03_04 11:47;25;3;0;control;12;109;0;75;28;16;56;0.19;0.070000000000000007;0.059999999999999998;0.68000000000000005;3;50;98;44;0.5;0.02;0.34999999999999998;0.13;0;3.572266153687451;16;92;19;2; nein 
2019_03_04 11:47;25;3;0;control;13;7;1;49;29;0;0;0.95999999999999996;0.040000000000000001;0.0;0.0;23;99;64;25;0.68999999999999995;0.12;0.059999999999999998;0.13;0;2.311476182718252;16;92;19;2; nein 
2019_03_04 11:47;25;3;0;control;14;27;1;44;26;0;0;0.35999999999999999;0.64000000000000001;0.0;0.0;63;10;3;5;0.58999999999999997;0.19;0.14999999999999999;0.070000000000000007;1;3.352162035260335;16;92;19;2; nein 
2019_03_04 11:47;25;3;0;control;15;37;1;14;98;0;0;0.93000000000000005;0.070000000000000007;0.0;0.0;41;2;87;66;0.17999999999999999;0.48999999999999999;0.32000000000000001;0.010000000000000101;0;2.4717019436902774;16;92;19;2; nein 
2019_03_04 11:47;25;3;0;control;16;72;0;63;82;51;61;0.01;0.96999999999999997;0.01;0.01;92;12;0;0;0.89000000000000001;0.11;0.0;0.0;1;2.8919761718134396;16;92;19;2; nein 
2019_03_04 11:47;25;3;0;control;17;128;1;70;49;27;54;0.27000000000000002;0.53000000000000003;0.02;0.17999999999999999;72;97;6;20;0.29999999999999999;0.39000000000000001;0.22;0.0899999999999999;1;3.8123818949916313;16;92;19;2; nein 
2019_03_04 11:47;25;3;0;control;18;148;1;37;63;55;10;0.72999999999999998;0.070000000000000007;0.029999999999999999;0.17000000000000001;80;14;23;70;0.46999999999999997;0.10000000000000001;0.23000000000000001;0.20000000000000001;1;5.133457858080874;16;92;19;2; nein 
2019_03_04 11:47;25;3;0;control;19;21;1;64;28;0;0;0.080000000000000002;0.92000000000000004;0.0;0.0;50;1;88;13;0.57999999999999996;0.13;0.02;0.27000000000000002;1;3.332276775920036;16;92;19;2; nein 
2019_03_04 11:47;25;3;0;control;20;137;0;71;22;28;17;0.25;0.46000000000000002;0.050000000000000003;0.23999999999999999;3;98;92;69;0.42999999999999999;0.23999999999999999;0.20000000000000001;0.13;0;4.322805604128007;16;92;19;2; nein 
2019_03_04 11:47;25;3;0;control;21;134;1;57;48;50;55;0.02;0.62;0.17999999999999999;0.17999999999999999;80;96;15;18;0.23999999999999999;0.35999999999999999;0.33000000000000002;0.070000000000000007;0;1.8911981059591199;16;92;19;2; nein 
2019_03_04 11:47;25;3;0;control;22;45;0;97;87;0;0;0.71999999999999997;0.28000000000000003;0.0;0.0;96;11;14;4;0.25;0.029999999999999999;0.14000000000000001;0.57999999999999996;0;4.7832227064373;16;92;19;2; nein 
2019_03_04 11:47;25;3;0;control;23;115;0;50;28;61;79;0.83999999999999997;0.040000000000000001;0.059999999999999998;0.059999999999999998;1;26;97;55;0.45000000000000001;0.080000000000000002;0.40999999999999998;0.060000000000000102;1;3.1320348250228562;16;92;19;2; nein 
2019_03_04 11:47;25;3;0;control;24;81;0;67;38;52;65;0.27000000000000002;0.35999999999999999;0.01;0.35999999999999999;2;77;0;0;0.14000000000000001;0.85999999999999999;0.0;0.0;1;3.862502357289486;16;92;19;2; nein 
2019_03_04 11:47;25;3;0;control;25;15;0;77;81;0;0;0.28000000000000003;0.71999999999999997;0.0;0.0;98;14;87;18;0.55000000000000004;0.23000000000000001;0.16;0.059999999999999901;1;5.073287004312078;16;92;19;2; nein 
2019_03_04 11:47;25;3;0;control;26;2;1;59;32;0;0;0.080000000000000002;0.92000000000000004;0.0;0.0;33;38;85;1;0.28999999999999998;0.050000000000000003;0.070000000000000007;0.58999999999999997;0;4.202715661509501;16;92;19;2; nein 
2019_03_04 11:47;25;3;0;control;27;85;0;31;22;82;50;0.11;0.69999999999999996;0.01;0.17999999999999999;3;99;0;0;0.62;0.38;0.0;0.0;1;4.763108132552588;16;92;19;2; nein 
2019_03_04 11:47;25;3;0;control;28;140;1;36;32;26;27;0.39000000000000001;0.14999999999999999;0.19;0.27000000000000002;44;3;99;25;0.29999999999999999;0.34000000000000002;0.34000000000000002;0.0199999999999999;0;6.093968931245399;16;92;19;2; nein 
2019_03_04 11:47;25;3;0;control;29;94;0;84;86;93;39;0.78000000000000003;0.20000000000000001;0.01;0.0099999999999999603;9;83;0;0;0.46999999999999997;0.53000000000000003;0.0;0.0;0;3.9526858345834626;16;92;19;2; nein 
2019_03_04 11:47;25;3;0;control;30;62;0;12;45;16;50;0.20999999999999999;0.76000000000000001;0.02;0.01;92;15;0;0;0.20999999999999999;0.79000000000000004;0.0;0.0;0;4.472911377466517;16;92;19;2; nein 
2019_03_04 11:47;25;3;0;control;31;1;0;22;51;0;0;0.26000000000000001;0.73999999999999999;0.0;0.0;14;11;92;31;0.29999999999999999;0.40999999999999998;0.14999999999999999;0.14000000000000001;0;5.473534215012478;16;92;19;2; nein 
2019_03_04 11:47;25;3;0;control;32;68;1;84;27;55;62;0.01;0.050000000000000003;0.40999999999999998;0.53000000000000003;9;82;0;0;0.37;0.63;0.0;0.0;1;2.6816873573607154;16;92;19;2; nein 
2019_03_04 11:47;25;3;0;control;33;108;0;48;72;39;70;0.14000000000000001;0.66000000000000003;0.02;0.17999999999999999;81;44;98;8;0.59999999999999998;0.029999999999999999;0.050000000000000003;0.32000000000000001;1;3.4423455125543114;16;92;19;2; nein 
2019_03_04 11:47;25;3;0;control;34;36;1;70;17;0;0;0.33000000000000002;0.67000000000000004;0.0;0.0;84;1;12;88;0.22;0.27000000000000002;0.14000000000000001;0.37;0;3.3522585718746996;16;92;19;2; nein 
2019_03_04 11:47;25;3;0;control;35;48;0;13;32;0;0;0.90000000000000002;0.10000000000000001;0.0;0.0;24;99;84;94;0.62;0.14999999999999999;0.20000000000000001;0.029999999999999999;0;3.032085755299704;16;92;19;2; nein 
2019_03_04 11:47;25;3;0;control;36;99;0;8;24;15;73;0.56000000000000005;0.35999999999999999;0.070000000000000007;0.0099999999999999499;88;12;0;0;0.52000000000000002;0.47999999999999998;0.0;0.0;0;1.3709914855353418;16;92;19;2; nein 
2019_03_04 11:47;25;3;0;control;37;74;1;66;47;52;44;0.41999999999999998;0.26000000000000001;0.17999999999999999;0.14000000000000001;17;99;0;0;0.47999999999999998;0.52000000000000002;0.0;0.0;1;3.552388591619092;16;92;19;2; nein 
2019_03_04 11:47;25;3;0;control;38;129;0;12;29;81;36;0.17999999999999999;0.79000000000000004;0.01;0.02;5;19;95;92;0.47999999999999998;0.26000000000000001;0.13;0.13;0;3.242253979169618;16;92;19;2; nein 
2019_03_04 11:47;25;3;0;control;39;117;1;65;85;92;41;0.23000000000000001;0.17999999999999999;0.54000000000000004;0.050000000000000003;99;93;10;13;0.64000000000000001;0.16;0.01;0.19;1;4.292939870198097;16;92;19;2; nein 
2019_03_04 11:47;25;3;0;control;40;141;1;93;28;60;91;0.81999999999999995;0.10000000000000001;0.01;0.070000000000000007;14;85;7;89;0.45000000000000001;0.070000000000000007;0.23999999999999999;0.23999999999999999;0;3.4922280008777307;16;92;19;2; nein 
2019_03_04 11:47;25;3;0;control;41;34;1;32;48;0;0;0.28000000000000003;0.71999999999999997;0.0;0.0;97;83;7;62;0.040000000000000001;0.54000000000000004;0.35999999999999999;0.059999999999999901;0;4.943352892954863;16;92;19;2; nein 
2019_03_04 11:47;25;3;0;control;42;105;1;49;74;63;58;0.84999999999999998;0.080000000000000002;0.02;0.050000000000000003;97;5;86;8;0.25;0.52000000000000002;0.070000000000000007;0.16;0;3.8024700544065126;16;92;19;2; nein 
2019_03_04 11:47;25;3;0;control;43;90;0;27;44;50;72;0.68000000000000005;0.28999999999999998;0.02;0.0099999999999999707;6;96;0;0;0.46999999999999997;0.53000000000000003;0.0;0.0;1;2.981905318431018;16;92;19;2; nein 
2019_03_04 11:47;25;3;0;control;44;116;0;53;65;43;99;0.56999999999999995;0.37;0.050000000000000003;0.010000000000000101;57;72;11;87;0.67000000000000004;0.13;0.14999999999999999;0.050000000000000003;1;4.883294291063066;16;92;19;2; nein 
2019_03_04 11:47;25;3;0;control;45;133;1;59;88;60;36;0.67000000000000004;0.070000000000000007;0.12;0.14000000000000001;7;91;66;61;0.25;0.68999999999999995;0.01;0.0500000000000001;1;4.052714122055477;16;92;19;2; nein 
2019_03_04 11:47;25;3;0;control;46;114;0;57;39;79;97;0.77000000000000002;0.02;0.13;0.080000000000000002;92;36;6;1;0.54000000000000004;0.12;0.13;0.20999999999999999;0;5.283537973846251;16;92;19;2; nein 
2019_03_04 11:47;25;3;0;control;47;86;0;56;30;57;88;0.20000000000000001;0.35999999999999999;0.080000000000000002;0.35999999999999999;98;2;0;0;0.77000000000000002;0.23000000000000001;0.0;0.0;1;3.7924597528908635;16;92;19;2; nein 
2019_03_04 11:47;25;3;0;control;48;70;1;66;55;69;50;0.22;0.29999999999999999;0.29999999999999999;0.17999999999999999;2;90;0;0;0.34000000000000002;0.66000000000000003;0.0;0.0;1;4.432862794852554;16;92;19;2; nein 
2019_03_04 11:47;25;3;0;control;49;44;1;79;74;0;0;0.71999999999999997;0.28000000000000003;0.0;0.0;3;67;15;36;0.41999999999999998;0.53000000000000003;0.02;0.029999999999999999;0;2.9420340937813307;16;92;19;2; nein 
2019_03_04 11:47;25;3;0;control;50;107;1;52;48;13;63;0.68000000000000005;0.19;0.050000000000000003;0.079999999999999905;54;91;33;3;0.19;0.17999999999999999;0.33000000000000002;0.29999999999999999;0;3.362160149428746;16;92;19;2; nein 
2019_03_04 11:47;25;3;0;control;51;39;1;14;33;0;0;0.78000000000000003;0.22;0.0;0.0;93;84;1;25;0.14000000000000001;0.23999999999999999;0.39000000000000001;0.23000000000000001;0;3.272134786919196;16;92;19;2; nein 
2019_03_04 11:47;25;3;0;control;52;12;0;53;68;0;0;0.31;0.68999999999999995;0.0;0.0;69;54;97;29;0.25;0.20999999999999999;0.20000000000000001;0.34000000000000002;0;2.4217719888583815;16;92;19;2; nein 
2019_03_04 11:47;25;3;0;control;53;30;0;33;30;0;0;0.71999999999999997;0.28000000000000003;0.0;0.0;9;88;1;14;0.55000000000000004;0.39000000000000001;0.01;0.049999999999999899;0;1.7111938852867752;16;92;19;2; nein 
2019_03_04 11:47;25;3;0;control;54;79;1;52;46;29;22;0.17999999999999999;0.51000000000000001;0.23999999999999999;0.070000000000000104;93;14;0;0;0.45000000000000001;0.55000000000000004;0.0;0.0;1;4.753070569866395;16;92;19;2; nein 
2019_03_04 11:47;25;3;0;control;55;98;0;27;10;31;79;0.23000000000000001;0.67000000000000004;0.070000000000000007;0.029999999999999999;25;99;0;0;0.38;0.62;0.0;0.0;0;4.392970402706851;16;92;19;2; nein 
2019_03_04 11:47;25;3;0;control;56;110;1;47;44;23;52;0.13;0.27000000000000002;0.040000000000000001;0.56000000000000005;99;2;30;22;0.28999999999999998;0.5;0.11;0.10000000000000001;0;3.852639907530829;16;92;19;2; nein 
2019_03_04 11:47;25;3;0;control;57;43;1;60;83;0;0;0.23000000000000001;0.77000000000000002;0.0;0.0;72;5;70;12;0.29999999999999999;0.40999999999999998;0.12;0.17000000000000001;0;2.87199245154261;16;92;19;2; nein 
2019_03_04 11:47;25;3;0;control;58;127;0;89;26;62;79;0.02;0.28999999999999998;0.53000000000000003;0.16;96;6;60;13;0.53000000000000003;0.25;0.17000000000000001;0.050000000000000003;0;1.5609739357551007;16;92;19;2; nein 
2019_03_04 11:47;25;3;0;control;59;113;1;85;65;39;64;0.44;0.34000000000000002;0.13;0.089999999999999997;87;2;4;35;0.67000000000000004;0.17000000000000001;0.11;0.049999999999999899;1;1.8114296783696773;16;92;19;2; nein 
2019_03_04 11:47;25;3;0;control;60;13;0;52;56;0;0;0.46999999999999997;0.53000000000000003;0.0;0.0;94;71;27;2;0.089999999999999997;0.31;0.57999999999999996;0.020000000000000101;1;6.7543928969571425;16;92;19;2; nein 
2019_03_04 11:47;25;3;0;control;61;149;1;14;89;73;53;0.93999999999999995;0.01;0.01;0.040000000000000001;97;45;6;13;0.34000000000000002;0.01;0.40999999999999998;0.23999999999999999;0;3.762460599591577;16;92;19;2; nein 
2019_03_04 11:47;25;3;0;control;62;66;1;89;23;27;15;0.070000000000000007;0.54000000000000004;0.17000000000000001;0.22;9;73;0;0;0.72999999999999998;0.27000000000000002;0.0;0.0;0;4.272777829806728;16;92;19;2; nein 
2019_03_04 11:47;25;3;0;control;63;124;0;37;65;15;41;0.17999999999999999;0.45000000000000001;0.02;0.34999999999999998;40;7;98;30;0.070000000000000007;0.45000000000000001;0.45000000000000001;0.029999999999999898;1;4.953340423375266;16;92;19;2; nein 
2019_03_04 11:47;25;3;0;control;64;19;0;22;53;0;0;0.13;0.87;0.0;0.0;4;93;96;65;0.46999999999999997;0.059999999999999998;0.26000000000000001;0.20999999999999999;0;4.352937214638587;16;92;19;2; nein 
2019_03_04 11:47;25;3;0;control;65;96;1;51;54;39;7;0.17000000000000001;0.26000000000000001;0.10000000000000001;0.46999999999999997;24;96;0;0;0.28000000000000003;0.71999999999999997;0.0;0.0;1;6.734392499265596;16;92;19;2; nein 
2019_03_04 11:47;25;3;0;control;66;69;1;54;34;64;49;0.34000000000000002;0.25;0.20999999999999999;0.20000000000000001;14;98;0;0;0.62;0.38;0.0;0.0;1;5.153338948066448;16;92;19;2; nein 
2019_03_04 11:47;25;3;0;control;67;47;1;2;40;0;0;0.45000000000000001;0.55000000000000004;0.0;0.0;93;89;11;56;0.58999999999999997;0.070000000000000007;0.28000000000000003;0.059999999999999998;1;3.7624195474763837;16;92;19;2; nein 
2019_03_04 11:47;25;3;0;control;68;16;1;64;53;0;0;0.65000000000000002;0.34999999999999998;0.0;0.0;29;17;81;46;0.10000000000000001;0.01;0.44;0.45000000000000001;0;7.445005240559112;16;92;19;2; nein 
2019_03_04 11:47;25;3;0;control;69;150;0;25;21;78;38;0.84999999999999998;0.059999999999999998;0.050000000000000003;0.040000000000000001;31;43;64;95;0.059999999999999998;0.45000000000000001;0.13;0.35999999999999999;0;3.1721728884149343;16;92;19;2; nein 
2019_03_04 11:47;25;3;0;control;70;126;0;16;55;51;42;0.68999999999999995;0.23999999999999999;0.01;0.060000000000000102;66;4;1;5;0.46999999999999997;0.38;0.089999999999999997;0.059999999999999998;0;3.4822459226907085;16;92;19;2; nein 
2019_03_04 11:47;25;3;0;control;71;57;0;52;35;23;47;0.22;0.68000000000000005;0.040000000000000001;0.059999999999999998;71;7;0;0;0.28999999999999998;0.70999999999999996;0.0;0.0;0;4.272748644318199;16;92;19;2; nein 
2019_03_04 11:47;25;3;0;control;72;9;0;61;69;0;0;0.93999999999999995;0.060000000000000102;0.0;0.0;18;93;72;16;0.40999999999999998;0.34999999999999998;0.089999999999999997;0.14999999999999999;0;4.152800459783975;16;92;19;2; nein 
2019_03_04 11:47;25;3;0;control;73;121;0;42;51;47;70;0.41999999999999998;0.17000000000000001;0.23999999999999999;0.17000000000000001;21;76;48;9;0.14999999999999999;0.34000000000000002;0.40999999999999998;0.10000000000000001;0;3.652480381579153;16;92;19;2; nein 
2019_03_04 11:47;25;3;0;control;74;55;1;74;55;47;48;0.60999999999999999;0.31;0.070000000000000007;0.01;97;6;0;0;0.42999999999999999;0.56999999999999995;0.0;0.0;0;6.064130458487853;16;92;19;2; nein 
2019_03_04 11:47;25;3;0;control;75;60;1;64;59;57;96;0.83999999999999997;0.13;0.02;0.01;83;6;0;0;0.54000000000000004;0.46000000000000002;0.0;0.0;0;8.025199583833455;16;92;19;2; nein 
2019_03_04 11:47;25;4;0;timed;1;46;0;5;19;0;0;0.32000000000000001;0.68000000000000005;0.0;0.0;88;38;97;66;0.60999999999999999;0.20000000000000001;0.040000000000000001;0.14999999999999999;1;1.2476321268732136;16;92;19;2; nein 
2019_03_04 11:47;25;4;0;timed;2;118;1;62;52;65;68;0.40999999999999998;0.44;0.10000000000000001;0.0500000000000001;79;20;14;37;0.56999999999999995;0.23999999999999999;0.14000000000000001;0.050000000000000003;1;1.7210794268612517;16;92;19;2; nein 
2019_03_04 11:47;25;4;0;timed;3;24;0;35;27;0;0;0.070000000000000007;0.93000000000000005;0.0;0.0;62;3;81;95;0.35999999999999999;0.55000000000000004;0.01;0.080000000000000002;1;1.4709161805621989;16;92;19;2; nein 
2019_03_04 11:47;25;4;0;timed;4;42;1;70;48;0;0;0.79000000000000004;0.20999999999999999;0.0;0.0;51;8;12;67;0.19;0.26000000000000001;0.28999999999999998;0.26000000000000001;0;1.3810133329570817;16;92;19;2; nein 
2019_03_04 11:47;25;4;0;timed;5;135;1;48;60;41;51;0.14000000000000001;0.40000000000000002;0.089999999999999997;0.37;94;1;85;65;0.64000000000000001;0.29999999999999999;0.01;0.050000000000000003;1;1.3509509978866845;16;92;19;2; nein 
2019_03_04 11:47;25;4;0;timed;6;108;1;48;72;39;70;0.14000000000000001;0.66000000000000003;0.02;0.17999999999999999;81;44;98;8;0.59999999999999998;0.029999999999999999;0.050000000000000003;0.32000000000000001;1;1.5709861615887348;16;92;19;2; nein 
2019_03_04 11:47;25;4;0;timed;7;134;0;57;48;50;55;0.02;0.62;0.17999999999999999;0.17999999999999999;80;96;15;18;0.23999999999999999;0.35999999999999999;0.33000000000000002;0.070000000000000007;1;1.2704195782662282;16;92;19;2; nein 
2019_03_04 11:47;25;4;0;timed;8;82;1;78;66;30;27;0.28999999999999998;0.58999999999999997;0.080000000000000002;0.040000000000000001;90;6;0;0;0.82999999999999996;0.17000000000000001;0.0;0.0;0;1.1508225817433413;16;92;19;2; nein 
2019_03_04 11:47;25;4;0;timed;9;10;1;45;62;0;0;0.059999999999999998;0.93999999999999995;0.0;0.0;17;99;28;67;0.58999999999999997;0.34000000000000002;0.01;0.059999999999999998;1;1.040297461055161;16;92;19;2; nein 
2019_03_04 11:47;25;4;0;timed;10;29;1;44;51;0;0;0.78000000000000003;0.22;0.0;0.0;74;1;68;82;0.69999999999999996;0.28000000000000003;0.01;0.01;1;1.3509914085625496;16;92;19;2; nein 
2019_03_04 11:47;25;4;0;timed;11;105;1;49;74;63;58;0.84999999999999998;0.080000000000000002;0.02;0.050000000000000003;97;5;86;8;0.25;0.52000000000000002;0.070000000000000007;0.16;1;1.4109839422089863;16;92;19;2; nein 
2019_03_04 11:47;25;4;0;timed;12;31;1;10;59;0;0;0.23999999999999999;0.76000000000000001;0.0;0.0;1;79;53;73;0.23000000000000001;0.58999999999999997;0.050000000000000003;0.13;1;1.3107696373426734;16;92;19;2; nein 
2019_03_04 11:47;25;4;0;timed;13;150;0;25;21;78;38;0.84999999999999998;0.059999999999999998;0.050000000000000003;0.040000000000000001;31;43;64;95;0.059999999999999998;0.45000000000000001;0.13;0.35999999999999999;0;1.5709957831786596;16;92;19;2; nein 
2019_03_04 11:47;25;4;0;timed;14;140;0;36;32;26;27;0.39000000000000001;0.14999999999999999;0.19;0.27000000000000002;44;3;99;25;0.29999999999999999;0.34000000000000002;0.34000000000000002;0.0199999999999999;1;1.5609938203742786;16;92;19;2; nein 
2019_03_04 11:47;25;4;0;timed;15;92;0;90;86;65;94;0.16;0.34000000000000002;0.28000000000000003;0.22;79;22;0;0;0.35999999999999999;0.64000000000000001;0.0;0.0;0;1.2707688419577607;16;92;19;2; nein 
2019_03_04 11:47;25;4;0;timed;16;98;0;27;10;31;79;0.23000000000000001;0.67000000000000004;0.070000000000000007;0.029999999999999999;25;99;0;0;0.38;0.62;0.0;0.0;1;1.7110623902335647;16;92;19;2; nein 
2019_03_04 11:47;25;4;0;timed;17;9;0;61;69;0;0;0.93999999999999995;0.060000000000000102;0.0;0.0;18;93;72;16;0.40999999999999998;0.34999999999999998;0.089999999999999997;0.14999999999999999;1;1.1407186300893954;16;92;19;2; nein 
2019_03_04 11:47;25;4;0;timed;18;50;0;15;20;0;0;0.82999999999999996;0.17000000000000001;0.0;0.0;97;18;88;87;0.56999999999999995;0.39000000000000001;0.01;0.029999999999999999;1;1.1506923695669684;16;92;19;2; nein 
2019_03_04 11:47;25;4;0;timed;19;6;0;9;51;0;0;0.14999999999999999;0.84999999999999998;0.0;0.0;6;40;50;73;0.42999999999999999;0.26000000000000001;0.059999999999999998;0.25;1;0.3902032336245611;16;92;19;2; nein 
2019_03_04 11:47;25;4;0;timed;20;115;0;50;28;61;79;0.83999999999999997;0.040000000000000001;0.059999999999999998;0.059999999999999998;1;26;97;55;0.45000000000000001;0.080000000000000002;0.40999999999999998;0.060000000000000102;0;0.9605694441415835;16;92;19;2; nein 
2019_03_04 11:47;25;4;0;timed;21;142;1;98;65;64;84;0.88;0.070000000000000007;0.01;0.040000000000000001;5;68;60;16;0.46000000000000002;0.080000000000000002;0.27000000000000002;0.19;0;1.220788854863713;16;92;19;2; nein 
2019_03_04 11:47;25;4;0;timed;22;125;0;37;41;10;35;0.91000000000000003;0.040000000000000001;0.029999999999999999;0.02;7;13;91;93;0.26000000000000001;0.39000000000000001;0.16;0.19;1;1.170736385129203;16;92;19;2; nein 
2019_03_04 11:47;25;4;0;timed;23;74;1;66;47;52;44;0.41999999999999998;0.26000000000000001;0.17999999999999999;0.14000000000000001;17;99;0;0;0.47999999999999998;0.52000000000000002;0.0;0.0;1;1.1808605421192624;16;92;19;2; nein 
2019_03_04 11:47;25;4;0;timed;24;139;1;44;31;16;8;0.79000000000000004;0.070000000000000007;0.13;0.0099999999999999499;92;58;2;88;0.55000000000000004;0.070000000000000007;0.34000000000000002;0.039999999999999897;1;1.3608445574518555;16;92;19;2; nein 
2019_03_04 11:47;25;4;0;timed;25;57;0;52;35;23;47;0.22;0.68000000000000005;0.040000000000000001;0.059999999999999998;71;7;0;0;0.28999999999999998;0.70999999999999996;0.0;0.0;1;1.6311454694514396;16;92;19;2; nein 
2019_03_04 11:47;25;4;0;timed;26;106;0;85;69;22;61;0.10000000000000001;0.58999999999999997;0.17999999999999999;0.13;20;79;91;84;0.55000000000000004;0.14999999999999999;0.26000000000000001;0.039999999999999897;1;1.6810539360649273;16;92;19;2; nein 
2019_03_04 11:47;25;4;0;timed;27;83;0;17;12;7;41;0.65000000000000002;0.19;0.089999999999999997;0.070000000000000007;6;84;0;0;0.72999999999999998;0.27000000000000002;0.0;0.0;1;1.5509713315113913;16;92;19;2; nein 
2019_03_04 11:47;25;4;0;timed;28;149;1;14;89;73;53;0.93999999999999995;0.01;0.01;0.040000000000000001;97;45;6;13;0.34000000000000002;0.01;0.40999999999999998;0.23999999999999999;1;1.0907912410184508;16;92;19;2; nein 
2019_03_04 11:47;25;4;0;timed;29;15;1;77;81;0;0;0.28000000000000003;0.71999999999999997;0.0;0.0;98;14;87;18;0.55000000000000004;0.23000000000000001;0.16;0.059999999999999901;1;1.0306402718670142;16;92;19;2; nein 
2019_03_04 11:47;25;4;0;timed;30;78;0;74;36;34;3;0.14999999999999999;0.64000000000000001;0.13;0.080000000000000002;1;83;0;0;0.41999999999999998;0.57999999999999996;0.0;0.0;0;1.1907967573952192;16;92;19;2; nein 
2019_03_04 11:47;25;4;0;timed;31;141;1;93;28;60;91;0.81999999999999995;0.10000000000000001;0.01;0.070000000000000007;14;85;7;89;0.45000000000000001;0.070000000000000007;0.23999999999999999;0.23999999999999999;1;1.2008577326141676;16;92;19;2; nein 
2019_03_04 11:47;25;4;0;timed;32;90;0;27;44;50;72;0.68000000000000005;0.28999999999999998;0.02;0.0099999999999999707;6;96;0;0;0.46999999999999997;0.53000000000000003;0.0;0.0;1;1.1108192205992964;16;92;19;2; nein 
2019_03_04 11:47;25;4;0;timed;33;61;0;43;18;39;70;0.75;0.089999999999999997;0.089999999999999997;0.070000000000000007;16;66;0;0;0.64000000000000001;0.35999999999999999;0.0;0.0;1;1.3408265201796894;16;92;19;2; nein 
2019_03_04 11:47;25;4;0;timed;34;54;1;44;79;78;52;0.79000000000000004;0.19;0.01;0.0099999999999999603;96;1;0;0;0.28000000000000003;0.71999999999999997;0.0;0.0;1;1.030555601882952;16;92;19;2; nein 
2019_03_04 11:47;25;4;0;timed;35;21;1;64;28;0;0;0.080000000000000002;0.92000000000000004;0.0;0.0;50;1;88;13;0.57999999999999996;0.13;0.02;0.27000000000000002;0;1.3109328836417262;16;92;19;2; nein 
2019_03_04 11:47;25;4;0;timed;36;81;1;67;38;52;65;0.27000000000000002;0.35999999999999999;0.01;0.35999999999999999;2;77;0;0;0.14000000000000001;0.85999999999999999;0.0;0.0;1;1.3609754110657377;16;92;19;2; nein 
2019_03_04 11:47;25;4;0;timed;37;35;0;33;37;0;0;0.88;0.12;0.0;0.0;63;4;79;98;0.16;0.46000000000000002;0.17000000000000001;0.20999999999999999;1;1.1907419143371953;16;92;19;2; nein 
2019_03_04 11:47;25;4;0;timed;38;63;0;56;78;42;36;0.93000000000000005;0.040000000000000001;0.01;0.0199999999999999;2;72;0;0;0.32000000000000001;0.68000000000000005;0.0;0.0;0;1.3108174245699047;16;92;19;2; nein 
2019_03_04 11:47;25;4;0;timed;39;94;1;84;86;93;39;0.78000000000000003;0.20000000000000001;0.01;0.0099999999999999603;9;83;0;0;0.46999999999999997;0.53000000000000003;0.0;0.0;0;0.3902263254385616;16;92;19;2; nein 
2019_03_04 11:47;25;4;0;timed;40;117;1;65;85;92;41;0.23000000000000001;0.17999999999999999;0.54000000000000004;0.050000000000000003;99;93;10;13;0.64000000000000001;0.16;0.01;0.19;1;1.0105744473676168;16;92;19;2; nein 
2019_03_04 11:47;25;4;0;timed;41;12;1;53;68;0;0;0.31;0.68999999999999995;0.0;0.0;69;54;97;29;0.25;0.20999999999999999;0.20000000000000001;0.34000000000000002;1;1.3608955518757284;16;92;19;2; nein 
2019_03_04 11:47;25;4;0;timed;42;73;1;65;68;70;47;0.25;0.23000000000000001;0.20999999999999999;0.31;27;95;0;0;0.45000000000000001;0.55000000000000004;0.0;0.0;1;1.6110895872589026;16;92;19;2; nein 
2019_03_04 11:47;25;4;0;timed;43;89;0;26;41;13;56;0.059999999999999998;0.40999999999999998;0.050000000000000003;0.47999999999999998;5;97;0;0;0.37;0.63;0.0;0.0;1;1.5310940901636059;16;92;19;2; nein 
2019_03_04 11:47;25;4;0;timed;44;14;1;36;40;0;0;0.54000000000000004;0.46000000000000002;0.0;0.0;99;70;1;11;0.16;0.089999999999999997;0.080000000000000002;0.67000000000000004;1;1.5109689325290674;16;92;19;2; nein 
2019_03_04 11:47;25;4;0;timed;45;47;1;2;40;0;0;0.45000000000000001;0.55000000000000004;0.0;0.0;93;89;11;56;0.58999999999999997;0.070000000000000007;0.28000000000000003;0.059999999999999998;1;1.0506778730396036;16;92;19;2; nein 
2019_03_04 11:47;25;4;0;timed;46;26;0;76;41;0;0;0.57999999999999996;0.41999999999999998;0.0;0.0;61;79;84;2;0.13;0.029999999999999999;0.67000000000000004;0.17000000000000001;1;1.2004343826847617;16;92;19;2; nein 
2019_03_04 11:47;25;4;0;timed;47;68;0;84;27;55;62;0.01;0.050000000000000003;0.40999999999999998;0.53000000000000003;9;82;0;0;0.37;0.63;0.0;0.0;0;1.1908823895410023;16;92;19;2; nein 
2019_03_04 11:47;25;4;0;timed;48;75;0;67;80;36;81;0.81999999999999995;0.080000000000000002;0.059999999999999998;0.040000000000000001;3;97;0;0;0.32000000000000001;0.68000000000000005;0.0;0.0;1;1.1508620302593044;16;92;19;2; nein 
2019_03_04 11:47;25;4;0;timed;49;116;0;53;65;43;99;0.56999999999999995;0.37;0.050000000000000003;0.010000000000000101;57;72;11;87;0.67000000000000004;0.13;0.14999999999999999;0.050000000000000003;0;1.4108755389679573;16;92;19;2; nein 
2019_03_04 11:47;25;4;0;timed;50;17;0;81;52;0;0;0.059999999999999998;0.93999999999999995;0.0;0.0;34;3;69;41;0.01;0.22;0.75;0.02;1;1.2709205423489038;16;92;19;2; nein 
2019_03_04 11:47;25;4;0;timed;51;40;0;45;49;0;0;0.68999999999999995;0.31;0.0;0.0;2;92;65;73;0.23999999999999999;0.59999999999999998;0.11;0.050000000000000003;1;1.501074731524568;16;92;19;2; nein 
2019_03_04 11:47;25;4;0;timed;52;110;1;47;44;23;52;0.13;0.27000000000000002;0.040000000000000001;0.56000000000000005;99;2;30;22;0.28999999999999998;0.5;0.11;0.10000000000000001;1;1.7613608519350237;16;92;19;2; nein 
2019_03_04 11:47;25;4;0;timed;53;18;0;68;50;0;0;0.029999999999999999;0.96999999999999997;0.0;0.0;34;64;15;89;0.65000000000000002;0.029999999999999999;0.050000000000000003;0.27000000000000002;1;2.0713190685783047;16;92;19;2; nein 
2019_03_04 11:47;25;4;0;timed;54;122;0;35;58;25;31;0.81999999999999995;0.070000000000000007;0.080000000000000002;0.029999999999999999;18;64;68;89;0.63;0.17000000000000001;0.11;0.089999999999999997;1;1.8511665214882669;16;92;19;2; nein 
2019_03_04 11:47;25;4;0;timed;55;71;1;68;55;36;51;0.20000000000000001;0.75;0.02;0.029999999999999999;38;81;0;0;0.52000000000000002;0.47999999999999998;0.0;0.0;1;1.6611940135753684;16;92;19;2; nein 
2019_03_04 11:47;25;4;0;timed;56;43;0;60;83;0;0;0.23000000000000001;0.77000000000000002;0.0;0.0;72;5;70;12;0.29999999999999999;0.40999999999999998;0.12;0.17000000000000001;1;1.2804064672473032;16;92;19;2; nein 
2019_03_04 11:47;25;4;0;timed;57;104;1;55;85;93;3;0.87;0.02;0.089999999999999997;0.02;1;2;90;8;0.35999999999999999;0.070000000000000007;0.40000000000000002;0.17000000000000001;0;1.2807698426040588;16;92;19;2; nein 
2019_03_04 11:47;25;4;0;timed;58;113;1;85;65;39;64;0.44;0.34000000000000002;0.13;0.089999999999999997;87;2;4;35;0.67000000000000004;0.17000000000000001;0.11;0.049999999999999899;1;1.4910692408047908;16;92;19;2; nein 
2019_03_04 11:47;25;4;0;timed;59;130;1;37;79;23;95;0.94999999999999996;0.029999999999999999;0.01;0.01;94;4;58;49;0.46000000000000002;0.5;0.029999999999999999;0.01;0;1.8111086380067718;16;92;19;2; nein 
2019_03_04 11:47;25;4;0;timed;60;3;1;53;40;0;0;0.31;0.68999999999999995;0.0;0.0;96;24;7;88;0.11;0.27000000000000002;0.58999999999999997;0.029999999999999999;0;1.4711769256336993;16;92;19;2; nein 
2019_03_04 11:47;25;4;0;timed;61;95;0;93;88;68;85;0.83999999999999997;0.14000000000000001;0.01;0.01;2;82;0;0;0.41999999999999998;0.57999999999999996;0.0;0.0;1;1.5409369760254776;16;92;19;2; nein 
2019_03_04 11:47;25;4;0;timed;62;103;1;38;49;89;50;0.89000000000000001;0.070000000000000007;0.01;0.029999999999999999;6;64;99;27;0.70999999999999996;0.17999999999999999;0.059999999999999998;0.050000000000000003;1;2.041258016386564;16;92;19;2; nein 
2019_03_04 11:47;25;4;0;timed;63;2;1;59;32;0;0;0.080000000000000002;0.92000000000000004;0.0;0.0;33;38;85;1;0.28999999999999998;0.050000000000000003;0.070000000000000007;0.58999999999999997;0;2.7519076404405496;16;92;19;2; nein 
2019_03_04 11:47;25;4;0;timed;64;25;1;50;53;0;0;0.82999999999999996;0.17000000000000001;0.0;0.0;83;16;97;4;0.45000000000000001;0.29999999999999999;0.11;0.14000000000000001;1;1.5509924990074069;16;92;19;2; nein 
2019_03_04 11:47;25;4;0;timed;65;144;0;99;93;90;71;0.65000000000000002;0.32000000000000001;0.01;0.02;97;14;48;73;0.23000000000000001;0.46000000000000002;0.13;0.17999999999999999;1;1.3309294326973031;16;92;19;2; nein 
2019_03_04 11:47;25;4;0;timed;66;7;1;49;29;0;0;0.95999999999999996;0.040000000000000001;0.0;0.0;23;99;64;25;0.68999999999999995;0.12;0.059999999999999998;0.13;0;1.5609768222329876;16;92;19;2; nein 
2019_03_04 11:47;25;4;0;timed;67;133;1;59;88;60;36;0.67000000000000004;0.070000000000000007;0.12;0.14000000000000001;7;91;66;61;0.25;0.68999999999999995;0.01;0.0500000000000001;0;1.721124327610596;16;92;19;2; nein 
2019_03_04 11:47;25;4;0;timed;68;96;0;51;54;39;7;0.17000000000000001;0.26000000000000001;0.10000000000000001;0.46999999999999997;24;96;0;0;0.28000000000000003;0.71999999999999997;0.0;0.0;0;1.9112062009226065;16;92;19;2; nein 
2019_03_04 11:47;25;4;0;timed;69;123;1;26;24;51;92;0.72999999999999998;0.16;0.070000000000000007;0.040000000000000001;6;90;82;49;0.64000000000000001;0.25;0.050000000000000003;0.059999999999999998;0;1.4010041090605228;16;92;19;2; nein 
2019_03_04 11:47;25;4;0;timed;70;51;0;52;23;43;16;0.60999999999999999;0.20999999999999999;0.01;0.17000000000000001;92;7;0;0;0.14999999999999999;0.84999999999999998;0.0;0.0;1;1.751246316534889;16;92;19;2; nein 
2019_03_04 11:47;25;4;0;timed;71;132;1;27;70;21;19;0.64000000000000001;0.23000000000000001;0.029999999999999999;0.10000000000000001;11;85;55;6;0.39000000000000001;0.46999999999999997;0.029999999999999999;0.11;1;1.4108585408284853;16;92;19;2; nein 
2019_03_04 11:47;25;4;0;timed;72;129;1;12;29;81;36;0.17999999999999999;0.79000000000000004;0.01;0.02;5;19;95;92;0.47999999999999998;0.26000000000000001;0.13;0.13;0;1.641160261040568;16;92;19;2; nein 
2019_03_04 11:47;25;4;0;timed;73;49;1;21;30;0;0;0.53000000000000003;0.46999999999999997;0.0;0.0;93;99;89;25;0.44;0.02;0.11;0.42999999999999999;1;1.6410441605294181;16;92;19;2; nein 
2019_03_04 11:47;25;4;0;timed;74;55;1;74;55;47;48;0.60999999999999999;0.31;0.070000000000000007;0.01;97;6;0;0;0.42999999999999999;0.56999999999999995;0.0;0.0;0;1.3808690091173048;16;92;19;2; nein 
2019_03_04 11:47;25;4;0;timed;75;88;0;77;13;12;7;0.12;0.19;0.66000000000000003;0.029999999999999898;94;2;0;0;0.40999999999999998;0.58999999999999997;0.0;0.0;1;1.8411645586820669;16;92;19;2; nein 
