date;id;block;order;cond;trial;gameid;leftright;oa1;oa2;oa3;oa4;pa1;pa2;pa3;pa4;ob1;ob2;ob3;ob4;pb1;pb2;pb3;pb4;choice;rt;paytrial;payout;alter;geschlecht;comment
2019_03_04 11:47;24;0;1;practice;1;65;0;35;15;77;1;0.62;0.33000000000000002;0.029999999999999999;0.02;68;3;25;96;0.38;0.28000000000000003;0.28000000000000003;0.059999999999999901;0;6.4339753774747805;12;50;19;2;
2019_03_04 11:47;24;0;1;practice;2;69;1;38;74;27;73;0.22;0.19;0.45000000000000001;0.14000000000000001;1;97;79;84;0.28000000000000003;0.45000000000000001;0.17000000000000001;0.10000000000000001;1;10.749906830047621;12;50;19;2;
2019_03_04 11:47;24;0;1;practice;3;23;1;99;93;0;0;0.57999999999999996;0.41999999999999998;0.0;0.0;64;10;80;81;0.13;0.55000000000000004;0.02;0.29999999999999999;1;5.966589030384057;12;50;19;2;
2019_03_04 11:47;24;0;1;practice;4;24;1;19;38;0;0;0.89000000000000001;0.11;0.0;0.0;45;76;95;57;0.29999999999999999;0.22;0.40000000000000002;0.080000000000000002;1;4.683313245399404;12;50;19;2;
2019_03_04 11:47;24;0;1;practice;5;75;0;21;86;27;62;0.88;0.040000000000000001;0.070000000000000007;0.0099999999999999794;13;3;49;87;0.28999999999999998;0.39000000000000001;0.070000000000000007;0.25;0;4.4333387428559945;12;50;19;2;
2019_03_04 11:47;24;0;1;practice;6;15;1;24;59;0;0;0.56999999999999995;0.42999999999999999;0.0;0.0;9;8;80;22;0.31;0.10000000000000001;0.55000000000000004;0.039999999999999897;0;5.3665668363719305;12;50;19;2;
2019_03_04 11:47;24;0;1;practice;7;66;1;44;18;63;36;0.47999999999999998;0.10000000000000001;0.029999999999999999;0.39000000000000001;13;93;61;53;0.52000000000000002;0.45000000000000001;0.02;0.0099999999999999707;1;11.100044003158473;12;50;19;2;
2019_03_04 11:47;24;0;1;practice;8;67;0;74;31;10;77;0.11;0.070000000000000007;0.77000000000000002;0.050000000000000003;2;23;8;97;0.56999999999999995;0.01;0.059999999999999998;0.35999999999999999;0;18.099733543554976;12;50;19;2;
2019_03_04 11:47;24;0;1;practice;9;20;1;32;11;0;0;0.40999999999999998;0.58999999999999997;0.0;0.0;1;86;42;65;0.45000000000000001;0.38;0.050000000000000003;0.12;0;4.766486912267283;12;50;19;2;
2019_03_04 11:47;24;0;1;practice;10;51;0;38;13;51;84;0.91000000000000003;0.070000000000000007;0.01;0.0099999999999999603;4;89;35;16;0.80000000000000004;0.089999999999999997;0.059999999999999998;0.050000000000000003;0;5.666468246205113;12;50;19;2;
2019_03_04 11:47;24;0;1;practice;11;63;1;24;82;6;96;0.91000000000000003;0.070000000000000007;0.01;0.0099999999999999603;73;10;71;22;0.31;0.51000000000000001;0.050000000000000003;0.13;1;7.800076524443284;12;50;19;2;
2019_03_04 11:47;24;0;1;practice;12;30;0;54;78;85;25;0.20999999999999999;0.60999999999999999;0.089999999999999997;0.090000000000000094;87;20;0;0;0.58999999999999997;0.40999999999999998;0.0;0.0;1;8.483106892395881;12;50;19;2;
2019_03_04 11:47;24;0;1;practice;13;41;0;19;54;51;8;0.76000000000000001;0.070000000000000007;0.16;0.0099999999999999794;2;77;0;0;0.54000000000000004;0.46000000000000002;0.0;0.0;0;7.09985702180893;12;50;19;2;
2019_03_04 11:47;24;0;1;practice;14;64;0;44;60;96;45;0.53000000000000003;0.10000000000000001;0.029999999999999999;0.34000000000000002;88;20;43;31;0.47999999999999998;0.38;0.050000000000000003;0.089999999999999997;1;11.783083672069552;12;50;19;2;
2019_03_04 11:47;24;0;1;practice;15;22;1;84;87;0;0;0.17000000000000001;0.82999999999999996;0.0;0.0;3;24;41;83;0.68000000000000005;0.11;0.10000000000000001;0.11;0;11.149825302329191;12;50;19;2;
2019_03_04 11:47;24;0;1;practice;16;59;1;13;27;48;51;0.56999999999999995;0.13;0.13;0.17000000000000001;8;37;97;1;0.65000000000000002;0.16;0.14999999999999999;0.040000000000000001;0;6.183232743993358;12;50;19;2;
2019_03_04 11:47;24;0;1;practice;17;6;0;42;59;0;0;0.35999999999999999;0.64000000000000001;0.0;0.0;77;19;6;7;0.44;0.14999999999999999;0.17999999999999999;0.23000000000000001;0;10.016500863706824;12;50;19;2;
2019_03_04 11:47;24;0;1;practice;18;26;0;24;46;74;59;0.29999999999999999;0.11;0.25;0.34000000000000002;91;6;0;0;0.28999999999999998;0.70999999999999996;0.0;0.0;0;5.000031110104828;12;50;19;2;
2019_03_04 11:47;24;0;1;practice;19;70;1;21;42;14;63;0.96999999999999997;0.01;0.01;0.01;70;2;6;76;0.23999999999999999;0.42999999999999999;0.01;0.32000000000000001;1;4.983182903682973;12;50;19;2;
2019_03_04 11:47;24;0;1;practice;20;73;1;99;88;95;28;0.83999999999999997;0.14000000000000001;0.01;0.01;90;93;10;74;0.080000000000000002;0.46000000000000002;0.34999999999999998;0.11;1;6.566447976527343;12;50;19;2;
2019_03_04 11:47;24;0;1;practice;21;58;1;44;50;85;42;0.38;0.57999999999999996;0.02;0.02;37;88;19;12;0.20000000000000001;0.29999999999999999;0.46000000000000002;0.040000000000000001;1;7.666537522314684;12;50;19;2;
2019_03_04 11:47;24;0;1;practice;22;1;0;67;36;0;0;0.14999999999999999;0.84999999999999998;0.0;0.0;1;4;81;77;0.25;0.54000000000000004;0.14000000000000001;0.070000000000000007;0;9.099812120624847;12;50;19;2;
2019_03_04 11:47;24;0;1;practice;23;61;1;51;48;56;88;0.91000000000000003;0.02;0.01;0.059999999999999998;78;21;14;82;0.55000000000000004;0.29999999999999999;0.070000000000000007;0.080000000000000002;0;6.466524565115833;12;50;19;2;
2019_03_04 11:47;24;0;1;practice;24;10;0;34;59;0;0;0.16;0.83999999999999997;0.0;0.0;21;61;96;7;0.19;0.01;0.5;0.29999999999999999;0;5.03319640610971;12;50;19;2;
2019_03_04 11:47;24;0;1;practice;25;9;1;57;44;0;0;0.14999999999999999;0.84999999999999998;0.0;0.0;38;35;64;95;0.34000000000000002;0.45000000000000001;0.089999999999999997;0.12;0;5.8667486861595535;12;50;19;2;
2019_03_04 11:47;24;0;1;practice;26;11;1;10;44;0;0;0.48999999999999999;0.51000000000000001;0.0;0.0;88;12;54;50;0.17000000000000001;0.75;0.02;0.059999999999999998;0;8.966477418875002;12;50;19;2;
2019_03_04 11:47;24;0;1;practice;27;19;0;25;73;0;0;0.69999999999999996;0.29999999999999999;0.0;0.0;87;84;1;86;0.040000000000000001;0.59999999999999998;0.28000000000000003;0.080000000000000002;0;14.44976680250511;12;50;19;2;
2019_03_04 11:47;24;0;1;practice;28;42;0;23;45;91;22;0.72999999999999998;0.02;0.20000000000000001;0.050000000000000003;2;86;0;0;0.40999999999999998;0.58999999999999997;0.0;0.0;0;7.29981096602387;12;50;19;2;
2019_03_04 11:47;24;0;1;practice;29;43;0;11;17;21;44;0.16;0.46000000000000002;0.25;0.13;2;66;0;0;0.44;0.56000000000000005;0.0;0.0;0;5.28303524293915;12;50;19;2;
2019_03_04 11:47;24;0;1;practice;30;12;1;45;86;0;0;0.97999999999999998;0.02;0.0;0.0;6;23;95;81;0.14999999999999999;0.40999999999999998;0.050000000000000003;0.39000000000000001;0;6.699824051509495;12;50;19;2;
2019_03_04 11:47;24;0;1;practice;31;46;0;79;57;98;81;0.67000000000000004;0.070000000000000007;0.20999999999999999;0.050000000000000003;1;76;0;0;0.56000000000000005;0.44;0.0;0.0;0;8.016400798214818;12;50;19;2;
2019_03_04 11:47;24;0;1;practice;32;55;1;53;11;80;74;0.31;0.37;0.28000000000000003;0.039999999999999897;6;93;98;96;0.69999999999999996;0.22;0.050000000000000003;0.029999999999999999;0;8.899866194477;12;50;19;2;
2019_03_04 11:47;24;0;1;practice;33;50;1;17;12;21;14;0.55000000000000004;0.34000000000000002;0.059999999999999998;0.049999999999999899;13;93;0;0;0.28999999999999998;0.70999999999999996;0.0;0.0;1;10.766416673990534;12;50;19;2;
2019_03_04 11:47;24;0;1;practice;34;5;0;23;58;0;0;0.71999999999999997;0.28000000000000003;0.0;0.0;94;12;52;3;0.11;0.84999999999999998;0.029999999999999999;0.01;0;6.233137200693818;12;50;19;2;
2019_03_04 11:47;24;0;1;practice;35;27;0;68;43;98;36;0.54000000000000004;0.44;0.01;0.0099999999999999603;97;13;0;0;0.27000000000000002;0.72999999999999998;0.0;0.0;0;12.06661475234614;12;50;19;2;
2019_03_04 11:47;24;0;1;practice;36;4;1;40;59;0;0;0.19;0.81000000000000005;0.0;0.0;10;88;13;45;0.56000000000000005;0.28999999999999998;0.01;0.14000000000000001;0;18.08301458839378;12;50;19;2;
2019_03_04 11:47;24;0;1;practice;37;14;0;92;56;0;0;0.11;0.89000000000000001;0.0;0.0;97;31;51;4;0.58999999999999997;0.22;0.080000000000000002;0.11;1;16.566738230598276;12;50;19;2;
2019_03_04 11:47;24;0;1;practice;38;44;1;69;48;22;63;0.39000000000000001;0.40999999999999998;0.19;0.01;1;94;0;0;0.22;0.78000000000000003;0.0;0.0;0;10.983321455902114;12;50;19;2;
2019_03_04 11:47;24;0;1;practice;39;13;1;15;25;0;0;0.29999999999999999;0.69999999999999996;0.0;0.0;3;43;35;73;0.44;0.40000000000000002;0.01;0.14999999999999999;1;11.732907883942971;12;50;19;2;
2019_03_04 11:47;24;0;1;practice;40;57;1;39;68;59;91;0.73999999999999999;0.040000000000000001;0.14999999999999999;0.070000000000000007;9;22;40;84;0.29999999999999999;0.32000000000000001;0.040000000000000001;0.34000000000000002;0;14.083204135527922;12;50;19;2;
2019_03_04 11:47;24;0;1;practice;41;28;0;37;83;75;8;0.83999999999999997;0.070000000000000007;0.01;0.080000000000000002;94;2;0;0;0.19;0.81000000000000005;0.0;0.0;0;9.983130625878402;12;50;19;2;
2019_03_04 11:47;24;0;1;practice;42;2;0;41;60;0;0;0.97999999999999998;0.02;0.0;0.0;10;14;97;6;0.54000000000000004;0.17000000000000001;0.12;0.17000000000000001;0;11.449906316891429;12;50;19;2;
2019_03_04 11:47;24;0;1;practice;43;29;0;66;40;92;49;0.46999999999999997;0.10000000000000001;0.34000000000000002;0.089999999999999997;8;94;0;0;0.44;0.56000000000000005;0.0;0.0;0;13.866463242929967;12;50;19;2;
2019_03_04 11:47;24;0;1;practice;44;40;1;29;65;30;41;0.70999999999999996;0.01;0.14999999999999999;0.13;2;59;0;0;0.32000000000000001;0.68000000000000005;0.0;0.0;1;15.39976452537303;12;50;19;2;
2019_03_04 11:47;24;0;1;practice;45;35;1;84;95;4;35;0.89000000000000001;0.050000000000000003;0.01;0.050000000000000003;5;98;0;0;0.19;0.81000000000000005;0.0;0.0;0;12.366448810407746;12;50;19;2;
2019_03_04 11:47;24;0;1;practice;46;38;0;51;89;10;60;0.57999999999999996;0.029999999999999999;0.080000000000000002;0.31;8;84;0;0;0.33000000000000002;0.67000000000000004;0.0;0.0;0;9.599781972687197;12;50;19;2;
2019_03_04 11:47;24;0;1;practice;47;37;1;50;66;99;12;0.26000000000000001;0.71999999999999997;0.01;0.01;22;90;0;0;0.37;0.63;0.0;0.0;1;13.299762536891649;12;50;19;2;
2019_03_04 11:47;24;0;1;practice;48;25;1;7;18;0;0;0.20999999999999999;0.79000000000000004;0.0;0.0;92;45;33;13;0.41999999999999998;0.17999999999999999;0.22;0.17999999999999999;1;19.733001855700422;12;50;19;2;
2019_03_04 11:47;24;0;1;practice;49;31;0;72;59;40;92;0.59999999999999998;0.34999999999999998;0.02;0.029999999999999999;97;29;0;0;0.38;0.62;0.0;0.0;0;11.94994287928239;12;50;19;2;
2019_03_04 11:47;24;0;1;practice;50;7;0;13;31;0;0;0.51000000000000001;0.48999999999999999;0.0;0.0;8;79;42;18;0.85999999999999999;0.089999999999999997;0.02;0.029999999999999999;0;9.933168759809632;12;50;19;2;
2019_03_04 11:47;24;0;1;practice;51;36;0;56;89;86;77;0.66000000000000003;0.080000000000000002;0.14999999999999999;0.11;29;91;0;0;0.40999999999999998;0.58999999999999997;0.0;0.0;1;14.86640743717544;12;50;19;2;
2019_03_04 11:47;24;0;1;practice;52;74;1;36;46;10;12;0.11;0.19;0.65000000000000002;0.049999999999999899;92;24;79;19;0.51000000000000001;0.40999999999999998;0.02;0.059999999999999998;1;19.383023119617064;12;50;19;2;
2019_03_04 11:47;24;0;1;practice;53;16;1;50;42;0;0;0.32000000000000001;0.68000000000000005;0.0;0.0;97;2;56;31;0.35999999999999999;0.16;0.16;0.32000000000000001;0;15.616541659637733;12;50;19;2;
2019_03_04 11:47;24;0;1;practice;54;33;0;54;82;55;71;0.56000000000000005;0.20999999999999999;0.02;0.20999999999999999;13;99;0;0;0.5;0.5;0.0;0.0;0;6.400066004738619;12;50;19;2;
2019_03_04 11:47;24;0;1;practice;55;52;0;17;61;57;59;0.070000000000000007;0.050000000000000003;0.33000000000000002;0.55000000000000004;12;93;94;62;0.71999999999999997;0.16;0.080000000000000002;0.040000000000000001;0;12.999937779790343;12;50;19;2;
2019_03_04 11:47;24;0;1;practice;56;34;0;57;23;66;79;0.56000000000000005;0.23000000000000001;0.13;0.079999999999999905;85;9;0;0;0.56000000000000005;0.44;0.0;0.0;0;4.983377582379035;12;50;19;2;
2019_03_04 11:47;24;0;1;practice;57;8;1;20;44;0;0;0.26000000000000001;0.73999999999999999;0.0;0.0;99;3;69;24;0.20999999999999999;0.60999999999999999;0.12;0.060000000000000102;0;6.349941852970005;12;50;19;2;
2019_03_04 11:47;24;0;1;practice;58;21;0;59;69;0;0;0.34000000000000002;0.66000000000000003;0.0;0.0;64;18;5;24;0.14999999999999999;0.040000000000000001;0.51000000000000001;0.29999999999999999;0;5.266532134171939;12;50;19;2;
2019_03_04 11:47;24;0;1;practice;59;68;1;39;58;40;8;0.48999999999999999;0.44;0.02;0.050000000000000003;92;83;51;2;0.57999999999999996;0.13;0.02;0.27000000000000002;0;17.41628816039156;12;50;19;2;
2019_03_04 11:47;24;0;1;practice;60;54;0;69;80;22;55;0.27000000000000002;0.31;0.059999999999999998;0.35999999999999999;52;2;49;90;0.059999999999999998;0.33000000000000002;0.20000000000000001;0.40999999999999998;0;21.032858685075553;12;50;19;2;
2019_03_04 11:47;24;0;1;practice;61;71;1;94;87;26;75;0.71999999999999997;0.23999999999999999;0.02;0.02;90;27;12;83;0.16;0.73999999999999999;0.02;0.080000000000000002;0;7.933121292846408;12;50;19;2;
2019_03_04 11:47;24;0;1;practice;62;47;1;91;99;90;78;0.93000000000000005;0.040000000000000001;0.02;0.0099999999999999499;10;87;0;0;0.23000000000000001;0.77000000000000002;0.0;0.0;0;7.266456122884847;12;50;19;2;
2019_03_04 11:47;24;0;1;practice;63;32;0;21;86;16;78;0.45000000000000001;0.41999999999999998;0.050000000000000003;0.080000000000000099;95;9;0;0;0.42999999999999999;0.56999999999999995;0.0;0.0;0;5.616679891132662;12;50;19;2;
2019_03_04 11:47;24;0;1;practice;64;48;1;20;25;24;35;0.32000000000000001;0.13;0.48999999999999999;0.059999999999999901;44;76;0;0;0.29999999999999999;0.69999999999999996;0.0;0.0;1;8.71639547421728;12;50;19;2;
2019_03_04 11:47;24;0;1;practice;65;60;0;39;93;27;78;0.85999999999999999;0.02;0.11;0.01;22;5;62;95;0.059999999999999998;0.56999999999999995;0.14000000000000001;0.23000000000000001;0;11.733154840443603;12;50;19;2;
2019_03_04 11:47;24;0;1;practice;66;62;0;65;52;74;55;0.16;0.12;0.14999999999999999;0.56999999999999995;72;86;2;68;0.12;0.53000000000000003;0.22;0.13;0;13.333244386230945;12;50;19;2;
2019_03_04 11:47;24;0;1;practice;67;53;0;47;24;95;38;0.57999999999999996;0.28000000000000003;0.02;0.12;8;22;93;96;0.54000000000000004;0.34000000000000002;0.10000000000000001;0.0199999999999999;0;6.116519850491386;12;50;19;2;
2019_03_04 11:47;24;0;1;practice;68;3;0;20;70;0;0;0.13;0.87;0.0;0.0;95;19;80;73;0.31;0.57999999999999996;0.029999999999999999;0.080000000000000002;0;7.733313918917702;12;50;19;2;
2019_03_04 11:47;24;0;1;practice;69;49;1;14;31;42;22;0.77000000000000002;0.089999999999999997;0.02;0.12;87;28;0;0;0.68000000000000005;0.32000000000000001;0.0;0.0;1;13.5497489061745;12;50;19;2;
2019_03_04 11:47;24;0;1;practice;70;17;0;27;61;0;0;0.68999999999999995;0.31;0.0;0.0;3;91;69;43;0.29999999999999999;0.33000000000000002;0.27000000000000002;0.099999999999999895;0;8.533114942534667;12;50;19;2;
2019_03_04 11:47;24;0;1;practice;71;45;1;37;40;75;23;0.54000000000000004;0.38;0.059999999999999998;0.02;1;90;0;0;0.28000000000000003;0.71999999999999997;0.0;0.0;0;4.3165555790037615;12;50;19;2;
2019_03_04 11:47;24;0;1;practice;72;39;1;53;65;48;75;0.92000000000000004;0.029999999999999999;0.01;0.040000000000000001;16;83;0;0;0.31;0.68999999999999995;0.0;0.0;0;11.616454102331772;12;50;19;2;
2019_03_04 11:47;24;0;1;practice;73;18;1;47;36;0;0;0.089999999999999997;0.91000000000000003;0.0;0.0;2;44;81;9;0.20000000000000001;0.25;0.51000000000000001;0.040000000000000001;0;11.733115391547472;12;50;19;2;
2019_03_04 11:47;24;0;1;practice;74;56;0;47;52;64;10;0.77000000000000002;0.040000000000000001;0.11;0.080000000000000002;1;5;12;99;0.14000000000000001;0.28999999999999998;0.27000000000000002;0.29999999999999999;0;14.833068950896632;12;50;19;2;
2019_03_04 11:47;24;0;1;practice;75;72;1;86;85;97;43;0.51000000000000001;0.14999999999999999;0.33000000000000002;0.0099999999999999499;72;29;10;90;0.01;0.11;0.65000000000000002;0.23000000000000001;0;11.149765647902314;12;50;19;2;
2019_03_04 11:47;24;1;1;timed;1;146;1;25;5;64;35;0.94999999999999996;0.02;0.01;0.02;47;97;12;79;0.20999999999999999;0.029999999999999999;0.02;0.73999999999999999;NA;6.41537698711727;12;50;19;2;
2019_03_04 11:47;24;1;1;timed;2;110;0;47;44;23;52;0.13;0.27000000000000002;0.040000000000000001;0.56000000000000005;99;2;30;22;0.28999999999999998;0.5;0.11;0.10000000000000001;0;4.183224405203873;12;50;19;2;
2019_03_04 11:47;24;1;1;timed;3;107;0;52;48;13;63;0.68000000000000005;0.19;0.050000000000000003;0.079999999999999905;54;91;33;3;0.19;0.17999999999999999;0.33000000000000002;0.29999999999999999;0;4.633555679711208;12;50;19;2;
2019_03_04 11:47;24;1;1;timed;4;28;1;47;30;0;0;0.97999999999999998;0.02;0.0;0.0;55;48;77;13;0.070000000000000007;0.26000000000000001;0.42999999999999999;0.23999999999999999;1;5.0667427207154105;12;50;19;2;
2019_03_04 11:47;24;1;1;timed;5;106;0;85;69;22;61;0.10000000000000001;0.58999999999999997;0.17999999999999999;0.13;20;79;91;84;0.55000000000000004;0.14999999999999999;0.26000000000000001;0.039999999999999897;1;6.133159266417351;12;50;19;2;
2019_03_04 11:47;24;1;1;timed;6;130;0;37;79;23;95;0.94999999999999996;0.029999999999999999;0.01;0.01;94;4;58;49;0.46000000000000002;0.5;0.029999999999999999;0.01;1;4.7500999051299;12;50;19;2;
2019_03_04 11:47;24;1;1;timed;7;63;1;56;78;42;36;0.93000000000000005;0.040000000000000001;0.01;0.0199999999999999;2;72;0;0;0.32000000000000001;0.68000000000000005;0.0;0.0;0;4.016562442469876;12;50;19;2;
2019_03_04 11:47;24;1;1;timed;8;92;1;90;86;65;94;0.16;0.34000000000000002;0.28000000000000003;0.22;79;22;0;0;0.35999999999999999;0.64000000000000001;0.0;0.0;1;6.033187425871802;12;50;19;2;
2019_03_04 11:47;24;1;1;timed;9;80;1;47;39;45;10;0.13;0.76000000000000001;0.059999999999999998;0.050000000000000003;2;87;0;0;0.48999999999999999;0.51000000000000001;0.0;0.0;0;3.8165626349036756;12;50;19;2;
2019_03_04 11:47;24;1;1;timed;10;133;1;59;88;60;36;0.67000000000000004;0.070000000000000007;0.12;0.14000000000000001;7;91;66;61;0.25;0.68999999999999995;0.01;0.0500000000000001;NA;6.416560453988495;12;50;19;2;
2019_03_04 11:47;24;1;1;timed;11;135;1;48;60;41;51;0.14000000000000001;0.40000000000000002;0.089999999999999997;0.37;94;1;85;65;0.64000000000000001;0.29999999999999999;0.01;0.050000000000000003;NA;6.416545700743882;12;50;19;2;
2019_03_04 11:47;24;1;1;timed;12;25;1;50;53;0;0;0.82999999999999996;0.17000000000000001;0.0;0.0;83;16;97;4;0.45000000000000001;0.29999999999999999;0.11;0.14000000000000001;0;4.066564719601956;12;50;19;2;
2019_03_04 11:47;24;1;1;timed;13;101;1;30;96;61;45;0.65000000000000002;0.14000000000000001;0.11;0.10000000000000001;3;98;63;89;0.75;0.19;0.040000000000000001;0.02;0;4.733216419206656;12;50;19;2;
2019_03_04 11:47;24;1;1;timed;14;122;1;35;58;25;31;0.81999999999999995;0.070000000000000007;0.080000000000000002;0.029999999999999999;18;64;68;89;0.63;0.17000000000000001;0.11;0.089999999999999997;0;3.499964079053825;12;50;19;2;
2019_03_04 11:47;24;1;1;timed;15;143;1;88;44;56;73;0.95999999999999996;0.02;0.01;0.01;20;3;87;32;0.19;0.40000000000000002;0.28000000000000003;0.13;0;4.2665318134495465;12;50;19;2;
2019_03_04 11:47;24;1;1;timed;16;112;1;70;44;98;64;0.02;0.75;0.12;0.11;33;2;63;85;0.23999999999999999;0.31;0.080000000000000002;0.37;0;3.5665339302213397;12;50;19;2;
2019_03_04 11:47;24;1;1;timed;17;40;1;45;49;0;0;0.68999999999999995;0.31;0.0;0.0;2;92;65;73;0.23999999999999999;0.59999999999999998;0.11;0.050000000000000003;0;4.016679826989275;12;50;19;2;
2019_03_04 11:47;24;1;1;timed;18;76;0;39;62;9;28;0.01;0.51000000000000001;0.26000000000000001;0.22;77;7;0;0;0.57999999999999996;0.41999999999999998;0.0;0.0;0;3.19987697076067;12;50;19;2;
2019_03_04 11:47;24;1;1;timed;19;33;0;27;70;0;0;0.88;0.12;0.0;0.0;93;3;77;16;0.080000000000000002;0.40000000000000002;0.5;0.02;NA;6.416586111809011;12;50;19;2;
2019_03_04 11:47;24;1;1;timed;20;2;1;59;32;0;0;0.080000000000000002;0.92000000000000004;0.0;0.0;33;38;85;1;0.28999999999999998;0.050000000000000003;0.070000000000000007;0.58999999999999997;1;2.8333123794473067;12;50;19;2;
2019_03_04 11:47;24;1;1;timed;21;54;1;44;79;78;52;0.79000000000000004;0.19;0.01;0.0099999999999999603;96;1;0;0;0.28000000000000003;0.71999999999999997;0.0;0.0;0;3.7665828083645465;12;50;19;2;
2019_03_04 11:47;24;1;1;timed;22;138;0;8;20;43;51;0.38;0.5;0.02;0.10000000000000001;72;82;70;1;0.39000000000000001;0.050000000000000003;0.070000000000000007;0.48999999999999999;1;4.499906669685515;12;50;19;2;
2019_03_04 11:47;24;1;1;timed;23;141;0;93;28;60;91;0.81999999999999995;0.10000000000000001;0.01;0.070000000000000007;14;85;7;89;0.45000000000000001;0.070000000000000007;0.23999999999999999;0.23999999999999999;1;4.183204841116094;12;50;19;2;
2019_03_04 11:47;24;1;1;timed;24;82;1;78;66;30;27;0.28999999999999998;0.58999999999999997;0.080000000000000002;0.040000000000000001;90;6;0;0;0.82999999999999996;0.17000000000000001;0.0;0.0;0;4.466615329649358;12;50;19;2;
2019_03_04 11:47;24;1;1;timed;25;13;1;52;56;0;0;0.46999999999999997;0.53000000000000003;0.0;0.0;94;71;27;2;0.089999999999999997;0.31;0.57999999999999996;0.020000000000000101;1;3.866537009156673;12;50;19;2;
2019_03_04 11:47;24;1;1;timed;26;120;0;64;40;48;51;0.19;0.02;0.070000000000000007;0.71999999999999997;97;9;79;94;0.23000000000000001;0.54000000000000004;0.01;0.22;1;4.433228734960721;12;50;19;2;
2019_03_04 11:47;24;1;1;timed;27;108;1;48;72;39;70;0.14000000000000001;0.66000000000000003;0.02;0.17999999999999999;81;44;98;8;0.59999999999999998;0.029999999999999999;0.050000000000000003;0.32000000000000001;1;4.449992591306;12;50;19;2;
2019_03_04 11:47;24;1;1;timed;28;43;0;60;83;0;0;0.23000000000000001;0.77000000000000002;0.0;0.0;72;5;70;12;0.29999999999999999;0.40999999999999998;0.12;0.17000000000000001;0;2.7165741167773376;12;50;19;2;
2019_03_04 11:47;24;1;1;timed;29;77;0;24;17;99;41;0.17999999999999999;0.13;0.10000000000000001;0.58999999999999997;12;97;0;0;0.59999999999999998;0.40000000000000002;0.0;0.0;0;4.2166235080767365;12;50;19;2;
2019_03_04 11:47;24;1;1;timed;30;131;1;83;41;81;88;0.23999999999999999;0.58999999999999997;0.10000000000000001;0.070000000000000007;82;97;4;17;0.26000000000000001;0.46999999999999997;0.11;0.16;0;4.699861896791845;12;50;19;2;
2019_03_04 11:47;24;1;1;timed;31;84;0;43;10;5;45;0.78000000000000003;0.13;0.059999999999999998;0.029999999999999999;87;1;0;0;0.57999999999999996;0.41999999999999998;0.0;0.0;0;3.7165561563051597;12;50;19;2;
2019_03_04 11:47;24;1;1;timed;32;52;0;71;51;10;54;0.22;0.12;0.19;0.46999999999999997;91;1;0;0;0.29999999999999999;0.69999999999999996;0.0;0.0;0;2.6667681219569204;12;50;19;2;
2019_03_04 11:47;24;1;1;timed;33;134;1;57;48;50;55;0.02;0.62;0.17999999999999999;0.17999999999999999;80;96;15;18;0.23999999999999999;0.35999999999999999;0.33000000000000002;0.070000000000000007;1;3.466489606338655;12;50;19;2;
2019_03_04 11:47;24;1;1;timed;34;88;1;77;13;12;7;0.12;0.19;0.66000000000000003;0.029999999999999898;94;2;0;0;0.40999999999999998;0.58999999999999997;0.0;0.0;0;2.7332154570394778;12;50;19;2;
2019_03_04 11:47;24;1;1;timed;35;45;0;97;87;0;0;0.71999999999999997;0.28000000000000003;0.0;0.0;96;11;14;4;0.25;0.029999999999999999;0.14000000000000001;0.57999999999999996;0;4.766525398994418;12;50;19;2;
2019_03_04 11:47;24;1;1;timed;36;123;1;26;24;51;92;0.72999999999999998;0.16;0.070000000000000007;0.040000000000000001;6;90;82;49;0.64000000000000001;0.25;0.050000000000000003;0.059999999999999998;1;5.049868856476678;12;50;19;2;
2019_03_04 11:47;24;1;1;timed;37;79;0;52;46;29;22;0.17999999999999999;0.51000000000000001;0.23999999999999999;0.070000000000000104;93;14;0;0;0.45000000000000001;0.55000000000000004;0.0;0.0;0;4.799905579227925;12;50;19;2;
2019_03_04 11:47;24;1;1;timed;38;9;1;61;69;0;0;0.93999999999999995;0.060000000000000102;0.0;0.0;18;93;72;16;0.40999999999999998;0.34999999999999998;0.089999999999999997;0.14999999999999999;0;4.26656484789055;12;50;19;2;
2019_03_04 11:47;24;1;1;timed;39;4;1;40;43;0;0;0.58999999999999997;0.40999999999999998;0.0;0.0;2;33;88;81;0.69999999999999996;0.14000000000000001;0.13;0.029999999999999999;0;4.983314720724593;12;50;19;2;
2019_03_04 11:47;24;1;1;timed;40;31;0;10;59;0;0;0.23999999999999999;0.76000000000000001;0.0;0.0;1;79;53;73;0.23000000000000001;0.58999999999999997;0.050000000000000003;0.13;1;4.549819785897853;12;50;19;2;
2019_03_04 11:47;24;1;1;timed;41;46;0;5;19;0;0;0.32000000000000001;0.68000000000000005;0.0;0.0;88;38;97;66;0.60999999999999999;0.20000000000000001;0.040000000000000001;0.14999999999999999;1;5.383213949642595;12;50;19;2;
2019_03_04 11:47;24;1;1;timed;42;70;1;66;55;69;50;0.22;0.29999999999999999;0.29999999999999999;0.17999999999999999;2;90;0;0;0.34000000000000002;0.66000000000000003;0.0;0.0;0;3.4998704280169477;12;50;19;2;
2019_03_04 11:47;24;1;1;timed;43;20;0;44;40;0;0;0.91000000000000003;0.089999999999999997;0.0;0.0;29;5;80;99;0.25;0.40000000000000002;0.26000000000000001;0.089999999999999997;0;5.283364945904395;12;50;19;2;
2019_03_04 11:47;24;1;1;timed;44;90;0;27;44;50;72;0.68000000000000005;0.28999999999999998;0.02;0.0099999999999999707;6;96;0;0;0.46999999999999997;0.53000000000000003;0.0;0.0;0;3.5332018583958416;12;50;19;2;
2019_03_04 11:47;24;1;1;timed;45;69;1;54;34;64;49;0.34000000000000002;0.25;0.20999999999999999;0.20000000000000001;14;98;0;0;0.62;0.38;0.0;0.0;0;4.81673165578286;12;50;19;2;
2019_03_04 11:47;24;1;1;timed;46;7;1;49;29;0;0;0.95999999999999996;0.040000000000000001;0.0;0.0;23;99;64;25;0.68999999999999995;0.12;0.059999999999999998;0.13;0;5.416704137773195;12;50;19;2;
2019_03_04 11:47;24;1;1;timed;47;111;1;51;36;48;27;0.93000000000000005;0.01;0.01;0.049999999999999899;31;78;30;53;0.55000000000000004;0.16;0.029999999999999999;0.26000000000000001;0;5.650028640540768;12;50;19;2;
2019_03_04 11:47;24;1;1;timed;48;139;1;44;31;16;8;0.79000000000000004;0.070000000000000007;0.13;0.0099999999999999499;92;58;2;88;0.55000000000000004;0.070000000000000007;0.34000000000000002;0.039999999999999897;1;6.0831201061719185;12;50;19;2;
2019_03_04 11:47;24;1;1;timed;49;128;0;70;49;27;54;0.27000000000000002;0.53000000000000003;0.02;0.17999999999999999;72;97;6;20;0.29999999999999999;0.39000000000000001;0.22;0.0899999999999999;0;4.283246919938392;12;50;19;2;
2019_03_04 11:47;24;1;1;timed;50;11;0;17;36;0;0;0.14000000000000001;0.85999999999999999;0.0;0.0;19;41;34;95;0.88;0.02;0.050000000000000003;0.050000000000000003;0;4.833244706951518;12;50;19;2;
2019_03_04 11:47;24;1;1;timed;51;12;1;53;68;0;0;0.31;0.68999999999999995;0.0;0.0;69;54;97;29;0.25;0.20999999999999999;0.20000000000000001;0.34000000000000002;1;5.9666207819354895;12;50;19;2;
2019_03_04 11:47;24;1;1;timed;52;41;0;99;40;0;0;0.89000000000000001;0.11;0.0;0.0;1;67;52;46;0.51000000000000001;0.38;0.029999999999999999;0.080000000000000002;0;4.5998490037382;12;50;19;2;
2019_03_04 11:47;24;1;1;timed;53;83;1;17;12;7;41;0.65000000000000002;0.19;0.089999999999999997;0.070000000000000007;6;84;0;0;0.72999999999999998;0.27000000000000002;0.0;0.0;0;4.066539382505653;12;50;19;2;
2019_03_04 11:47;24;1;1;timed;54;37;1;14;98;0;0;0.93000000000000005;0.070000000000000007;0.0;0.0;41;2;87;66;0.17999999999999999;0.48999999999999999;0.32000000000000001;0.010000000000000101;1;5.883357312703083;12;50;19;2;
2019_03_04 11:47;24;1;1;timed;55;136;1;29;67;14;75;0.46000000000000002;0.29999999999999999;0.20999999999999999;0.0300000000000001;70;86;1;85;0.31;0.39000000000000001;0.27000000000000002;0.029999999999999898;NA;6.416419015266001;12;50;19;2;
2019_03_04 11:47;24;1;1;timed;56;39;0;14;33;0;0;0.78000000000000003;0.22;0.0;0.0;93;84;1;25;0.14000000000000001;0.23999999999999999;0.39000000000000001;0.23000000000000001;0;4.199936625189366;12;50;19;2;
2019_03_04 11:47;24;1;1;timed;57;53;0;26;70;50;80;0.29999999999999999;0.59999999999999998;0.040000000000000001;0.059999999999999998;89;1;0;0;0.40999999999999998;0.58999999999999997;0.0;0.0;0;3.416591243370931;12;50;19;2;
2019_03_04 11:47;24;1;1;timed;58;98;0;27;10;31;79;0.23000000000000001;0.67000000000000004;0.070000000000000007;0.029999999999999999;25;99;0;0;0.38;0.62;0.0;0.0;0;4.466523602946836;12;50;19;2;
2019_03_04 11:47;24;1;1;timed;59;91;0;74;81;86;48;0.93000000000000005;0.02;0.01;0.039999999999999897;7;64;0;0;0.13;0.87;0.0;0.0;0;4.916685215130201;12;50;19;2;
2019_03_04 11:47;24;1;1;timed;60;119;0;60;58;11;18;0.25;0.72999999999999998;0.01;0.01;96;23;42;85;0.44;0.48999999999999999;0.059999999999999998;0.010000000000000101;0;5.733164462126297;12;50;19;2;
2019_03_04 11:47;24;1;1;timed;61;21;1;64;28;0;0;0.080000000000000002;0.92000000000000004;0.0;0.0;50;1;88;13;0.57999999999999996;0.13;0.02;0.27000000000000002;1;3.933177098600936;12;50;19;2;
2019_03_04 11:47;24;1;1;timed;62;74;0;66;47;52;44;0.41999999999999998;0.26000000000000001;0.17999999999999999;0.14000000000000001;17;99;0;0;0.47999999999999998;0.52000000000000002;0.0;0.0;0;3.8669456099141826;12;50;19;2;
2019_03_04 11:47;24;1;1;timed;63;51;1;52;23;43;16;0.60999999999999999;0.20999999999999999;0.01;0.17000000000000001;92;7;0;0;0.14999999999999999;0.84999999999999998;0.0;0.0;0;3.9664639485199586;12;50;19;2;
2019_03_04 11:47;24;1;1;timed;64;26;0;76;41;0;0;0.57999999999999996;0.41999999999999998;0.0;0.0;61;79;84;2;0.13;0.029999999999999999;0.67000000000000004;0.17000000000000001;0;4.333232519489684;12;50;19;2;
2019_03_04 11:47;24;1;1;timed;65;47;0;2;40;0;0;0.45000000000000001;0.55000000000000004;0.0;0.0;93;89;11;56;0.58999999999999997;0.070000000000000007;0.28000000000000003;0.059999999999999998;1;3.9998832569272054;12;50;19;2;
2019_03_04 11:47;24;1;1;timed;66;62;1;12;45;16;50;0.20999999999999999;0.76000000000000001;0.02;0.01;92;15;0;0;0.20999999999999999;0.79000000000000004;0.0;0.0;0;4.5167574418901495;12;50;19;2;
2019_03_04 11:47;24;1;1;timed;67;68;0;84;27;55;62;0.01;0.050000000000000003;0.40999999999999998;0.53000000000000003;9;82;0;0;0.37;0.63;0.0;0.0;0;4.166741501971046;12;50;19;2;
2019_03_04 11:47;24;1;1;timed;68;100;0;27;14;59;52;0.02;0.95999999999999996;0.01;0.01;17;98;0;0;0.48999999999999999;0.51000000000000001;0.0;0.0;0;5.916518760035615;12;50;19;2;
2019_03_04 11:47;24;1;1;timed;69;81;0;67;38;52;65;0.27000000000000002;0.35999999999999999;0.01;0.35999999999999999;2;77;0;0;0.14000000000000001;0.85999999999999999;0.0;0.0;0;4.183204841117913;12;50;19;2;
2019_03_04 11:47;24;1;1;timed;70;86;1;56;30;57;88;0.20000000000000001;0.35999999999999999;0.080000000000000002;0.35999999999999999;98;2;0;0;0.77000000000000002;0.23000000000000001;0.0;0.0;0;4.533202179118234;12;50;19;2;
2019_03_04 11:47;24;1;1;timed;71;19;1;22;53;0;0;0.13;0.87;0.0;0.0;4;93;96;65;0.46999999999999997;0.059999999999999998;0.26000000000000001;0.20999999999999999;1;5.799898523328011;12;50;19;2;
2019_03_04 11:47;24;1;1;timed;72;59;0;56;47;83;90;0.31;0.12;0.54000000000000004;0.029999999999999898;10;98;0;0;0.46999999999999997;0.53000000000000003;0.0;0.0;0;3.799903013445146;12;50;19;2;
2019_03_04 11:47;24;1;1;timed;73;96;1;51;54;39;7;0.17000000000000001;0.26000000000000001;0.10000000000000001;0.46999999999999997;24;96;0;0;0.28000000000000003;0.71999999999999997;0.0;0.0;0;4.983185148741541;12;50;19;2;
2019_03_04 11:47;24;1;1;timed;74;144;0;99;93;90;71;0.65000000000000002;0.32000000000000001;0.01;0.02;97;14;48;73;0.23000000000000001;0.46000000000000002;0.13;0.17999999999999999;1;4.933338101411209;12;50;19;2;
2019_03_04 11:47;24;1;1;timed;75;30;0;33;30;0;0;0.71999999999999997;0.28000000000000003;0.0;0.0;9;88;1;14;0.55000000000000004;0.39000000000000001;0.01;0.049999999999999899;1;5.499957023153911;12;50;19;2;
2019_03_04 11:47;24;2;1;control;1;96;0;51;54;39;7;0.17000000000000001;0.26000000000000001;0.10000000000000001;0.46999999999999997;24;96;0;0;0.28000000000000003;0.71999999999999997;0.0;0.0;0;4.929290580565066;12;50;19;2;
2019_03_04 11:47;24;2;1;control;2;94;0;84;86;93;39;0.78000000000000003;0.20000000000000001;0.01;0.0099999999999999603;9;83;0;0;0.46999999999999997;0.53000000000000003;0.0;0.0;0;4.300098012865419;12;50;19;2;
2019_03_04 11:47;24;2;1;control;3;14;1;36;40;0;0;0.54000000000000004;0.46000000000000002;0.0;0.0;99;70;1;11;0.16;0.089999999999999997;0.080000000000000002;0.67000000000000004;0;3.900361711093865;12;50;19;2;
2019_03_04 11:47;24;2;1;control;4;34;1;32;48;0;0;0.28000000000000003;0.71999999999999997;0.0;0.0;97;83;7;62;0.040000000000000001;0.54000000000000004;0.35999999999999999;0.059999999999999901;1;5.783164814920383;12;50;19;2;
2019_03_04 11:47;24;2;1;control;5;105;0;49;74;63;58;0.84999999999999998;0.080000000000000002;0.02;0.050000000000000003;97;5;86;8;0.25;0.52000000000000002;0.070000000000000007;0.16;0;5.416588677589971;12;50;19;2;
2019_03_04 11:47;24;2;1;control;6;132;0;27;70;21;19;0.64000000000000001;0.23000000000000001;0.029999999999999999;0.10000000000000001;11;85;55;6;0.39000000000000001;0.46999999999999997;0.029999999999999999;0.11;0;3.6165839950372174;12;50;19;2;
2019_03_04 11:47;24;2;1;control;7;81;0;67;38;52;65;0.27000000000000002;0.35999999999999999;0.01;0.35999999999999999;2;77;0;0;0.14000000000000001;0.85999999999999999;0.0;0.0;0;4.199796790078835;12;50;19;2;
2019_03_04 11:47;24;2;1;control;8;42;1;70;48;0;0;0.79000000000000004;0.20999999999999999;0.0;0.0;51;8;12;67;0.19;0.26000000000000001;0.28999999999999998;0.26000000000000001;0;4.316612346927286;12;50;19;2;
2019_03_04 11:47;24;2;1;control;9;62;0;12;45;16;50;0.20999999999999999;0.76000000000000001;0.02;0.01;92;15;0;0;0.20999999999999999;0.79000000000000004;0.0;0.0;0;4.449854039085039;12;50;19;2;
2019_03_04 11:47;24;2;1;control;10;24;1;35;27;0;0;0.070000000000000007;0.93000000000000005;0.0;0.0;62;3;81;95;0.35999999999999999;0.55000000000000004;0.01;0.080000000000000002;1;5.033241948736759;12;50;19;2;
2019_03_04 11:47;24;2;1;control;11;16;0;64;53;0;0;0.65000000000000002;0.34999999999999998;0.0;0.0;29;17;81;46;0.10000000000000001;0.01;0.44;0.45000000000000001;0;6.38321587397877;12;50;19;2;
2019_03_04 11:47;24;2;1;control;12;25;1;50;53;0;0;0.82999999999999996;0.17000000000000001;0.0;0.0;83;16;97;4;0.45000000000000001;0.29999999999999999;0.11;0.14000000000000001;0;7.450010231053966;12;50;19;2;
2019_03_04 11:47;24;2;1;control;13;22;1;32;55;0;0;0.39000000000000001;0.60999999999999999;0.0;0.0;93;72;59;22;0.20000000000000001;0.11;0.14000000000000001;0.55000000000000004;1;5.200028672610642;12;50;19;2;
2019_03_04 11:47;24;2;1;control;14;137;1;71;22;28;17;0.25;0.46000000000000002;0.050000000000000003;0.23999999999999999;3;98;92;69;0.42999999999999999;0.23999999999999999;0.20000000000000001;0.13;0;6.016569498371609;12;50;19;2;
2019_03_04 11:47;24;2;1;control;15;37;0;14;98;0;0;0.93000000000000005;0.070000000000000007;0.0;0.0;41;2;87;66;0.17999999999999999;0.48999999999999999;0.32000000000000001;0.010000000000000101;1;3.816626779449507;12;50;19;2;
2019_03_04 11:47;24;2;1;control;16;87;0;10;30;63;4;0.56999999999999995;0.12;0.16;0.14999999999999999;86;2;0;0;0.42999999999999999;0.56999999999999995;0.0;0.0;0;7.833136944116632;12;50;19;2;
2019_03_04 11:47;24;2;1;control;17;135;0;48;60;41;51;0.14000000000000001;0.40000000000000002;0.089999999999999997;0.37;94;1;85;65;0.64000000000000001;0.29999999999999999;0.01;0.050000000000000003;0;5.0499884860528255;12;50;19;2;
2019_03_04 11:47;24;2;1;control;18;114;1;57;39;79;97;0.77000000000000002;0.02;0.13;0.080000000000000002;92;36;6;1;0.54000000000000004;0.12;0.13;0.20999999999999999;0;7.71642818793589;12;50;19;2;
2019_03_04 11:47;24;2;1;control;19;106;0;85;69;22;61;0.10000000000000001;0.58999999999999997;0.17999999999999999;0.13;20;79;91;84;0.55000000000000004;0.14999999999999999;0.26000000000000001;0.039999999999999897;0;5.999826809726073;12;50;19;2;
2019_03_04 11:47;24;2;1;control;20;102;1;40;56;53;17;0.28000000000000003;0.26000000000000001;0.14999999999999999;0.31;1;76;29;62;0.68000000000000005;0.23000000000000001;0.050000000000000003;0.039999999999999897;0;5.516546727056266;12;50;19;2;
2019_03_04 11:47;24;2;1;control;21;93;1;87;81;73;98;0.80000000000000004;0.040000000000000001;0.14999999999999999;0.0099999999999999499;5;71;0;0;0.51000000000000001;0.48999999999999999;0.0;0.0;0;4.799986080633971;12;50;19;2;
2019_03_04 11:47;24;2;1;control;22;72;1;63;82;51;61;0.01;0.96999999999999997;0.01;0.01;92;12;0;0;0.89000000000000001;0.11;0.0;0.0;0;6.933285182161853;12;50;19;2;
2019_03_04 11:47;24;2;1;control;23;101;0;30;96;61;45;0.65000000000000002;0.14000000000000001;0.11;0.10000000000000001;3;98;63;89;0.75;0.19;0.040000000000000001;0.02;0;9.866515200012145;12;50;19;2;
2019_03_04 11:47;24;2;1;control;24;100;0;27;14;59;52;0.02;0.95999999999999996;0.01;0.01;17;98;0;0;0.48999999999999999;0.51000000000000001;0.0;0.0;1;5.566685632071312;12;50;19;2;
2019_03_04 11:47;24;2;1;control;25;17;0;81;52;0;0;0.059999999999999998;0.93999999999999995;0.0;0.0;34;3;69;41;0.01;0.22;0.75;0.02;0;5.583373156405287;12;50;19;2;
2019_03_04 11:47;24;2;1;control;26;35;0;33;37;0;0;0.88;0.12;0.0;0.0;63;4;79;98;0.16;0.46000000000000002;0.17000000000000001;0.20999999999999999;0;6.366535084820498;12;50;19;2;
2019_03_04 11:47;24;2;1;control;27;88;1;77;13;12;7;0.12;0.19;0.66000000000000003;0.029999999999999898;94;2;0;0;0.40999999999999998;0.58999999999999997;0.0;0.0;0;3.2166215837423806;12;50;19;2;
2019_03_04 11:47;24;2;1;control;28;73;0;65;68;70;47;0.25;0.23000000000000001;0.20999999999999999;0.31;27;95;0;0;0.45000000000000001;0.55000000000000004;0.0;0.0;0;5.633217637954658;12;50;19;2;
2019_03_04 11:47;24;2;1;control;29;18;0;68;50;0;0;0.029999999999999999;0.96999999999999997;0.0;0.0;34;64;15;89;0.65000000000000002;0.029999999999999999;0.050000000000000003;0.27000000000000002;1;4.999849901761991;12;50;19;2;
2019_03_04 11:47;24;2;1;control;30;13;1;52;56;0;0;0.46999999999999997;0.53000000000000003;0.0;0.0;94;71;27;2;0.089999999999999997;0.31;0.57999999999999996;0.020000000000000101;0;7.233135276357643;12;50;19;2;
2019_03_04 11:47;24;2;1;control;31;32;1;19;81;0;0;0.93000000000000005;0.070000000000000007;0.0;0.0;1;65;41;68;0.45000000000000001;0.050000000000000003;0.059999999999999998;0.44;1;3.3333531112348282;12;50;19;2;
2019_03_04 11:47;24;2;1;control;32;39;0;14;33;0;0;0.78000000000000003;0.22;0.0;0.0;93;84;1;25;0.14000000000000001;0.23999999999999999;0.39000000000000001;0.23000000000000001;0;5.399830594253217;12;50;19;2;
2019_03_04 11:47;24;2;1;control;33;77;0;24;17;99;41;0.17999999999999999;0.13;0.10000000000000001;0.58999999999999997;12;97;0;0;0.59999999999999998;0.40000000000000002;0.0;0.0;0;7.033309621232547;12;50;19;2;
2019_03_04 11:47;24;2;1;control;34;78;1;74;36;34;3;0.14999999999999999;0.64000000000000001;0.13;0.080000000000000002;1;83;0;0;0.41999999999999998;0.57999999999999996;0.0;0.0;0;8.083173987590271;12;50;19;2;
2019_03_04 11:47;24;2;1;control;35;61;0;43;18;39;70;0.75;0.089999999999999997;0.089999999999999997;0.070000000000000007;16;66;0;0;0.64000000000000001;0.35999999999999999;0.0;0.0;0;5.133254841790404;12;50;19;2;
2019_03_04 11:47;24;2;1;control;36;50;1;15;20;0;0;0.82999999999999996;0.17000000000000001;0.0;0.0;97;18;88;87;0.56999999999999995;0.39000000000000001;0.01;0.029999999999999999;1;7.2666427835138165;12;50;19;2;
2019_03_04 11:47;24;2;1;control;37;8;1;50;36;0;0;0.080000000000000002;0.92000000000000004;0.0;0.0;6;19;84;29;0.54000000000000004;0.070000000000000007;0.17000000000000001;0.22;0;6.999843808029254;12;50;19;2;
2019_03_04 11:47;24;2;1;control;38;120;0;64;40;48;51;0.19;0.02;0.070000000000000007;0.71999999999999997;97;9;79;94;0.23000000000000001;0.54000000000000004;0.01;0.22;1;8.399786013795165;12;50;19;2;
2019_03_04 11:47;24;2;1;control;39;141;1;93;28;60;91;0.81999999999999995;0.10000000000000001;0.01;0.070000000000000007;14;85;7;89;0.45000000000000001;0.070000000000000007;0.23999999999999999;0.23999999999999999;0;5.200046953807032;12;50;19;2;
2019_03_04 11:47;24;2;1;control;40;140;0;36;32;26;27;0.39000000000000001;0.14999999999999999;0.19;0.27000000000000002;44;3;99;25;0.29999999999999999;0.34000000000000002;0.34000000000000002;0.0199999999999999;0;4.133244899387137;12;50;19;2;
2019_03_04 11:47;24;2;1;control;41;40;0;45;49;0;0;0.68999999999999995;0.31;0.0;0.0;2;92;65;73;0.23999999999999999;0.59999999999999998;0.11;0.050000000000000003;0;4.616589768045742;12;50;19;2;
2019_03_04 11:47;24;2;1;control;42;149;1;14;89;73;53;0.93999999999999995;0.01;0.01;0.040000000000000001;97;45;6;13;0.34000000000000002;0.01;0.40999999999999998;0.23999999999999999;0;9.849930306951137;12;50;19;2;
2019_03_04 11:47;24;2;1;control;43;43;1;60;83;0;0;0.23000000000000001;0.77000000000000002;0.0;0.0;72;5;70;12;0.29999999999999999;0.40999999999999998;0.12;0.17000000000000001;0;5.94986975449865;12;50;19;2;
2019_03_04 11:47;24;2;1;control;44;46;0;5;19;0;0;0.32000000000000001;0.68000000000000005;0.0;0.0;88;38;97;66;0.60999999999999999;0.20000000000000001;0.040000000000000001;0.14999999999999999;1;2.6165625066150824;12;50;19;2;
2019_03_04 11:47;24;2;1;control;45;20;1;44;40;0;0;0.91000000000000003;0.089999999999999997;0.0;0.0;29;5;80;99;0.25;0.40000000000000002;0.26000000000000001;0.089999999999999997;0;6.333135019778638;12;50;19;2;
2019_03_04 11:47;24;2;1;control;46;57;1;52;35;23;47;0.22;0.68000000000000005;0.040000000000000001;0.059999999999999998;71;7;0;0;0.28999999999999998;0.70999999999999996;0.0;0.0;0;3.666753368710488;12;50;19;2;
2019_03_04 11:47;24;2;1;control;47;109;0;75;28;16;56;0.19;0.070000000000000007;0.059999999999999998;0.68000000000000005;3;50;98;44;0.5;0.02;0.34999999999999998;0.13;0;6.383342880180862;12;50;19;2;
2019_03_04 11:47;24;2;1;control;48;38;1;40;70;0;0;0.53000000000000003;0.46999999999999997;0.0;0.0;97;90;6;96;0.56999999999999995;0.070000000000000007;0.27000000000000002;0.089999999999999997;0;5.950006382383435;12;50;19;2;
2019_03_04 11:47;24;2;1;control;49;76;1;39;62;9;28;0.01;0.51000000000000001;0.26000000000000001;0.22;77;7;0;0;0.57999999999999996;0.41999999999999998;0.0;0.0;0;3.9665017938023084;12;50;19;2;
2019_03_04 11:47;24;2;1;control;50;36;1;70;17;0;0;0.33000000000000002;0.67000000000000004;0.0;0.0;84;1;12;88;0.22;0.27000000000000002;0.14000000000000001;0.37;0;7.449830305604337;12;50;19;2;
2019_03_04 11:47;24;2;1;control;51;148;0;37;63;55;10;0.72999999999999998;0.070000000000000007;0.029999999999999999;0.17000000000000001;80;14;23;70;0.46999999999999997;0.10000000000000001;0.23000000000000001;0.20000000000000001;1;6.966527772343397;12;50;19;2;
2019_03_04 11:47;24;2;1;control;52;21;0;64;28;0;0;0.080000000000000002;0.92000000000000004;0.0;0.0;50;1;88;13;0.57999999999999996;0.13;0.02;0.27000000000000002;1;5.933321103106209;12;50;19;2;
2019_03_04 11:47;24;2;1;control;53;146;0;25;5;64;35;0.94999999999999996;0.02;0.01;0.02;47;97;12;79;0.20999999999999999;0.029999999999999999;0.02;0.73999999999999999;0;5.2998308508322225;12;50;19;2;
2019_03_04 11:47;24;2;1;control;54;123;0;26;24;51;92;0.72999999999999998;0.16;0.070000000000000007;0.040000000000000001;6;90;82;49;0.64000000000000001;0.25;0.050000000000000003;0.059999999999999998;0;5.3331773551799415;12;50;19;2;
2019_03_04 11:47;24;2;1;control;55;145;0;91;89;90;74;0.57999999999999996;0.29999999999999999;0.11;0.010000000000000101;2;75;84;39;0.32000000000000001;0.27000000000000002;0.39000000000000001;0.0199999999999999;0;3.6167215850891807;12;50;19;2;
2019_03_04 11:47;24;2;1;control;56;23;1;54;40;0;0;0.93000000000000005;0.070000000000000007;0.0;0.0;36;23;71;86;0.02;0.41999999999999998;0.19;0.37;0;4.300030981816235;12;50;19;2;
2019_03_04 11:47;24;2;1;control;57;64;1;48;39;34;19;0.46000000000000002;0.5;0.02;0.02;13;92;0;0;0.68999999999999995;0.31;0.0;0.0;0;5.516739160695579;12;50;19;2;
2019_03_04 11:47;24;2;1;control;58;116;0;53;65;43;99;0.56999999999999995;0.37;0.050000000000000003;0.010000000000000101;57;72;11;87;0.67000000000000004;0.13;0.14999999999999999;0.050000000000000003;0;4.249878927168538;12;50;19;2;
2019_03_04 11:47;24;2;1;control;59;108;0;48;72;39;70;0.14000000000000001;0.66000000000000003;0.02;0.17999999999999999;81;44;98;8;0.59999999999999998;0.029999999999999999;0.050000000000000003;0.32000000000000001;0;4.2498885488512315;12;50;19;2;
2019_03_04 11:47;24;2;1;control;60;91;1;74;81;86;48;0.93000000000000005;0.02;0.01;0.039999999999999897;7;64;0;0;0.13;0.87;0.0;0.0;0;3.350030693165536;12;50;19;2;
2019_03_04 11:47;24;2;1;control;61;68;0;84;27;55;62;0.01;0.050000000000000003;0.40999999999999998;0.53000000000000003;9;82;0;0;0.37;0.63;0.0;0.0;0;4.666729314507393;12;50;19;2;
2019_03_04 11:47;24;2;1;control;62;26;0;76;41;0;0;0.57999999999999996;0.41999999999999998;0.0;0.0;61;79;84;2;0.13;0.029999999999999999;0.67000000000000004;0.17000000000000001;0;6.349853974941652;12;50;19;2;
2019_03_04 11:47;24;2;1;control;63;9;0;61;69;0;0;0.93999999999999995;0.060000000000000102;0.0;0.0;18;93;72;16;0.40999999999999998;0.34999999999999998;0.089999999999999997;0.14999999999999999;1;5.79988409080579;12;50;19;2;
2019_03_04 11:47;24;2;1;control;64;124;0;37;65;15;41;0.17999999999999999;0.45000000000000001;0.02;0.34999999999999998;40;7;98;30;0.070000000000000007;0.45000000000000001;0.45000000000000001;0.029999999999999898;0;3.433406415353602;12;50;19;2;
2019_03_04 11:47;24;2;1;control;65;115;1;50;28;61;79;0.83999999999999997;0.040000000000000001;0.059999999999999998;0.059999999999999998;1;26;97;55;0.45000000000000001;0.080000000000000002;0.40999999999999998;0.060000000000000102;0;6.699878574374452;12;50;19;2;
2019_03_04 11:47;24;2;1;control;66;67;0;44;42;8;89;0.88;0.070000000000000007;0.029999999999999999;0.02;10;63;0;0;0.39000000000000001;0.60999999999999999;0.0;0.0;1;7.016505674548171;12;50;19;2;
2019_03_04 11:47;24;2;1;control;67;110;0;47;44;23;52;0.13;0.27000000000000002;0.040000000000000001;0.56000000000000005;99;2;30;22;0.28999999999999998;0.5;0.11;0.10000000000000001;0;4.216561608591292;12;50;19;2;
2019_03_04 11:47;24;2;1;control;68;19;1;22;53;0;0;0.13;0.87;0.0;0.0;4;93;96;65;0.46999999999999997;0.059999999999999998;0.26000000000000001;0.20999999999999999;1;4.3833739902856905;12;50;19;2;
2019_03_04 11:47;24;2;1;control;69;111;0;51;36;48;27;0.93000000000000005;0.01;0.01;0.049999999999999899;31;78;30;53;0.55000000000000004;0.16;0.029999999999999999;0.26000000000000001;0;7.183182711249174;12;50;19;2;
2019_03_04 11:47;24;2;1;control;70;107;0;52;48;13;63;0.68000000000000005;0.19;0.050000000000000003;0.079999999999999905;54;91;33;3;0.19;0.17999999999999999;0.33000000000000002;0.29999999999999999;0;6.649871486402844;12;50;19;2;
2019_03_04 11:47;24;2;1;control;71;118;1;62;52;65;68;0.40999999999999998;0.44;0.10000000000000001;0.0500000000000001;79;20;14;37;0.56999999999999995;0.23999999999999999;0.14000000000000001;0.050000000000000003;0;6.716481427907638;12;50;19;2;
2019_03_04 11:47;24;2;1;control;72;53;1;26;70;50;80;0.29999999999999999;0.59999999999999998;0.040000000000000001;0.059999999999999998;89;1;0;0;0.40999999999999998;0.58999999999999997;0.0;0.0;0;4.016752631048803;12;50;19;2;
2019_03_04 11:47;24;2;1;control;73;60;1;64;59;57;96;0.83999999999999997;0.13;0.02;0.01;83;6;0;0;0.54000000000000004;0.46000000000000002;0.0;0.0;0;3.1165804670890793;12;50;19;2;
2019_03_04 11:47;24;2;1;control;74;139;0;44;31;16;8;0.79000000000000004;0.070000000000000007;0.13;0.0099999999999999499;92;58;2;88;0.55000000000000004;0.070000000000000007;0.34000000000000002;0.039999999999999897;1;6.716523442586549;12;50;19;2;
2019_03_04 11:47;24;2;1;control;75;104;1;55;85;93;3;0.87;0.02;0.089999999999999997;0.02;1;2;90;8;0.35999999999999999;0.070000000000000007;0.40000000000000002;0.17000000000000001;0;4.88321202530642;12;50;19;2;
2019_03_04 11:47;24;3;1;timed;1;73;0;65;68;70;47;0.25;0.23000000000000001;0.20999999999999999;0.31;27;95;0;0;0.45000000000000001;0.55000000000000004;0.0;0.0;0;4.26441728849386;12;50;19;2;
2019_03_04 11:47;24;3;1;timed;2;125;1;37;41;10;35;0.91000000000000003;0.040000000000000001;0.029999999999999999;0.02;7;13;91;93;0.26000000000000001;0.39000000000000001;0.16;0.19;0;4.949901826772475;12;50;19;2;
2019_03_04 11:47;24;3;1;timed;3;16;0;64;53;0;0;0.65000000000000002;0.34999999999999998;0.0;0.0;29;17;81;46;0.10000000000000001;0.01;0.44;0.45000000000000001;0;3.9332168682194606;12;50;19;2;
2019_03_04 11:47;24;3;1;timed;4;142;0;98;65;64;84;0.88;0.070000000000000007;0.01;0.040000000000000001;5;68;60;16;0.46000000000000002;0.080000000000000002;0.27000000000000002;0.19;1;4.666703977411089;12;50;19;2;
2019_03_04 11:47;24;3;1;timed;5;5;1;70;5;0;0;0.98999999999999999;0.01;0.0;0.0;92;87;47;1;0.44;0.02;0.16;0.38;1;4.266526361161596;12;50;19;2;
2019_03_04 11:47;24;3;1;timed;6;127;0;89;26;62;79;0.02;0.28999999999999998;0.53000000000000003;0.16;96;6;60;13;0.53000000000000003;0.25;0.17000000000000001;0.050000000000000003;1;4.666703977411089;12;50;19;2;
2019_03_04 11:47;24;3;1;timed;7;115;1;50;28;61;79;0.83999999999999997;0.040000000000000001;0.059999999999999998;0.059999999999999998;1;26;97;55;0.45000000000000001;0.080000000000000002;0.40999999999999998;0.060000000000000102;0;4.0000452219064755;12;50;19;2;
2019_03_04 11:47;24;3;1;timed;8;32;0;19;81;0;0;0.93000000000000005;0.070000000000000007;0.0;0.0;1;65;41;68;0.45000000000000001;0.050000000000000003;0.059999999999999998;0.44;0;5.3334701750300155;12;50;19;2;
2019_03_04 11:47;24;3;1;timed;9;35;0;33;37;0;0;0.88;0.12;0.0;0.0;63;4;79;98;0.16;0.46000000000000002;0.17000000000000001;0.20999999999999999;0;4.199909043032676;12;50;19;2;
2019_03_04 11:47;24;3;1;timed;10;23;0;54;40;0;0;0.93000000000000005;0.070000000000000007;0.0;0.0;36;23;71;86;0.02;0.41999999999999998;0.19;0.37;0;5.399972032979349;12;50;19;2;
2019_03_04 11:47;24;3;1;timed;11;49;1;21;30;0;0;0.53000000000000003;0.46999999999999997;0.0;0.0;93;99;89;25;0.44;0.02;0.11;0.42999999999999999;1;4.516784703320809;12;50;19;2;
2019_03_04 11:47;24;3;1;timed;12;97;0;17;33;32;74;0.94999999999999996;0.01;0.029999999999999999;0.01;76;23;0;0;0.33000000000000002;0.67000000000000004;0.0;0.0;0;6.3165950278998935;12;50;19;2;
2019_03_04 11:47;24;3;1;timed;13;61;0;43;18;39;70;0.75;0.089999999999999997;0.089999999999999997;0.070000000000000007;16;66;0;0;0.64000000000000001;0.35999999999999999;0.0;0.0;0;5.16654618182838;12;50;19;2;
2019_03_04 11:47;24;3;1;timed;14;147;0;39;43;76;28;0.14000000000000001;0.10000000000000001;0.10000000000000001;0.66000000000000003;6;31;68;85;0.27000000000000002;0.20000000000000001;0.22;0.31;0;5.233187554162214;12;50;19;2;
2019_03_04 11:47;24;3;1;timed;15;22;0;32;55;0;0;0.39000000000000001;0.60999999999999999;0.0;0.0;93;72;59;22;0.20000000000000001;0.11;0.14000000000000001;0.55000000000000004;1;3.899879985554435;12;50;19;2;
2019_03_04 11:47;24;3;1;timed;16;150;1;25;21;78;38;0.84999999999999998;0.059999999999999998;0.050000000000000003;0.040000000000000001;31;43;64;95;0.059999999999999998;0.45000000000000001;0.13;0.35999999999999999;1;6.316626458727114;12;50;19;2;
2019_03_04 11:47;24;3;1;timed;17;113;0;85;65;39;64;0.44;0.34000000000000002;0.13;0.089999999999999997;87;2;4;35;0.67000000000000004;0.17000000000000001;0.11;0.049999999999999899;0;3.966525527283011;12;50;19;2;
2019_03_04 11:47;24;3;1;timed;18;148;1;37;63;55;10;0.72999999999999998;0.070000000000000007;0.029999999999999999;0.17000000000000001;80;14;23;70;0.46999999999999997;0.10000000000000001;0.23000000000000001;0.20000000000000001;1;4.316585726941412;12;50;19;2;
2019_03_04 11:47;24;3;1;timed;19;132;1;27;70;21;19;0.64000000000000001;0.23000000000000001;0.029999999999999999;0.10000000000000001;11;85;55;6;0.39000000000000001;0.46999999999999997;0.029999999999999999;0.11;1;5.083234283463753;12;50;19;2;
2019_03_04 11:47;24;3;1;timed;20;105;1;49;74;63;58;0.84999999999999998;0.080000000000000002;0.02;0.050000000000000003;97;5;86;8;0.25;0.52000000000000002;0.070000000000000007;0.16;0;5.033248363191888;12;50;19;2;
2019_03_04 11:47;24;3;1;timed;21;58;0;37;58;76;34;0.20999999999999999;0.57999999999999996;0.19;0.020000000000000101;86;5;0;0;0.47999999999999998;0.52000000000000002;0.0;0.0;0;4.866565232758148;12;50;19;2;
2019_03_04 11:47;24;3;1;timed;22;29;0;44;51;0;0;0.78000000000000003;0.22;0.0;0.0;74;1;68;82;0.69999999999999996;0.28000000000000003;0.01;0.01;0;5.133235598426836;12;50;19;2;
2019_03_04 11:47;24;3;1;timed;23;94;0;84;86;93;39;0.78000000000000003;0.20000000000000001;0.01;0.0099999999999999603;9;83;0;0;0.46999999999999997;0.53000000000000003;0.0;0.0;1;2.2499045849872346;12;50;19;2;
2019_03_04 11:47;24;3;1;timed;24;1;1;22;51;0;0;0.26000000000000001;0.73999999999999999;0.0;0.0;14;11;92;31;0.29999999999999999;0.40999999999999998;0.14999999999999999;0.14000000000000001;1;4.183340827556094;12;50;19;2;
2019_03_04 11:47;24;3;1;timed;25;78;0;74;36;34;3;0.14999999999999999;0.64000000000000001;0.13;0.080000000000000002;1;83;0;0;0.41999999999999998;0.57999999999999996;0.0;0.0;0;3.4000281594562693;12;50;19;2;
2019_03_04 11:47;24;3;1;timed;26;114;0;57;39;79;97;0.77000000000000002;0.02;0.13;0.080000000000000002;92;36;6;1;0.54000000000000004;0.12;0.13;0.20999999999999999;1;4.100057152789304;12;50;19;2;
2019_03_04 11:47;24;3;1;timed;27;8;0;50;36;0;0;0.080000000000000002;0.92000000000000004;0.0;0.0;6;19;84;29;0.54000000000000004;0.070000000000000007;0.17000000000000001;0.22;0;3.333198522879684;12;50;19;2;
2019_03_04 11:47;24;3;1;timed;28;140;1;36;32;26;27;0.39000000000000001;0.14999999999999999;0.19;0.27000000000000002;44;3;99;25;0.29999999999999999;0.34000000000000002;0.34000000000000002;0.0199999999999999;0;3.86659409780259;12;50;19;2;
2019_03_04 11:47;24;3;1;timed;29;145;0;91;89;90;74;0.57999999999999996;0.29999999999999999;0.11;0.010000000000000101;2;75;84;39;0.32000000000000001;0.27000000000000002;0.39000000000000001;0.0199999999999999;0;3.5998887733567244;12;50;19;2;
2019_03_04 11:47;24;3;1;timed;30;17;1;81;52;0;0;0.059999999999999998;0.93999999999999995;0.0;0.0;34;3;69;41;0.01;0.22;0.75;0.02;0;3.783358210726874;12;50;19;2;
2019_03_04 11:47;24;3;1;timed;31;129;0;12;29;81;36;0.17999999999999999;0.79000000000000004;0.01;0.02;5;19;95;92;0.47999999999999998;0.26000000000000001;0.13;0.13;1;3.9998797289772483;12;50;19;2;
2019_03_04 11:47;24;3;1;timed;32;126;1;16;55;51;42;0.68999999999999995;0.23999999999999999;0.01;0.060000000000000102;66;4;1;5;0.46999999999999997;0.38;0.089999999999999997;0.059999999999999998;0;4.016469753601996;12;50;19;2;
2019_03_04 11:47;24;3;1;timed;33;118;1;62;52;65;68;0.40999999999999998;0.44;0.10000000000000001;0.0500000000000001;79;20;14;37;0.56999999999999995;0.23999999999999999;0.14000000000000001;0.050000000000000003;0;4.40002815945445;12;50;19;2;
2019_03_04 11:47;24;3;1;timed;34;89;0;26;41;13;56;0.059999999999999998;0.40999999999999998;0.050000000000000003;0.47999999999999998;5;97;0;0;0.37;0.63;0.0;0.0;0;4.516523314297956;12;50;19;2;
2019_03_04 11:47;24;3;1;timed;35;95;0;93;88;68;85;0.83999999999999997;0.14000000000000001;0.01;0.01;2;82;0;0;0.41999999999999998;0.57999999999999996;0.0;0.0;0;3.73324047341157;12;50;19;2;
2019_03_04 11:47;24;3;1;timed;36;117;0;65;85;92;41;0.23000000000000001;0.17999999999999999;0.54000000000000004;0.050000000000000003;99;93;10;13;0.64000000000000001;0.16;0.01;0.19;1;4.366680372217161;12;50;19;2;
2019_03_04 11:47;24;3;1;timed;37;137;1;71;22;28;17;0.25;0.46000000000000002;0.050000000000000003;0.23999999999999999;3;98;92;69;0.42999999999999999;0.23999999999999999;0.20000000000000001;0.13;0;4.633208657718569;12;50;19;2;
2019_03_04 11:47;24;3;1;timed;38;124;1;37;65;15;41;0.17999999999999999;0.45000000000000001;0.02;0.34999999999999998;40;7;98;30;0.070000000000000007;0.45000000000000001;0.45000000000000001;0.029999999999999898;1;3.800035471935189;12;50;19;2;
2019_03_04 11:47;24;3;1;timed;39;18;0;68;50;0;0;0.029999999999999999;0.96999999999999997;0.0;0.0;34;64;15;89;0.65000000000000002;0.029999999999999999;0.050000000000000003;0.27000000000000002;1;3.600044003158473;12;50;19;2;
2019_03_04 11:47;24;3;1;timed;40;27;1;44;26;0;0;0.35999999999999999;0.64000000000000001;0.0;0.0;63;10;3;5;0.58999999999999997;0.19;0.14999999999999999;0.070000000000000007;1;3.6331923008583544;12;50;19;2;
2019_03_04 11:47;24;3;1;timed;41;121;1;42;51;47;70;0.41999999999999998;0.17000000000000001;0.23999999999999999;0.17000000000000001;21;76;48;9;0.14999999999999999;0.34000000000000002;0.40999999999999998;0.10000000000000001;1;5.116916584509454;12;50;19;2;
2019_03_04 11:47;24;3;1;timed;42;38;1;40;70;0;0;0.53000000000000003;0.46999999999999997;0.0;0.0;97;90;6;96;0.56999999999999995;0.070000000000000007;0.27000000000000002;0.089999999999999997;0;4.3000117384508485;12;50;19;2;
2019_03_04 11:47;24;3;1;timed;43;99;0;8;24;15;73;0.56000000000000005;0.35999999999999999;0.070000000000000007;0.0099999999999999499;88;12;0;0;0.52000000000000002;0.47999999999999998;0.0;0.0;0;4.266514494422154;12;50;19;2;
2019_03_04 11:47;24;3;1;timed;44;10;0;45;62;0;0;0.059999999999999998;0.93999999999999995;0.0;0.0;17;99;28;67;0.58999999999999997;0.34000000000000002;0.01;0.059999999999999998;0;5.00003656239096;12;50;19;2;
2019_03_04 11:47;24;3;1;timed;45;36;0;70;17;0;0;0.33000000000000002;0.67000000000000004;0.0;0.0;84;1;12;88;0.22;0.27000000000000002;0.14000000000000001;0.37;1;4.833385504231046;12;50;19;2;
2019_03_04 11:47;24;3;1;timed;46;71;1;68;55;36;51;0.20000000000000001;0.75;0.02;0.029999999999999999;38;81;0;0;0.52000000000000002;0.47999999999999998;0.0;0.0;0;5.049879119602338;12;50;19;2;
2019_03_04 11:47;24;3;1;timed;47;65;0;75;64;59;52;0.59999999999999998;0.22;0.14000000000000001;0.040000000000000001;1;99;0;0;0.35999999999999999;0.64000000000000001;0.0;0.0;0;2.9999188571491686;12;50;19;2;
2019_03_04 11:47;24;3;1;timed;48;60;1;64;59;57;96;0.83999999999999997;0.13;0.02;0.01;83;6;0;0;0.54000000000000004;0.46000000000000002;0.0;0.0;0;4.099988838848731;12;50;19;2;
2019_03_04 11:47;24;3;1;timed;49;149;1;14;89;73;53;0.93999999999999995;0.01;0.01;0.040000000000000001;97;45;6;13;0.34000000000000002;0.01;0.40999999999999998;0.23999999999999999;1;4.116494513395082;12;50;19;2;
2019_03_04 11:47;24;3;1;timed;50;3;1;53;40;0;0;0.31;0.68999999999999995;0.0;0.0;96;24;7;88;0.11;0.27000000000000002;0.58999999999999997;0.029999999999999999;0;3.683236271945134;12;50;19;2;
2019_03_04 11:47;24;3;1;timed;51;67;0;44;42;8;89;0.88;0.070000000000000007;0.029999999999999999;0.02;10;63;0;0;0.39000000000000001;0.60999999999999999;0.0;0.0;0;3.900073381360926;12;50;19;2;
2019_03_04 11:47;24;3;1;timed;52;64;1;48;39;34;19;0.46000000000000002;0.5;0.02;0.02;13;92;0;0;0.68999999999999995;0.31;0.0;0.0;0;3.2332516987080453;12;50;19;2;
2019_03_04 11:47;24;3;1;timed;53;34;1;32;48;0;0;0.28000000000000003;0.71999999999999997;0.0;0.0;97;83;7;62;0.040000000000000001;0.54000000000000004;0.35999999999999999;0.059999999999999901;0;3.333222577082779;12;50;19;2;
2019_03_04 11:47;24;3;1;timed;54;72;1;63;82;51;61;0.01;0.96999999999999997;0.01;0.01;92;12;0;0;0.89000000000000001;0.11;0.0;0.0;NA;6.433205642924804;12;50;19;2;
2019_03_04 11:47;24;3;1;timed;55;50;0;15;20;0;0;0.82999999999999996;0.17000000000000001;0.0;0.0;97;18;88;87;0.56999999999999995;0.39000000000000001;0.01;0.029999999999999999;1;3.2499645601383236;12;50;19;2;
2019_03_04 11:47;24;3;1;timed;56;87;1;10;30;63;4;0.56999999999999995;0.12;0.16;0.14999999999999999;86;2;0;0;0.42999999999999999;0.56999999999999995;0.0;0.0;0;3.666689544888868;12;50;19;2;
2019_03_04 11:47;24;3;1;timed;57;57;1;52;35;23;47;0.22;0.68000000000000005;0.040000000000000001;0.059999999999999998;71;7;0;0;0.28999999999999998;0.70999999999999996;0.0;0.0;0;2.7332039110206097;12;50;19;2;
2019_03_04 11:47;24;3;1;timed;58;42;0;70;48;0;0;0.79000000000000004;0.20999999999999999;0.0;0.0;51;8;12;67;0.19;0.26000000000000001;0.28999999999999998;0.26000000000000001;0;2.866721424727075;12;50;19;2;
2019_03_04 11:47;24;3;1;timed;59;93;0;87;81;73;98;0.80000000000000004;0.040000000000000001;0.14999999999999999;0.0099999999999999499;5;71;0;0;0.51000000000000001;0.48999999999999999;0.0;0.0;0;2.416532871835443;12;50;19;2;
2019_03_04 11:47;24;3;1;timed;60;15;1;77;81;0;0;0.28000000000000003;0.71999999999999997;0.0;0.0;98;14;87;18;0.55000000000000004;0.23000000000000001;0.16;0.059999999999999901;0;3.616561865170297;12;50;19;2;
2019_03_04 11:47;24;3;1;timed;61;44;0;79;74;0;0;0.71999999999999997;0.28000000000000003;0.0;0.0;3;67;15;36;0.41999999999999998;0.53000000000000003;0.02;0.029999999999999999;0;2.3334441964907455;12;50;19;2;
2019_03_04 11:47;24;3;1;timed;62;55;0;74;55;47;48;0.60999999999999999;0.31;0.070000000000000007;0.01;97;6;0;0;0.42999999999999999;0.56999999999999995;0.0;0.0;0;3.316679698700682;12;50;19;2;
2019_03_04 11:47;24;3;1;timed;63;109;1;75;28;16;56;0.19;0.070000000000000007;0.059999999999999998;0.68000000000000005;3;50;98;44;0.5;0.02;0.34999999999999998;0.13;0;4.499989416150129;12;50;19;2;
2019_03_04 11:47;24;3;1;timed;64;66;0;89;23;27;15;0.070000000000000007;0.54000000000000004;0.17000000000000001;0.22;9;73;0;0;0.72999999999999998;0.27000000000000002;0.0;0.0;0;2.9165720000073634;12;50;19;2;
2019_03_04 11:47;24;3;1;timed;65;85;0;31;22;82;50;0.11;0.69999999999999996;0.01;0.17999999999999999;3;99;0;0;0.62;0.38;0.0;0.0;0;3.383250191311163;12;50;19;2;
2019_03_04 11:47;24;3;1;timed;66;102;1;40;56;53;17;0.28000000000000003;0.26000000000000001;0.14999999999999999;0.31;1;76;29;62;0.68000000000000005;0.23000000000000001;0.050000000000000003;0.039999999999999897;0;3.599895508536065;12;50;19;2;
2019_03_04 11:47;24;3;1;timed;67;14;1;36;40;0;0;0.54000000000000004;0.46000000000000002;0.0;0.0;99;70;1;11;0.16;0.089999999999999997;0.080000000000000002;0.67000000000000004;0;4.399936112033174;12;50;19;2;
2019_03_04 11:47;24;3;1;timed;68;6;1;9;51;0;0;0.14999999999999999;0.84999999999999998;0.0;0.0;6;40;50;73;0.42999999999999999;0.26000000000000001;0.059999999999999998;0.25;1;3.333579862202896;12;50;19;2;
2019_03_04 11:47;24;3;1;timed;69;103;0;38;49;89;50;0.89000000000000001;0.070000000000000007;0.01;0.029999999999999999;6;64;99;27;0.70999999999999996;0.17999999999999999;0.059999999999999998;0.050000000000000003;0;3.666505129318466;12;50;19;2;
2019_03_04 11:47;24;3;1;timed;70;56;1;28;84;37;41;0.68000000000000005;0.28000000000000003;0.02;0.0199999999999999;6;95;0;0;0.72999999999999998;0.27000000000000002;0.0;0.0;0;4.399880627001039;12;50;19;2;
2019_03_04 11:47;24;3;1;timed;71;48;1;13;32;0;0;0.90000000000000002;0.10000000000000001;0.0;0.0;24;99;84;94;0.62;0.14999999999999999;0.20000000000000001;0.029999999999999999;1;2.6165984275612573;12;50;19;2;
2019_03_04 11:47;24;3;1;timed;72;75;0;67;80;36;81;0.81999999999999995;0.080000000000000002;0.059999999999999998;0.040000000000000001;3;97;0;0;0.32000000000000001;0.68000000000000005;0.0;0.0;0;3.250021328061848;12;50;19;2;
2019_03_04 11:47;24;3;1;timed;73;104;1;55;85;93;3;0.87;0.02;0.089999999999999997;0.02;1;2;90;8;0.35999999999999999;0.070000000000000007;0.40000000000000002;0.17000000000000001;0;3.4998848605409876;12;50;19;2;
2019_03_04 11:47;24;3;1;timed;74;116;0;53;65;43;99;0.56999999999999995;0.37;0.050000000000000003;0.010000000000000101;57;72;11;87;0.67000000000000004;0.13;0.14999999999999999;0.050000000000000003;1;4.316639608357946;12;50;19;2;
2019_03_04 11:47;24;3;1;timed;75;24;0;35;27;0;0;0.070000000000000007;0.93000000000000005;0.0;0.0;62;3;81;95;0.35999999999999999;0.55000000000000004;0.01;0.080000000000000002;0;4.96648511622152;12;50;19;2;
2019_03_04 11:47;24;4;1;control;1;126;0;16;55;51;42;0.68999999999999995;0.23999999999999999;0.01;0.060000000000000102;66;4;1;5;0.46999999999999997;0.38;0.089999999999999997;0.059999999999999998;1;3.63144756921065;12;50;19;2;
2019_03_04 11:47;24;4;1;control;2;71;1;68;55;36;51;0.20000000000000001;0.75;0.02;0.029999999999999999;38;81;0;0;0.52000000000000002;0.47999999999999998;0.0;0.0;0;4.033169465401443;12;50;19;2;
2019_03_04 11:47;24;4;1;control;3;144;1;99;93;90;71;0.65000000000000002;0.32000000000000001;0.01;0.02;97;14;48;73;0.23000000000000001;0.46000000000000002;0.13;0.17999999999999999;0;3.8665783823889797;12;50;19;2;
2019_03_04 11:47;24;4;1;control;4;15;1;77;81;0;0;0.28000000000000003;0.71999999999999997;0.0;0.0;98;14;87;18;0.55000000000000004;0.23000000000000001;0.16;0.059999999999999901;1;3.5332361757264152;12;50;19;2;
2019_03_04 11:47;24;4;1;control;5;130;0;37;79;23;95;0.94999999999999996;0.029999999999999999;0.01;0.01;94;4;58;49;0.46000000000000002;0.5;0.029999999999999999;0.01;1;3.083231717680974;12;50;19;2;
2019_03_04 11:47;24;4;1;control;6;70;0;66;55;69;50;0.22;0.29999999999999999;0.29999999999999999;0.17999999999999999;2;90;0;0;0.34000000000000002;0.66000000000000003;0.0;0.0;0;3.199884026660584;12;50;19;2;
2019_03_04 11:47;24;4;1;control;7;103;1;38;49;89;50;0.89000000000000001;0.070000000000000007;0.01;0.029999999999999999;6;64;99;27;0.70999999999999996;0.17999999999999999;0.059999999999999998;0.050000000000000003;0;2.549924341508813;12;50;19;2;
2019_03_04 11:47;24;4;1;control;8;5;1;70;5;0;0;0.98999999999999999;0.01;0.0;0.0;92;87;47;1;0.44;0.02;0.16;0.38;1;2.2665776768008072;12;50;19;2;
2019_03_04 11:47;24;4;1;control;9;56;0;28;84;37;41;0.68000000000000005;0.28000000000000003;0.02;0.0199999999999999;6;95;0;0;0.72999999999999998;0.27000000000000002;0.0;0.0;0;3.0666971780883614;12;50;19;2;
2019_03_04 11:47;24;4;1;control;10;74;0;66;47;52;44;0.41999999999999998;0.26000000000000001;0.17999999999999999;0.14000000000000001;17;99;0;0;0.47999999999999998;0.52000000000000002;0.0;0.0;0;3.5166480754396616;12;50;19;2;
2019_03_04 11:47;24;4;1;control;11;122;0;35;58;25;31;0.81999999999999995;0.070000000000000007;0.080000000000000002;0.029999999999999999;18;64;68;89;0.63;0.17000000000000001;0.11;0.089999999999999997;1;2.616568279623607;12;50;19;2;
2019_03_04 11:47;24;4;1;control;12;55;1;74;55;47;48;0.60999999999999999;0.31;0.070000000000000007;0.01;97;6;0;0;0.42999999999999999;0.56999999999999995;0.0;0.0;0;2.533342014228765;12;50;19;2;
2019_03_04 11:47;24;4;1;control;13;79;1;52;46;29;22;0.17999999999999999;0.51000000000000001;0.23999999999999999;0.070000000000000104;93;14;0;0;0.45000000000000001;0.55000000000000004;0.0;0.0;0;3.699833673192188;12;50;19;2;
2019_03_04 11:47;24;4;1;control;14;129;1;12;29;81;36;0.17999999999999999;0.79000000000000004;0.01;0.02;5;19;95;92;0.47999999999999998;0.26000000000000001;0.13;0.13;0;2.6333542658376246;12;50;19;2;
2019_03_04 11:47;24;4;1;control;15;147;1;39;43;76;28;0.14000000000000001;0.10000000000000001;0.10000000000000001;0.66000000000000003;6;31;68;85;0.27000000000000002;0.20000000000000001;0.22;0.31;0;3.8498796327603486;12;50;19;2;
2019_03_04 11:47;24;4;1;control;16;82;1;78;66;30;27;0.28999999999999998;0.58999999999999997;0.080000000000000002;0.040000000000000001;90;6;0;0;0.82999999999999996;0.17000000000000001;0.0;0.0;0;2.6166875884791807;12;50;19;2;
2019_03_04 11:47;24;4;1;control;17;131;1;83;41;81;88;0.23999999999999999;0.58999999999999997;0.10000000000000001;0.070000000000000007;82;97;4;17;0.26000000000000001;0.46999999999999997;0.11;0.16;0;6.166708467528224;12;50;19;2;
2019_03_04 11:47;24;4;1;control;18;117;1;65;85;92;41;0.23000000000000001;0.17999999999999999;0.54000000000000004;0.050000000000000003;99;93;10;13;0.64000000000000001;0.16;0.01;0.19;1;2.799898523328011;12;50;19;2;
2019_03_04 11:47;24;4;1;control;19;65;1;75;64;59;52;0.59999999999999998;0.22;0.14000000000000001;0.040000000000000001;1;99;0;0;0.35999999999999999;0.64000000000000001;0.0;0.0;0;4.60000712004512;12;50;19;2;
2019_03_04 11:47;24;4;1;control;20;92;0;90;86;65;94;0.16;0.34000000000000002;0.28000000000000003;0.22;79;22;0;0;0.35999999999999999;0.64000000000000001;0.0;0.0;0;5.1832420449536585;12;50;19;2;
2019_03_04 11:47;24;4;1;control;21;112;0;70;44;98;64;0.02;0.75;0.12;0.11;33;2;63;85;0.23999999999999999;0.31;0.080000000000000002;0.37;0;2.849901762627269;12;50;19;2;
2019_03_04 11:47;24;4;1;control;22;133;0;59;88;60;36;0.67000000000000004;0.070000000000000007;0.12;0.14000000000000001;7;91;66;61;0.25;0.68999999999999995;0.01;0.0500000000000001;1;3.799889543091922;12;50;19;2;
2019_03_04 11:47;24;4;1;control;23;86;0;56;30;57;88;0.20000000000000001;0.35999999999999999;0.080000000000000002;0.35999999999999999;98;2;0;0;0.77000000000000002;0.23000000000000001;0.0;0.0;0;3.149888805430237;12;50;19;2;
2019_03_04 11:47;24;4;1;control;24;150;1;25;21;78;38;0.84999999999999998;0.059999999999999998;0.050000000000000003;0.040000000000000001;31;43;64;95;0.059999999999999998;0.45000000000000001;0.13;0.35999999999999999;1;3.0166865621667966;12;50;19;2;
2019_03_04 11:47;24;4;1;control;25;119;0;60;58;11;18;0.25;0.72999999999999998;0.01;0.01;96;23;42;85;0.44;0.48999999999999999;0.059999999999999998;0.010000000000000101;1;2.8331882597503864;12;50;19;2;
2019_03_04 11:47;24;4;1;control;26;29;0;44;51;0;0;0.78000000000000003;0.22;0.0;0.0;74;1;68;82;0.69999999999999996;0.28000000000000003;0.01;0.01;0;3.333342527384957;12;50;19;2;
2019_03_04 11:47;24;4;1;control;27;121;1;42;51;47;70;0.41999999999999998;0.17000000000000001;0.23999999999999999;0.17000000000000001;21;76;48;9;0.14999999999999999;0.34000000000000002;0.40999999999999998;0.10000000000000001;1;4.849910422140965;12;50;19;2;
2019_03_04 11:47;24;4;1;control;28;59;0;56;47;83;90;0.31;0.12;0.54000000000000004;0.029999999999999898;10;98;0;0;0.46999999999999997;0.53000000000000003;0.0;0.0;0;3.233528803146328;12;50;19;2;
2019_03_04 11:47;24;4;1;control;29;49;1;21;30;0;0;0.53000000000000003;0.46999999999999997;0.0;0.0;93;99;89;25;0.44;0.02;0.11;0.42999999999999999;0;3.5998977535928134;12;50;19;2;
2019_03_04 11:47;24;4;1;control;30;95;1;93;88;68;85;0.83999999999999997;0.14000000000000001;0.01;0.01;2;82;0;0;0.41999999999999998;0.57999999999999996;0.0;0.0;0;2.3667637601283786;12;50;19;2;
2019_03_04 11:47;24;4;1;control;31;28;1;47;30;0;0;0.97999999999999998;0.02;0.0;0.0;55;48;77;13;0.070000000000000007;0.26000000000000001;0.42999999999999999;0.23999999999999999;1;5.333211993234727;12;50;19;2;
2019_03_04 11:47;24;4;1;control;32;138;1;8;20;43;51;0.38;0.5;0.02;0.10000000000000001;72;82;70;1;0.39000000000000001;0.050000000000000003;0.070000000000000007;0.48999999999999999;1;2.849932231287312;12;50;19;2;
2019_03_04 11:47;24;4;1;control;33;99;0;8;24;15;73;0.56000000000000005;0.35999999999999999;0.070000000000000007;0.0099999999999999499;88;12;0;0;0.52000000000000002;0.47999999999999998;0.0;0.0;1;3.849963662114533;12;50;19;2;
2019_03_04 11:47;24;4;1;control;34;45;1;97;87;0;0;0.71999999999999997;0.28000000000000003;0.0;0.0;96;11;14;4;0.25;0.029999999999999999;0.14000000000000001;0.57999999999999996;0;4.266511607916982;12;50;19;2;
2019_03_04 11:47;24;4;1;control;35;51;0;52;23;43;16;0.60999999999999999;0.20999999999999999;0.01;0.17000000000000001;92;7;0;0;0.14999999999999999;0.84999999999999998;0.0;0.0;0;2.9831636603194056;12;50;19;2;
2019_03_04 11:47;24;4;1;control;36;89;1;26;41;13;56;0.059999999999999998;0.40999999999999998;0.050000000000000003;0.47999999999999998;5;97;0;0;0.37;0.63;0.0;0.0;0;3.166581140605558;12;50;19;2;
2019_03_04 11:47;24;4;1;control;37;75;1;67;80;36;81;0.81999999999999995;0.080000000000000002;0.059999999999999998;0.040000000000000001;3;97;0;0;0.32000000000000001;0.68000000000000005;0.0;0.0;0;2.083233321294756;12;50;19;2;
2019_03_04 11:47;24;4;1;control;38;134;0;57;48;50;55;0.02;0.62;0.17999999999999999;0.17999999999999999;80;96;15;18;0.23999999999999999;0.35999999999999999;0.33000000000000002;0.070000000000000007;1;7.299858112264701;12;50;19;2;
2019_03_04 11:47;24;4;1;control;39;90;0;27;44;50;72;0.68000000000000005;0.28999999999999998;0.02;0.0099999999999999707;6;96;0;0;0.46999999999999997;0.53000000000000003;0.0;0.0;0;2.5835588548652595;12;50;19;2;
2019_03_04 11:47;24;4;1;control;40;52;0;71;51;10;54;0.22;0.12;0.19;0.46999999999999997;91;1;0;0;0.29999999999999999;0.69999999999999996;0.0;0.0;0;2.36672206617186;12;50;19;2;
2019_03_04 11:47;24;4;1;control;41;7;0;49;29;0;0;0.95999999999999996;0.040000000000000001;0.0;0.0;23;99;64;25;0.68999999999999995;0.12;0.059999999999999998;0.13;1;3.6165686003478186;12;50;19;2;
2019_03_04 11:47;24;4;1;control;42;97;1;17;33;32;74;0.94999999999999996;0.01;0.029999999999999999;0.01;76;23;0;0;0.33000000000000002;0.67000000000000004;0.0;0.0;0;5.100019307508774;12;50;19;2;
2019_03_04 11:47;24;4;1;control;43;58;1;37;58;76;34;0.20999999999999999;0.57999999999999996;0.19;0.020000000000000101;86;5;0;0;0.47999999999999998;0.52000000000000002;0.0;0.0;0;2.250079699597336;12;50;19;2;
2019_03_04 11:47;24;4;1;control;44;11;0;17;36;0;0;0.14000000000000001;0.85999999999999999;0.0;0.0;19;41;34;95;0.88;0.02;0.050000000000000003;0.050000000000000003;1;2.8831950270014204;12;50;19;2;
2019_03_04 11:47;24;4;1;control;45;98;0;27;10;31;79;0.23000000000000001;0.67000000000000004;0.070000000000000007;0.029999999999999999;25;99;0;0;0.38;0.62;0.0;0.0;1;3.7166988779208623;12;50;19;2;
2019_03_04 11:47;24;4;1;control;46;47;0;2;40;0;0;0.45000000000000001;0.55000000000000004;0.0;0.0;93;89;11;56;0.58999999999999997;0.070000000000000007;0.28000000000000003;0.059999999999999998;1;2.0667443243291928;12;50;19;2;
2019_03_04 11:47;24;4;1;control;47;1;1;22;51;0;0;0.26000000000000001;0.73999999999999999;0.0;0.0;14;11;92;31;0.29999999999999999;0.40999999999999998;0.14999999999999999;0.14000000000000001;1;4.533195764664924;12;50;19;2;
2019_03_04 11:47;24;4;1;control;48;143;1;88;44;56;73;0.95999999999999996;0.02;0.01;0.01;20;3;87;32;0.19;0.40000000000000002;0.28000000000000003;0.13;0;3.033409366002161;12;50;19;2;
2019_03_04 11:47;24;4;1;control;49;27;1;44;26;0;0;0.35999999999999999;0.64000000000000001;0.0;0.0;63;10;3;5;0.58999999999999997;0.19;0.14999999999999999;0.070000000000000007;0;3.1499025965076726;12;50;19;2;
2019_03_04 11:47;24;4;1;control;50;44;1;79;74;0;0;0.71999999999999997;0.28000000000000003;0.0;0.0;3;67;15;36;0.41999999999999998;0.53000000000000003;0.02;0.029999999999999999;0;3.083184892164354;12;50;19;2;
2019_03_04 11:47;24;4;1;control;51;63;0;56;78;42;36;0.93000000000000005;0.040000000000000001;0.01;0.0199999999999999;2;72;0;0;0.32000000000000001;0.68000000000000005;0.0;0.0;0;2.7665597163268103;12;50;19;2;
2019_03_04 11:47;24;4;1;control;52;85;0;31;22;82;50;0.11;0.69999999999999996;0.01;0.17999999999999999;3;99;0;0;0.62;0.38;0.0;0.0;0;2.033405517327992;12;50;19;2;
2019_03_04 11:47;24;4;1;control;53;80;0;47;39;45;10;0.13;0.76000000000000001;0.059999999999999998;0.050000000000000003;2;87;0;0;0.48999999999999999;0.51000000000000001;0.0;0.0;0;2.6500004169392923;12;50;19;2;
2019_03_04 11:47;24;4;1;control;54;125;1;37;41;10;35;0.91000000000000003;0.040000000000000001;0.029999999999999999;0.02;7;13;91;93;0.26000000000000001;0.39000000000000001;0.16;0.19;0;2.8835109388892306;12;50;19;2;
2019_03_04 11:47;24;4;1;control;55;84;0;43;10;5;45;0.78000000000000003;0.13;0.059999999999999998;0.029999999999999999;87;1;0;0;0.57999999999999996;0.41999999999999998;0.0;0.0;0;3.216601698932209;12;50;19;2;
2019_03_04 11:47;24;4;1;control;56;4;1;40;43;0;0;0.58999999999999997;0.40999999999999998;0.0;0.0;2;33;88;81;0.69999999999999996;0.14000000000000001;0.13;0.029999999999999999;0;3.0665486834641342;12;50;19;2;
2019_03_04 11:47;24;4;1;control;57;113;0;85;65;39;64;0.44;0.34000000000000002;0.13;0.089999999999999997;87;2;4;35;0.67000000000000004;0.17000000000000001;0.11;0.049999999999999899;1;3.049861800574945;12;50;19;2;
2019_03_04 11:47;24;4;1;control;58;30;0;33;30;0;0;0.71999999999999997;0.28000000000000003;0.0;0.0;9;88;1;14;0.55000000000000004;0.39000000000000001;0.01;0.049999999999999899;0;3.1665827442193404;12;50;19;2;
2019_03_04 11:47;24;4;1;control;59;6;1;9;51;0;0;0.14999999999999999;0.84999999999999998;0.0;0.0;6;40;50;73;0.42999999999999999;0.26000000000000001;0.059999999999999998;0.25;1;3.1667395776348712;12;50;19;2;
2019_03_04 11:47;24;4;1;control;60;12;0;53;68;0;0;0.31;0.68999999999999995;0.0;0.0;69;54;97;29;0.25;0.20999999999999999;0.20000000000000001;0.34000000000000002;1;2.8333396408797853;12;50;19;2;
2019_03_04 11:47;24;4;1;control;61;33;1;27;70;0;0;0.88;0.12;0.0;0.0;93;3;77;16;0.080000000000000002;0.40000000000000002;0.5;0.02;1;3.6165105495329044;12;50;19;2;
2019_03_04 11:47;24;4;1;control;62;136;1;29;67;14;75;0.46000000000000002;0.29999999999999999;0.20999999999999999;0.0300000000000001;70;86;1;85;0.31;0.39000000000000001;0.27000000000000002;0.029999999999999898;0;3.2497105477359582;12;50;19;2;
2019_03_04 11:47;24;4;1;control;63;10;0;45;62;0;0;0.059999999999999998;0.93999999999999995;0.0;0.0;17;99;28;67;0.58999999999999997;0.34000000000000002;0.01;0.059999999999999998;1;3.233155161165996;12;50;19;2;
2019_03_04 11:47;24;4;1;control;64;66;0;89;23;27;15;0.070000000000000007;0.54000000000000004;0.17000000000000001;0.22;9;73;0;0;0.72999999999999998;0.27000000000000002;0.0;0.0;0;2.5999112239496753;12;50;19;2;
2019_03_04 11:47;24;4;1;control;65;83;0;17;12;7;41;0.65000000000000002;0.19;0.089999999999999997;0.070000000000000007;6;84;0;0;0.72999999999999998;0.27000000000000002;0.0;0.0;0;2.350088743978631;12;50;19;2;
2019_03_04 11:47;24;4;1;control;66;128;1;70;49;27;54;0.27000000000000002;0.53000000000000003;0.02;0.17999999999999999;72;97;6;20;0.29999999999999999;0.39000000000000001;0.22;0.0899999999999999;0;5.066557022255438;12;50;19;2;
2019_03_04 11:47;24;4;1;control;67;48;1;13;32;0;0;0.90000000000000002;0.10000000000000001;0.0;0.0;24;99;84;94;0.62;0.14999999999999999;0.20000000000000001;0.029999999999999999;1;3.350025240879404;12;50;19;2;
2019_03_04 11:47;24;4;1;control;68;31;0;10;59;0;0;0.23999999999999999;0.76000000000000001;0.0;0.0;1;79;53;73;0.23000000000000001;0.58999999999999997;0.050000000000000003;0.13;1;4.983262763642415;12;50;19;2;
2019_03_04 11:47;24;4;1;control;69;41;1;99;40;0;0;0.89000000000000001;0.11;0.0;0.0;1;67;52;46;0.51000000000000001;0.38;0.029999999999999999;0.080000000000000002;0;3.283394773117834;12;50;19;2;
2019_03_04 11:47;24;4;1;control;70;3;0;53;40;0;0;0.31;0.68999999999999995;0.0;0.0;96;24;7;88;0.11;0.27000000000000002;0.58999999999999997;0.029999999999999999;0;2.933201473528243;12;50;19;2;
2019_03_04 11:47;24;4;1;control;71;54;0;44;79;78;52;0.79000000000000004;0.19;0.01;0.0099999999999999603;96;1;0;0;0.28000000000000003;0.71999999999999997;0.0;0.0;0;2.200088968484124;12;50;19;2;
2019_03_04 11:47;24;4;1;control;72;127;1;89;26;62;79;0.02;0.28999999999999998;0.53000000000000003;0.16;96;6;60;13;0.53000000000000003;0.25;0.17000000000000001;0.050000000000000003;0;3.06659262247922;12;50;19;2;
2019_03_04 11:47;24;4;1;control;73;2;1;59;32;0;0;0.080000000000000002;0.92000000000000004;0.0;0.0;33;38;85;1;0.28999999999999998;0.050000000000000003;0.070000000000000007;0.58999999999999997;1;2.8833024691157334;12;50;19;2;
2019_03_04 11:47;24;4;1;control;74;69;1;54;34;64;49;0.34000000000000002;0.25;0.20999999999999999;0.20000000000000001;14;98;0;0;0.62;0.38;0.0;0.0;0;2.58325224393775;12;50;19;2;
2019_03_04 11:47;24;4;1;control;75;142;1;98;65;64;84;0.88;0.070000000000000007;0.01;0.040000000000000001;5;68;60;16;0.46000000000000002;0.080000000000000002;0.27000000000000002;0.19;1;2.650083804848691;12;50;19;2;
