date;id;block;order;cond;trial;gameid;leftright;oa1;oa2;oa3;oa4;pa1;pa2;pa3;pa4;ob1;ob2;ob3;ob4;pb1;pb2;pb3;pb4;choice;rt;paytrial;payout;alter;geschlecht;comment
2019_03_04 09:20;17;0;0;practice;1;17;1;27;61;0;0;0.68999999999999995;0.31;0.0;0.0;3;91;69;43;0.29999999999999999;0.33000000000000002;0.27000000000000002;0.099999999999999895;1;16.38939049602027;64;65;24;2;   
2019_03_04 09:20;17;0;0;practice;2;41;1;19;54;51;8;0.76000000000000001;0.070000000000000007;0.16;0.0099999999999999794;2;77;0;0;0.54000000000000004;0.46000000000000002;0.0;0.0;0;11.13276969882395;64;65;24;2;   
2019_03_04 09:20;17;0;0;practice;3;38;0;51;89;10;60;0.57999999999999996;0.029999999999999999;0.080000000000000002;0.31;8;84;0;0;0.33000000000000002;0.67000000000000004;0.0;0.0;0;3.4331313434538515;64;65;24;2;   
2019_03_04 09:20;17;0;0;practice;4;22;1;84;87;0;0;0.17000000000000001;0.82999999999999996;0.0;0.0;3;24;41;83;0.68000000000000005;0.11;0.10000000000000001;0.11;0;3.2167478410685817;64;65;24;2;   
2019_03_04 09:20;17;0;0;practice;5;31;0;72;59;40;92;0.59999999999999998;0.34999999999999998;0.02;0.029999999999999999;97;29;0;0;0.38;0.62;0.0;0.0;0;5.983178842185453;64;65;24;2;   
2019_03_04 09:20;17;0;0;practice;6;10;0;34;59;0;0;0.16;0.83999999999999997;0.0;0.0;21;61;96;7;0.19;0.01;0.5;0.29999999999999999;1;6.132975280774872;64;65;24;2;   
2019_03_04 09:20;17;0;0;practice;7;75;1;21;86;27;62;0.88;0.040000000000000001;0.070000000000000007;0.0099999999999999794;13;3;49;87;0.28999999999999998;0.39000000000000001;0.070000000000000007;0.25;1;10.666331834284847;64;65;24;2;   
2019_03_04 09:20;17;0;0;practice;8;28;0;37;83;75;8;0.83999999999999997;0.070000000000000007;0.01;0.080000000000000002;94;2;0;0;0.19;0.81000000000000005;0.0;0.0;0;4.866543958937427;64;65;24;2;   
2019_03_04 09:20;17;0;0;practice;9;58;1;44;50;85;42;0.38;0.57999999999999996;0.02;0.02;37;88;19;12;0.20000000000000001;0.29999999999999999;0.46000000000000002;0.040000000000000001;0;5.599864399299804;64;65;24;2;   
2019_03_04 09:20;17;0;0;practice;10;48;1;20;25;24;35;0.32000000000000001;0.13;0.48999999999999999;0.059999999999999901;44;76;0;0;0.29999999999999999;0.69999999999999996;0.0;0.0;1;4.4497610310270375;64;65;24;2;   
2019_03_04 09:20;17;0;0;practice;11;18;1;47;36;0;0;0.089999999999999997;0.91000000000000003;0.0;0.0;2;44;81;9;0.20000000000000001;0.25;0.51000000000000001;0.040000000000000001;0;10.032867775205432;64;65;24;2;   
2019_03_04 09:20;17;0;0;practice;12;66;0;44;18;63;36;0.47999999999999998;0.10000000000000001;0.029999999999999999;0.39000000000000001;13;93;61;53;0.52000000000000002;0.45000000000000001;0.02;0.0099999999999999707;0;12.132780603326864;64;65;24;2;   
2019_03_04 09:20;17;0;0;practice;13;42;0;23;45;91;22;0.72999999999999998;0.02;0.20000000000000001;0.050000000000000003;2;86;0;0;0.40999999999999998;0.58999999999999997;0.0;0.0;0;2.083214506324339;64;65;24;2;   
2019_03_04 09:20;17;0;0;practice;14;49;1;14;31;42;22;0.77000000000000002;0.089999999999999997;0.02;0.12;87;28;0;0;0.68000000000000005;0.32000000000000001;0.0;0.0;1;8.216476511380279;64;65;24;2;   
2019_03_04 09:20;17;0;0;practice;15;21;0;59;69;0;0;0.34000000000000002;0.66000000000000003;0.0;0.0;64;18;5;24;0.14999999999999999;0.040000000000000001;0.51000000000000001;0.29999999999999999;0;3.283324321082546;64;65;24;2;   
2019_03_04 09:20;17;0;0;practice;16;45;1;37;40;75;23;0.54000000000000004;0.38;0.059999999999999998;0.02;1;90;0;0;0.28000000000000003;0.71999999999999997;0.0;0.0;0;1.54993781226176;64;65;24;2;   
2019_03_04 09:20;17;0;0;practice;17;14;0;92;56;0;0;0.11;0.89000000000000001;0.0;0.0;97;31;51;4;0.58999999999999997;0.22;0.080000000000000002;0.11;0;3.2665230479494767;64;65;24;2;   
2019_03_04 09:20;17;0;0;practice;18;2;0;41;60;0;0;0.97999999999999998;0.02;0.0;0.0;10;14;97;6;0.54000000000000004;0.17000000000000001;0.12;0.17000000000000001;0;8.999602947807944;64;65;24;2;   
2019_03_04 09:20;17;0;0;practice;19;74;1;36;46;10;12;0.11;0.19;0.65000000000000002;0.049999999999999899;92;24;79;19;0.51000000000000001;0.40999999999999998;0.02;0.059999999999999998;1;9.166239787452014;64;65;24;2;   
2019_03_04 09:20;17;0;0;practice;20;33;1;54;82;55;71;0.56000000000000005;0.20999999999999999;0.02;0.20999999999999999;13;99;0;0;0.5;0.5;0.0;0.0;0;3.416636037842636;64;65;24;2;   
2019_03_04 09:20;17;0;0;practice;21;65;0;35;15;77;1;0.62;0.33000000000000002;0.029999999999999999;0.02;68;3;25;96;0.38;0.28000000000000003;0.28000000000000003;0.059999999999999901;1;14.29958550060337;64;65;24;2;   
2019_03_04 09:20;17;0;0;practice;22;71;0;94;87;26;75;0.71999999999999997;0.23999999999999999;0.02;0.02;90;27;12;83;0.16;0.73999999999999999;0.02;0.080000000000000002;0;4.666518493716239;64;65;24;2;   
2019_03_04 09:20;17;0;0;practice;23;61;0;51;48;56;88;0.91000000000000003;0.02;0.01;0.059999999999999998;78;21;14;82;0.55000000000000004;0.29999999999999999;0.070000000000000007;0.080000000000000002;1;9.599537584934751;64;65;24;2;   
2019_03_04 09:20;17;0;0;practice;24;7;0;13;31;0;0;0.51000000000000001;0.48999999999999999;0.0;0.0;8;79;42;18;0.85999999999999999;0.089999999999999997;0.02;0.029999999999999999;0;4.049822032098973;64;65;24;2;   
2019_03_04 09:20;17;0;0;practice;25;3;1;20;70;0;0;0.13;0.87;0.0;0.0;95;19;80;73;0.31;0.57999999999999996;0.029999999999999999;0.080000000000000002;0;11.982778582786523;64;65;24;2;   
2019_03_04 09:20;17;0;0;practice;26;69;0;38;74;27;73;0.22;0.19;0.45000000000000001;0.14000000000000001;1;97;79;84;0.28000000000000003;0.45000000000000001;0.17000000000000001;0.10000000000000001;0;4.733122555707496;64;65;24;2;   
2019_03_04 09:20;17;0;0;practice;27;36;1;56;89;86;77;0.66000000000000003;0.080000000000000002;0.14999999999999999;0.11;29;91;0;0;0.40999999999999998;0.58999999999999997;0.0;0.0;0;8.616364195000642;64;65;24;2;   
2019_03_04 09:20;17;0;0;practice;28;5;0;23;58;0;0;0.71999999999999997;0.28000000000000003;0.0;0.0;94;12;52;3;0.11;0.84999999999999998;0.029999999999999999;0.01;0;3.649773025980494;64;65;24;2;   
2019_03_04 09:20;17;0;0;practice;29;59;1;13;27;48;51;0.56999999999999995;0.13;0.13;0.17000000000000001;8;37;97;1;0.65000000000000002;0.16;0.14999999999999999;0.040000000000000001;0;2.9498678310110336;64;65;24;2;   
2019_03_04 09:20;17;0;0;practice;30;19;1;25;73;0;0;0.69999999999999996;0.29999999999999999;0.0;0.0;87;84;1;86;0.040000000000000001;0.59999999999999998;0.28000000000000003;0.080000000000000002;0;0.3999325845147723;64;65;24;2;   
2019_03_04 09:20;17;0;0;practice;31;1;0;67;36;0;0;0.14999999999999999;0.84999999999999998;0.0;0.0;1;4;81;77;0.25;0.54000000000000004;0.14000000000000001;0.070000000000000007;0;5.349876747045755;64;65;24;2;   
2019_03_04 09:20;17;0;0;practice;32;44;0;69;48;22;63;0.39000000000000001;0.40999999999999998;0.19;0.01;1;94;0;0;0.22;0.78000000000000003;0.0;0.0;0;5.266524651553027;64;65;24;2;   
2019_03_04 09:20;17;0;0;practice;33;6;1;42;59;0;0;0.35999999999999999;0.64000000000000001;0.0;0.0;77;19;6;7;0.44;0.14999999999999999;0.17999999999999999;0.23000000000000001;0;4.583258124335771;64;65;24;2;   
2019_03_04 09:20;17;0;0;practice;34;27;0;68;43;98;36;0.54000000000000004;0.44;0.01;0.0099999999999999603;97;13;0;0;0.27000000000000002;0.72999999999999998;0.0;0.0;0;8.68310809120544;64;65;24;2;   
2019_03_04 09:20;17;0;0;practice;35;62;1;65;52;74;55;0.16;0.12;0.14999999999999999;0.56999999999999995;72;86;2;68;0.12;0.53000000000000003;0.22;0.13;0;7.482966845821238;64;65;24;2;   
2019_03_04 09:20;17;0;0;practice;36;51;1;38;13;51;84;0.91000000000000003;0.070000000000000007;0.01;0.0099999999999999603;4;89;35;16;0.80000000000000004;0.089999999999999997;0.059999999999999998;0.050000000000000003;0;2.6999125715447008;64;65;24;2;   
2019_03_04 09:20;17;0;0;practice;37;13;0;15;25;0;0;0.29999999999999999;0.69999999999999996;0.0;0.0;3;43;35;73;0.44;0.40000000000000002;0.01;0.14999999999999999;1;6.299960423069024;64;65;24;2;   
2019_03_04 09:20;17;0;0;practice;38;34;1;57;23;66;79;0.56000000000000005;0.23000000000000001;0.13;0.079999999999999905;85;9;0;0;0.56000000000000005;0.44;0.0;0.0;0;5.199856445427031;64;65;24;2;   
2019_03_04 09:20;17;0;0;practice;39;63;0;24;82;6;96;0.91000000000000003;0.070000000000000007;0.01;0.0099999999999999603;73;10;71;22;0.31;0.51000000000000001;0.050000000000000003;0.13;0;6.68315619930604;64;65;24;2;   
2019_03_04 09:20;17;0;0;practice;40;68;0;39;58;40;8;0.48999999999999999;0.44;0.02;0.050000000000000003;92;83;51;2;0.57999999999999996;0.13;0.02;0.27000000000000002;0;8.68306543535573;64;65;24;2;   
2019_03_04 09:20;17;0;0;practice;41;8;0;20;44;0;0;0.26000000000000001;0.73999999999999999;0.0;0.0;99;3;69;24;0.20999999999999999;0.60999999999999999;0.12;0.060000000000000102;0;8.982894042228509;64;65;24;2;   
2019_03_04 09:20;17;0;0;practice;42;64;1;44;60;96;45;0.53000000000000003;0.10000000000000001;0.029999999999999999;0.34000000000000002;88;20;43;31;0.47999999999999998;0.38;0.050000000000000003;0.089999999999999997;1;10.166288857715017;64;65;24;2;   
2019_03_04 09:20;17;0;0;practice;43;32;0;21;86;16;78;0.45000000000000001;0.41999999999999998;0.050000000000000003;0.080000000000000099;95;9;0;0;0.42999999999999999;0.56999999999999995;0.0;0.0;0;7.782962227443704;64;65;24;2;   
2019_03_04 09:20;17;0;0;practice;44;67;1;74;31;10;77;0.11;0.070000000000000007;0.77000000000000002;0.050000000000000003;2;23;8;97;0.56999999999999995;0.01;0.059999999999999998;0.35999999999999999;0;11.066143186385716;64;65;24;2;   
2019_03_04 09:20;17;0;0;practice;45;54;1;69;80;22;55;0.27000000000000002;0.31;0.059999999999999998;0.35999999999999999;52;2;49;90;0.059999999999999998;0.33000000000000002;0.20000000000000001;0.40999999999999998;1;3.6164539967887777;64;65;24;2;   
2019_03_04 09:20;17;0;0;practice;46;60;1;39;93;27;78;0.85999999999999999;0.02;0.11;0.01;22;5;62;95;0.059999999999999998;0.56999999999999995;0.14000000000000001;0.23000000000000001;0;5.066394952113114;64;65;24;2;   
2019_03_04 09:20;17;0;0;practice;47;47;0;91;99;90;78;0.93000000000000005;0.040000000000000001;0.02;0.0099999999999999499;10;87;0;0;0.23000000000000001;0.77000000000000002;0.0;0.0;0;4.48310090706218;64;65;24;2;   
2019_03_04 09:20;17;0;0;practice;48;46;1;79;57;98;81;0.67000000000000004;0.070000000000000007;0.20999999999999999;0.050000000000000003;1;76;0;0;0.56000000000000005;0.44;0.0;0.0;0;3.6167182706228687;64;65;24;2;   
2019_03_04 09:20;17;0;0;practice;49;39;1;53;65;48;75;0.92000000000000004;0.029999999999999999;0.01;0.040000000000000001;16;83;0;0;0.31;0.68999999999999995;0.0;0.0;1;3.516465157868197;64;65;24;2;   
2019_03_04 09:20;17;0;0;practice;50;43;0;11;17;21;44;0.16;0.46000000000000002;0.25;0.13;2;66;0;0;0.44;0.56000000000000005;0.0;0.0;1;4.216571765419758;64;65;24;2;   
2019_03_04 09:20;17;0;0;practice;51;16;1;50;42;0;0;0.32000000000000001;0.68000000000000005;0.0;0.0;97;2;56;31;0.35999999999999999;0.16;0.16;0.32000000000000001;1;4.766452810122473;64;65;24;2;   
2019_03_04 09:20;17;0;0;practice;52;25;1;7;18;0;0;0.20999999999999999;0.79000000000000004;0.0;0.0;92;45;33;13;0.41999999999999998;0.17999999999999999;0.22;0.17999999999999999;1;2.2332854818089345;64;65;24;2;   
2019_03_04 09:20;17;0;0;practice;53;9;0;57;44;0;0;0.14999999999999999;0.84999999999999998;0.0;0.0;38;35;64;95;0.34000000000000002;0.45000000000000001;0.089999999999999997;0.12;1;7.833096000035994;64;65;24;2;   
2019_03_04 09:20;17;0;0;practice;54;12;0;45;86;0;0;0.97999999999999998;0.02;0.0;0.0;6;23;95;81;0.14999999999999999;0.40999999999999998;0.050000000000000003;0.39000000000000001;0;3.71658619785012;64;65;24;2;   
2019_03_04 09:20;17;0;0;practice;55;35;1;84;95;4;35;0.89000000000000001;0.050000000000000003;0.01;0.050000000000000003;5;98;0;0;0.19;0.81000000000000005;0.0;0.0;0;4.633287662709563;64;65;24;2;   
2019_03_04 09:20;17;0;0;practice;56;23;1;99;93;0;0;0.57999999999999996;0.41999999999999998;0.0;0.0;64;10;80;81;0.13;0.55000000000000004;0.02;0.29999999999999999;0;2.733155589936814;64;65;24;2;   
2019_03_04 09:20;17;0;0;practice;57;57;1;39;68;59;91;0.73999999999999999;0.040000000000000001;0.14999999999999999;0.070000000000000007;9;22;40;84;0.29999999999999999;0.32000000000000001;0.040000000000000001;0.34000000000000002;0;6.232990098069877;64;65;24;2;   
2019_03_04 09:20;17;0;0;practice;58;70;0;21;42;14;63;0.96999999999999997;0.01;0.01;0.01;70;2;6;76;0.23999999999999999;0.42999999999999999;0.01;0.32000000000000001;0;3.899861705246167;64;65;24;2;   
2019_03_04 09:20;17;0;0;practice;59;56;0;47;52;64;10;0.77000000000000002;0.040000000000000001;0.11;0.080000000000000002;1;5;12;99;0.14000000000000001;0.28999999999999998;0.27000000000000002;0.29999999999999999;0;2.0167910100713016;64;65;24;2;   
2019_03_04 09:20;17;0;0;practice;60;52;0;17;61;57;59;0.070000000000000007;0.050000000000000003;0.33000000000000002;0.55000000000000004;12;93;94;62;0.71999999999999997;0.16;0.080000000000000002;0.040000000000000001;0;9.73285026385679;64;65;24;2;   
2019_03_04 09:20;17;0;0;practice;61;37;0;50;66;99;12;0.26000000000000001;0.71999999999999997;0.01;0.01;22;90;0;0;0.37;0.63;0.0;0.0;0;5.716448929402304;64;65;24;2;   
2019_03_04 09:20;17;0;0;practice;62;26;1;24;46;74;59;0.29999999999999999;0.11;0.25;0.34000000000000002;91;6;0;0;0.28999999999999998;0.70999999999999996;0.0;0.0;0;2.599866002903127;64;65;24;2;   
2019_03_04 09:20;17;0;0;practice;63;55;1;53;11;80;74;0.31;0.37;0.28000000000000003;0.039999999999999897;6;93;98;96;0.69999999999999996;0.22;0.050000000000000003;0.029999999999999999;0;4.233120952104173;64;65;24;2;   
2019_03_04 09:20;17;0;0;practice;64;24;1;19;38;0;0;0.89000000000000001;0.11;0.0;0.0;45;76;95;57;0.29999999999999999;0.22;0.40000000000000002;0.080000000000000002;1;3.266610925413943;64;65;24;2;   
2019_03_04 09:20;17;0;0;practice;65;4;0;40;59;0;0;0.19;0.81000000000000005;0.0;0.0;10;88;13;45;0.56000000000000005;0.28999999999999998;0.01;0.14000000000000001;0;5.283148245433495;64;65;24;2;   
2019_03_04 09:20;17;0;0;practice;66;20;0;32;11;0;0;0.40999999999999998;0.58999999999999997;0.0;0.0;1;86;42;65;0.45000000000000001;0.38;0.050000000000000003;0.12;1;2.5165940875785964;64;65;24;2;   
2019_03_04 09:20;17;0;0;practice;67;40;1;29;65;30;41;0.70999999999999996;0.01;0.14999999999999999;0.13;2;59;0;0;0.32000000000000001;0.68000000000000005;0.0;0.0;0;3.3664875120991837;64;65;24;2;   
2019_03_04 09:20;17;0;0;practice;68;15;0;24;59;0;0;0.56999999999999995;0.42999999999999999;0.0;0.0;9;8;80;22;0.31;0.10000000000000001;0.55000000000000004;0.039999999999999897;0;5.549672255545147;64;65;24;2;   
2019_03_04 09:20;17;0;0;practice;69;72;0;86;85;97;43;0.51000000000000001;0.14999999999999999;0.33000000000000002;0.0099999999999999499;72;29;10;90;0.01;0.11;0.65000000000000002;0.23000000000000001;0;7.099641819153476;64;65;24;2;   
2019_03_04 09:20;17;0;0;practice;70;73;1;99;88;95;28;0.83999999999999997;0.14000000000000001;0.01;0.01;90;93;10;74;0.080000000000000002;0.46000000000000002;0.34999999999999998;0.11;0;3.4331438515600894;64;65;24;2;   
2019_03_04 09:20;17;0;0;practice;71;30;1;54;78;85;25;0.20999999999999999;0.60999999999999999;0.089999999999999997;0.090000000000000094;87;20;0;0;0.58999999999999997;0.40999999999999998;0.0;0.0;0;3.4998094919208143;64;65;24;2;   
2019_03_04 09:20;17;0;0;practice;72;50;1;17;12;21;14;0.55000000000000004;0.34000000000000002;0.059999999999999998;0.049999999999999899;13;93;0;0;0.28999999999999998;0.70999999999999996;0.0;0.0;1;2.750086113500629;64;65;24;2;   
2019_03_04 09:20;17;0;0;practice;73;11;0;10;44;0;0;0.48999999999999999;0.51000000000000001;0.0;0.0;88;12;54;50;0.17000000000000001;0.75;0.02;0.059999999999999998;1;2.2831989192995934;64;65;24;2;   
2019_03_04 09:20;17;0;0;practice;74;29;1;66;40;92;49;0.46999999999999997;0.10000000000000001;0.34000000000000002;0.089999999999999997;8;94;0;0;0.44;0.56000000000000005;0.0;0.0;0;3.816451559311872;64;65;24;2;   
2019_03_04 09:20;17;0;0;practice;75;53;0;47;24;95;38;0.57999999999999996;0.28000000000000003;0.02;0.12;8;22;93;96;0.54000000000000004;0.34000000000000002;0.10000000000000001;0.0199999999999999;0;7.233123838590245;64;65;24;2;   
2019_03_04 09:20;17;1;0;control;1;5;1;70;5;0;0;0.98999999999999999;0.01;0.0;0.0;92;87;47;1;0.44;0.02;0.16;0.38;0;2.267292456842142;64;65;24;2;   
2019_03_04 09:20;17;1;0;control;2;83;1;17;12;7;41;0.65000000000000002;0.19;0.089999999999999997;0.070000000000000007;6;84;0;0;0.72999999999999998;0.27000000000000002;0.0;0.0;0;3.216484850117695;64;65;24;2;   
2019_03_04 09:20;17;1;0;control;3;121;1;42;51;47;70;0.41999999999999998;0.17000000000000001;0.23999999999999999;0.17000000000000001;21;76;48;9;0.14999999999999999;0.34000000000000002;0.40999999999999998;0.10000000000000001;1;5.899805258407696;64;65;24;2;   
2019_03_04 09:20;17;1;0;control;4;89;1;26;41;13;56;0.059999999999999998;0.40999999999999998;0.050000000000000003;0.47999999999999998;5;97;0;0;0.37;0.63;0.0;0.0;0;3.1831520299372187;64;65;24;2;   
2019_03_04 09:20;17;1;0;control;5;21;1;64;28;0;0;0.080000000000000002;0.92000000000000004;0.0;0.0;50;1;88;13;0.57999999999999996;0.13;0.02;0.27000000000000002;0;9.316212943131859;64;65;24;2;   
2019_03_04 09:20;17;1;0;control;6;57;0;52;35;23;47;0.22;0.68000000000000005;0.040000000000000001;0.059999999999999998;71;7;0;0;0.28999999999999998;0.70999999999999996;0.0;0.0;0;3.3164775376862963;64;65;24;2;   
2019_03_04 09:20;17;1;0;control;7;147;0;39;43;76;28;0.14000000000000001;0.10000000000000001;0.10000000000000001;0.66000000000000003;6;31;68;85;0.27000000000000002;0.20000000000000001;0.22;0.31;0;5.283049142745313;64;65;24;2;   
2019_03_04 09:20;17;1;0;control;8;20;1;44;40;0;0;0.91000000000000003;0.089999999999999997;0.0;0.0;29;5;80;99;0.25;0.40000000000000002;0.26000000000000001;0.089999999999999997;0;5.116516216599393;64;65;24;2;   
2019_03_04 09:20;17;1;0;control;9;98;0;27;10;31;79;0.23000000000000001;0.67000000000000004;0.070000000000000007;0.029999999999999999;25;99;0;0;0.38;0.62;0.0;0.0;1;6.249825046873411;64;65;24;2;   
2019_03_04 09:20;17;1;0;control;10;28;0;47;30;0;0;0.97999999999999998;0.02;0.0;0.0;55;48;77;13;0.070000000000000007;0.26000000000000001;0.42999999999999999;0.23999999999999999;1;4.916543991009348;64;65;24;2;   
2019_03_04 09:20;17;1;0;control;11;76;1;39;62;9;28;0.01;0.51000000000000001;0.26000000000000001;0.22;77;7;0;0;0.57999999999999996;0.41999999999999998;0.0;0.0;1;5.349746855173635;64;65;24;2;   
2019_03_04 09:20;17;1;0;control;12;60;0;64;59;57;96;0.83999999999999997;0.13;0.02;0.01;83;6;0;0;0.54000000000000004;0.46000000000000002;0.0;0.0;0;3.649810550298753;64;65;24;2;   
2019_03_04 09:20;17;1;0;control;13;69;1;54;34;64;49;0.34000000000000002;0.25;0.20999999999999999;0.20000000000000001;14;98;0;0;0.62;0.38;0.0;0.0;0;3.783123870662166;64;65;24;2;   
2019_03_04 09:20;17;1;0;control;14;134;0;57;48;50;55;0.02;0.62;0.17999999999999999;0.17999999999999999;80;96;15;18;0.23999999999999999;0.35999999999999999;0.33000000000000002;0.070000000000000007;1;4.4999676072120565;64;65;24;2;   
2019_03_04 09:20;17;1;0;control;15;120;0;64;40;48;51;0.19;0.02;0.070000000000000007;0.71999999999999997;97;9;79;94;0.23000000000000001;0.54000000000000004;0.01;0.22;0;6.716443477151188;64;65;24;2;   
2019_03_04 09:20;17;1;0;control;16;7;1;49;29;0;0;0.95999999999999996;0.040000000000000001;0.0;0.0;23;99;64;25;0.68999999999999995;0.12;0.059999999999999998;0.13;0;6.183013478606881;64;65;24;2;   
2019_03_04 09:20;17;1;0;control;17;68;0;84;27;55;62;0.01;0.050000000000000003;0.40999999999999998;0.53000000000000003;9;82;0;0;0.37;0.63;0.0;0.0;0;5.333068418058247;64;65;24;2;   
2019_03_04 09:20;17;1;0;control;18;104;1;55;85;93;3;0.87;0.02;0.089999999999999997;0.02;1;2;90;8;0.35999999999999999;0.070000000000000007;0.40000000000000002;0.17000000000000001;0;1.9998499027256003;64;65;24;2;   
2019_03_04 09:20;17;1;0;control;19;58;0;37;58;76;34;0.20999999999999999;0.57999999999999996;0.19;0.020000000000000101;86;5;0;0;0.47999999999999998;0.52000000000000002;0.0;0.0;0;4.716412687966567;64;65;24;2;   
2019_03_04 09:20;17;1;0;control;20;142;0;98;65;64;84;0.88;0.070000000000000007;0.01;0.040000000000000001;5;68;60;16;0.46000000000000002;0.080000000000000002;0.27000000000000002;0.19;0;2.9331663020070664;64;65;24;2;   
2019_03_04 09:20;17;1;0;control;21;40;1;45;49;0;0;0.68999999999999995;0.31;0.0;0.0;2;92;65;73;0.23999999999999999;0.59999999999999998;0.11;0.050000000000000003;0;6.982999238608954;64;65;24;2;   
2019_03_04 09:20;17;1;0;control;22;90;1;27;44;50;72;0.68000000000000005;0.28999999999999998;0.02;0.0099999999999999707;6;96;0;0;0.46999999999999997;0.53000000000000003;0.0;0.0;0;5.583539075644694;64;65;24;2;   
2019_03_04 09:20;17;1;0;control;23;55;0;74;55;47;48;0.60999999999999999;0.31;0.070000000000000007;0.01;97;6;0;0;0.42999999999999999;0.56999999999999995;0.0;0.0;0;3.4664866140810773;64;65;24;2;   
2019_03_04 09:20;17;1;0;control;24;129;1;12;29;81;36;0.17999999999999999;0.79000000000000004;0.01;0.02;5;19;95;92;0.47999999999999998;0.26000000000000001;0.13;0.13;0;4.716413008687141;64;65;24;2;   
2019_03_04 09:20;17;1;0;control;25;79;0;52;46;29;22;0.17999999999999999;0.51000000000000001;0.23999999999999999;0.070000000000000104;93;14;0;0;0.45000000000000001;0.55000000000000004;0.0;0.0;0;3.916416664902954;64;65;24;2;   
2019_03_04 09:20;17;1;0;control;26;137;1;71;22;28;17;0.25;0.46000000000000002;0.050000000000000003;0.23999999999999999;3;98;92;69;0.42999999999999999;0.23999999999999999;0.20000000000000001;0.13;0;6.849799774084204;64;65;24;2;   
2019_03_04 09:20;17;1;0;control;27;132;0;27;70;21;19;0.64000000000000001;0.23000000000000001;0.029999999999999999;0.10000000000000001;11;85;55;6;0.39000000000000001;0.46999999999999997;0.029999999999999999;0.11;0;3.8001095581817026;64;65;24;2;   
2019_03_04 09:20;17;1;0;control;28;2;1;59;32;0;0;0.080000000000000002;0.92000000000000004;0.0;0.0;33;38;85;1;0.28999999999999998;0.050000000000000003;0.070000000000000007;0.58999999999999997;0;5.683004177707517;64;65;24;2;   
2019_03_04 09:20;17;1;0;control;29;102;1;40;56;53;17;0.28000000000000003;0.26000000000000001;0.14999999999999999;0.31;1;76;29;62;0.68000000000000005;0.23000000000000001;0.050000000000000003;0.039999999999999897;0;2.5333334616216234;64;65;24;2;   
2019_03_04 09:20;17;1;0;control;30;65;1;75;64;59;52;0.59999999999999998;0.22;0.14000000000000001;0.040000000000000001;1;99;0;0;0.35999999999999999;0.64000000000000001;0.0;0.0;0;2.99985343065282;64;65;24;2;   
2019_03_04 09:20;17;1;0;control;31;26;0;76;41;0;0;0.57999999999999996;0.41999999999999998;0.0;0.0;61;79;84;2;0.13;0.029999999999999999;0.67000000000000004;0.17000000000000001;0;7.149661415186074;64;65;24;2;   
2019_03_04 09:20;17;1;0;control;32;150;1;25;21;78;38;0.84999999999999998;0.059999999999999998;0.050000000000000003;0.040000000000000001;31;43;64;95;0.059999999999999998;0.45000000000000001;0.13;0.35999999999999999;1;6.866346074282774;64;65;24;2;   
2019_03_04 09:20;17;1;0;control;33;73;1;65;68;70;47;0.25;0.23000000000000001;0.20999999999999999;0.31;27;95;0;0;0.45000000000000001;0.55000000000000004;0.0;0.0;1;7.31631749807093;64;65;24;2;   
2019_03_04 09:20;17;1;0;control;34;72;1;63;82;51;61;0.01;0.96999999999999997;0.01;0.01;92;12;0;0;0.89000000000000001;0.11;0.0;0.0;0;5.083063126166962;64;65;24;2;   
2019_03_04 09:20;17;1;0;control;35;81;0;67;38;52;65;0.27000000000000002;0.35999999999999999;0.01;0.35999999999999999;2;77;0;0;0.14000000000000001;0.85999999999999999;0.0;0.0;0;2.449817798586082;64;65;24;2;   
2019_03_04 09:20;17;1;0;control;36;95;0;93;88;68;85;0.83999999999999997;0.14000000000000001;0.01;0.01;2;82;0;0;0.41999999999999998;0.57999999999999996;0.0;0.0;0;2.649840698042226;64;65;24;2;   
2019_03_04 09:20;17;1;0;control;37;64;1;48;39;34;19;0.46000000000000002;0.5;0.02;0.02;13;92;0;0;0.68999999999999995;0.31;0.0;0.0;0;7.81625463681894;64;65;24;2;   
2019_03_04 09:20;17;1;0;control;38;10;0;45;62;0;0;0.059999999999999998;0.93999999999999995;0.0;0.0;17;99;28;67;0.58999999999999997;0.34000000000000002;0.01;0.059999999999999998;1;14.149383350363678;64;65;24;2;   
2019_03_04 09:20;17;1;0;control;39;74;0;66;47;52;44;0.41999999999999998;0.26000000000000001;0.17999999999999999;0.14000000000000001;17;99;0;0;0.47999999999999998;0.52000000000000002;0.0;0.0;0;9.916397421662623;64;65;24;2;   
2019_03_04 09:20;17;1;0;control;40;105;0;49;74;63;58;0.84999999999999998;0.080000000000000002;0.02;0.050000000000000003;97;5;86;8;0.25;0.52000000000000002;0.070000000000000007;0.16;0;2.499841884708985;64;65;24;2;   
2019_03_04 09:20;17;1;0;control;41;67;0;44;42;8;89;0.88;0.070000000000000007;0.029999999999999999;0.02;10;63;0;0;0.39000000000000001;0.60999999999999999;0.0;0.0;0;8.799581972675696;64;65;24;2;   
2019_03_04 09:20;17;1;0;control;42;94;0;84;86;93;39;0.78000000000000003;0.20000000000000001;0.01;0.0099999999999999603;9;83;0;0;0.46999999999999997;0.53000000000000003;0.0;0.0;0;2.2666638443247393;64;65;24;2;   
2019_03_04 09:20;17;1;0;control;43;43;1;60;83;0;0;0.23000000000000001;0.77000000000000002;0.0;0.0;72;5;70;12;0.29999999999999999;0.40999999999999998;0.12;0.17000000000000001;0;3.033455656197475;64;65;24;2;   
2019_03_04 09:20;17;1;0;control;44;16;1;64;53;0;0;0.65000000000000002;0.34999999999999998;0.0;0.0;29;17;81;46;0.10000000000000001;0.01;0.44;0.45000000000000001;0;4.083139457687139;64;65;24;2;   
2019_03_04 09:20;17;1;0;control;45;143;0;88;44;56;73;0.95999999999999996;0.02;0.01;0.01;20;3;87;32;0.19;0.40000000000000002;0.28000000000000003;0.13;0;2.9331566803871283;64;65;24;2;   
2019_03_04 09:20;17;1;0;control;46;116;0;53;65;43;99;0.56999999999999995;0.37;0.050000000000000003;0.010000000000000101;57;72;11;87;0.67000000000000004;0.13;0.14999999999999999;0.050000000000000003;0;8.033102542737652;64;65;24;2;   
2019_03_04 09:20;17;1;0;control;47;53;1;26;70;50;80;0.29999999999999999;0.59999999999999998;0.040000000000000001;0.059999999999999998;89;1;0;0;0.40999999999999998;0.58999999999999997;0.0;0.0;0;3.5332815048727753;64;65;24;2;   
2019_03_04 09:20;17;1;0;control;48;115;0;50;28;61;79;0.83999999999999997;0.040000000000000001;0.059999999999999998;0.059999999999999998;1;26;97;55;0.45000000000000001;0.080000000000000002;0.40999999999999998;0.060000000000000102;0;12.399413017025836;64;65;24;2;   
2019_03_04 09:20;17;1;0;control;49;47;1;2;40;0;0;0.45000000000000001;0.55000000000000004;0.0;0.0;93;89;11;56;0.58999999999999997;0.070000000000000007;0.28000000000000003;0.059999999999999998;1;3.51643404796323;64;65;24;2;   
2019_03_04 09:20;17;1;0;control;50;37;1;14;98;0;0;0.93000000000000005;0.070000000000000007;0.0;0.0;41;2;87;66;0.17999999999999999;0.48999999999999999;0.32000000000000001;0.010000000000000101;0;4.58294445951833;64;65;24;2;   
2019_03_04 09:20;17;1;0;control;51;12;1;53;68;0;0;0.31;0.68999999999999995;0.0;0.0;69;54;97;29;0.25;0.20999999999999999;0.20000000000000001;0.34000000000000002;0;4.5831766612850515;64;65;24;2;   
2019_03_04 09:20;17;1;0;control;52;141;0;93;28;60;91;0.81999999999999995;0.10000000000000001;0.01;0.070000000000000007;14;85;7;89;0.45000000000000001;0.070000000000000007;0.23999999999999999;0.23999999999999999;0;4.6997685679630194;64;65;24;2;   
2019_03_04 09:20;17;1;0;control;53;103;0;38;49;89;50;0.89000000000000001;0.070000000000000007;0.01;0.029999999999999999;6;64;99;27;0.70999999999999996;0.17999999999999999;0.059999999999999998;0.050000000000000003;0;2.449866868848858;64;65;24;2;   
2019_03_04 09:20;17;1;0;control;54;11;1;17;36;0;0;0.14000000000000001;0.85999999999999999;0.0;0.0;19;41;34;95;0.88;0.02;0.050000000000000003;0.050000000000000003;0;9.849580721865095;64;65;24;2;   
2019_03_04 09:20;17;1;0;control;55;23;1;54;40;0;0;0.93000000000000005;0.070000000000000007;0.0;0.0;36;23;71;86;0.02;0.41999999999999998;0.19;0.37;1;5.783176468852616;64;65;24;2;   
2019_03_04 09:20;17;1;0;control;56;32;0;19;81;0;0;0.93000000000000005;0.070000000000000007;0.0;0.0;1;65;41;68;0.45000000000000001;0.050000000000000003;0.059999999999999998;0.44;1;2.6165527787561587;64;65;24;2;   
2019_03_04 09:20;17;1;0;control;57;78;1;74;36;34;3;0.14999999999999999;0.64000000000000001;0.13;0.080000000000000002;1;83;0;0;0.41999999999999998;0.57999999999999996;0.0;0.0;0;4.633020181669053;64;65;24;2;   
2019_03_04 09:20;17;1;0;control;58;8;0;50;36;0;0;0.080000000000000002;0.92000000000000004;0.0;0.0;6;19;84;29;0.54000000000000004;0.070000000000000007;0.17000000000000001;0.22;0;4.983352031348659;64;65;24;2;   
2019_03_04 09:20;17;1;0;control;59;31;0;10;59;0;0;0.23999999999999999;0.76000000000000001;0.0;0.0;1;79;53;73;0.23000000000000001;0.58999999999999997;0.050000000000000003;0.13;0;3.733162966512282;64;65;24;2;   
2019_03_04 09:20;17;1;0;control;60;13;1;52;56;0;0;0.46999999999999997;0.53000000000000003;0.0;0.0;94;71;27;2;0.089999999999999997;0.31;0.57999999999999996;0.020000000000000101;0;4.8166536133353475;64;65;24;2;   
2019_03_04 09:20;17;1;0;control;61;149;0;14;89;73;53;0.93999999999999995;0.01;0.01;0.040000000000000001;97;45;6;13;0.34000000000000002;0.01;0.40999999999999998;0.23999999999999999;0;5.666422277514357;64;65;24;2;   
2019_03_04 09:20;17;1;0;control;62;119;1;60;58;11;18;0.25;0.72999999999999998;0.01;0.01;96;23;42;85;0.44;0.48999999999999999;0.059999999999999998;0.010000000000000101;0;16.59926304803912;64;65;24;2;   
2019_03_04 09:20;17;1;0;control;63;75;0;67;80;36;81;0.81999999999999995;0.080000000000000002;0.059999999999999998;0.040000000000000001;3;97;0;0;0.32000000000000001;0.68000000000000005;0.0;0.0;0;2.4998938414578333;64;65;24;2;   
2019_03_04 09:20;17;1;0;control;64;92;1;90;86;65;94;0.16;0.34000000000000002;0.28000000000000003;0.22;79;22;0;0;0.35999999999999999;0.64000000000000001;0.0;0.0;0;4.916410891930809;64;65;24;2;   
2019_03_04 09:20;17;1;0;control;65;70;1;66;55;69;50;0.22;0.29999999999999999;0.29999999999999999;0.17999999999999999;2;90;0;0;0.34000000000000002;0.66000000000000003;0.0;0.0;0;2.1831837812837875;64;65;24;2;   
2019_03_04 09:20;17;1;0;control;66;96;1;51;54;39;7;0.17000000000000001;0.26000000000000001;0.10000000000000001;0.46999999999999997;24;96;0;0;0.28000000000000003;0.71999999999999997;0.0;0.0;1;2.716519487950336;64;65;24;2;   
2019_03_04 09:20;17;1;0;control;67;140;1;36;32;26;27;0.39000000000000001;0.14999999999999999;0.19;0.27000000000000002;44;3;99;25;0.29999999999999999;0.34000000000000002;0.34000000000000002;0.0199999999999999;0;4.766410474993791;64;65;24;2;   
2019_03_04 09:20;17;1;0;control;68;91;0;74;81;86;48;0.93000000000000005;0.02;0.01;0.039999999999999897;7;64;0;0;0.13;0.87;0.0;0.0;0;2.1666519135160343;64;65;24;2;   
2019_03_04 09:20;17;1;0;control;69;123;0;26;24;51;92;0.72999999999999998;0.16;0.070000000000000007;0.040000000000000001;6;90;82;49;0.64000000000000001;0.25;0.050000000000000003;0.059999999999999998;0;4.199771454449092;64;65;24;2;   
2019_03_04 09:20;17;1;0;control;70;46;0;5;19;0;0;0.32000000000000001;0.68000000000000005;0.0;0.0;88;38;97;66;0.60999999999999999;0.20000000000000001;0.040000000000000001;0.14999999999999999;1;2.433182338041206;64;65;24;2;   
2019_03_04 09:20;17;1;0;control;71;97;0;17;33;32;74;0.94999999999999996;0.01;0.029999999999999999;0.01;76;23;0;0;0.33000000000000002;0.67000000000000004;0.0;0.0;1;4.08325138920145;64;65;24;2;   
2019_03_04 09:20;17;1;0;control;72;48;0;13;32;0;0;0.90000000000000002;0.10000000000000001;0.0;0.0;24;99;84;94;0.62;0.14999999999999999;0.20000000000000001;0.029999999999999999;1;3.5997624101260044;64;65;24;2;   
2019_03_04 09:20;17;1;0;control;73;51;0;52;23;43;16;0.60999999999999999;0.20999999999999999;0.01;0.17000000000000001;92;7;0;0;0.14999999999999999;0.84999999999999998;0.0;0.0;0;7.649529919710858;64;65;24;2;   
2019_03_04 09:20;17;1;0;control;74;18;0;68;50;0;0;0.029999999999999999;0.96999999999999997;0.0;0.0;34;64;15;89;0.65000000000000002;0.029999999999999999;0.050000000000000003;0.27000000000000002;0;2.516686775852577;64;65;24;2;   
2019_03_04 09:20;17;1;0;control;75;130;1;37;79;23;95;0.94999999999999996;0.029999999999999999;0.01;0.01;94;4;58;49;0.46000000000000002;0.5;0.029999999999999999;0.01;0;5.099692493019575;64;65;24;2;   
2019_03_04 09:20;17;2;0;timed;1;140;1;36;32;26;27;0.39000000000000001;0.14999999999999999;0.19;0.27000000000000002;44;3;99;25;0.29999999999999999;0.34000000000000002;0.34000000000000002;0.0199999999999999;0;2.971421863784599;64;65;24;2;   
2019_03_04 09:20;17;2;0;timed;2;24;0;35;27;0;0;0.070000000000000007;0.93000000000000005;0.0;0.0;62;3;81;95;0.35999999999999999;0.55000000000000004;0.01;0.080000000000000002;0;2.8500451253985375;64;65;24;2;   
2019_03_04 09:20;17;2;0;timed;3;77;1;24;17;99;41;0.17999999999999999;0.13;0.10000000000000001;0.58999999999999997;12;97;0;0;0.59999999999999998;0.40000000000000002;0.0;0.0;0;2.8831768537174867;64;65;24;2;   
2019_03_04 09:20;17;2;0;timed;4;92;0;90;86;65;94;0.16;0.34000000000000002;0.28000000000000003;0.22;79;22;0;0;0.35999999999999999;0.64000000000000001;0.0;0.0;1;2.299815457325167;64;65;24;2;   
2019_03_04 09:20;17;2;0;timed;5;37;1;14;98;0;0;0.93000000000000005;0.070000000000000007;0.0;0.0;41;2;87;66;0.17999999999999999;0.48999999999999999;0.32000000000000001;0.010000000000000101;0;2.6000067992781624;64;65;24;2;   
2019_03_04 09:20;17;2;0;timed;6;104;1;55;85;93;3;0.87;0.02;0.089999999999999997;0.02;1;2;90;8;0.35999999999999999;0.070000000000000007;0.40000000000000002;0.17000000000000001;0;3.099825912819142;64;65;24;2;   
2019_03_04 09:20;17;2;0;timed;7;139;0;44;31;16;8;0.79000000000000004;0.070000000000000007;0.13;0.0099999999999999499;92;58;2;88;0.55000000000000004;0.070000000000000007;0.34000000000000002;0.039999999999999897;0;3.0999625398253556;64;65;24;2;   
2019_03_04 09:20;17;2;0;timed;8;33;1;27;70;0;0;0.88;0.12;0.0;0.0;93;3;77;16;0.080000000000000002;0.40000000000000002;0.5;0.02;NA;3.416470866696727;64;65;24;2;   
2019_03_04 09:20;17;2;0;timed;9;73;1;65;68;70;47;0.25;0.23000000000000001;0.20999999999999999;0.31;27;95;0;0;0.45000000000000001;0.55000000000000004;0.0;0.0;0;1.8998963430790354;64;65;24;2;   
2019_03_04 09:20;17;2;0;timed;10;71;1;68;55;36;51;0.20000000000000001;0.75;0.02;0.029999999999999999;38;81;0;0;0.52000000000000002;0.47999999999999998;0.0;0.0;1;2.5667528763833616;64;65;24;2;   
2019_03_04 09:20;17;2;0;timed;11;13;1;52;56;0;0;0.46999999999999997;0.53000000000000003;0.0;0.0;94;71;27;2;0.089999999999999997;0.31;0.57999999999999996;0.020000000000000101;0;1.6166897264829458;64;65;24;2;   
2019_03_04 09:20;17;2;0;timed;12;142;0;98;65;64;84;0.88;0.070000000000000007;0.01;0.040000000000000001;5;68;60;16;0.46000000000000002;0.080000000000000002;0.27000000000000002;0.19;0;1.6998853102873;64;65;24;2;   
2019_03_04 09:20;17;2;0;timed;13;59;1;56;47;83;90;0.31;0.12;0.54000000000000004;0.029999999999999898;10;98;0;0;0.46999999999999997;0.53000000000000003;0.0;0.0;0;1.9998194342615534;64;65;24;2;   
2019_03_04 09:20;17;2;0;timed;14;135;0;48;60;41;51;0.14000000000000001;0.40000000000000002;0.089999999999999997;0.37;94;1;85;65;0.64000000000000001;0.29999999999999999;0.01;0.050000000000000003;0;2.300006927566301;64;65;24;2;   
2019_03_04 09:20;17;2;0;timed;15;28;0;47;30;0;0;0.97999999999999998;0.02;0.0;0.0;55;48;77;13;0.070000000000000007;0.26000000000000001;0.42999999999999999;0.23999999999999999;1;2.450041340894586;64;65;24;2;   
2019_03_04 09:20;17;2;0;timed;16;86;0;56;30;57;88;0.20000000000000001;0.35999999999999999;0.080000000000000002;0.35999999999999999;98;2;0;0;0.77000000000000002;0.23000000000000001;0.0;0.0;0;1.9332512929850054;64;65;24;2;   
2019_03_04 09:20;17;2;0;timed;17;64;1;48;39;34;19;0.46000000000000002;0.5;0.02;0.02;13;92;0;0;0.68999999999999995;0.31;0.0;0.0;0;2.5164818353432565;64;65;24;2;   
2019_03_04 09:20;17;2;0;timed;18;105;0;49;74;63;58;0.84999999999999998;0.080000000000000002;0.02;0.050000000000000003;97;5;86;8;0.25;0.52000000000000002;0.070000000000000007;0.16;0;2.133194332993753;64;65;24;2;   
2019_03_04 09:20;17;2;0;timed;19;110;1;47;44;23;52;0.13;0.27000000000000002;0.040000000000000001;0.56000000000000005;99;2;30;22;0.28999999999999998;0.5;0.11;0.10000000000000001;0;2.0833482468442526;64;65;24;2;   
2019_03_04 09:20;17;2;0;timed;20;11;0;17;36;0;0;0.14000000000000001;0.85999999999999999;0.0;0.0;19;41;34;95;0.88;0.02;0.050000000000000003;0.050000000000000003;1;2.049847048311676;64;65;24;2;   
2019_03_04 09:20;17;2;0;timed;21;50;1;15;20;0;0;0.82999999999999996;0.17000000000000001;0.0;0.0;97;18;88;87;0.56999999999999995;0.39000000000000001;0.01;0.029999999999999999;1;2.133332242882716;64;65;24;2;   
2019_03_04 09:20;17;2;0;timed;22;143;1;88;44;56;73;0.95999999999999996;0.02;0.01;0.01;20;3;87;32;0.19;0.40000000000000002;0.28000000000000003;0.13;0;1.8665699373118514;64;65;24;2;   
2019_03_04 09:20;17;2;0;timed;23;129;0;12;29;81;36;0.17999999999999999;0.79000000000000004;0.01;0.02;5;19;95;92;0.47999999999999998;0.26000000000000001;0.13;0.13;0;2.0331820814640196;64;65;24;2;   
2019_03_04 09:20;17;2;0;timed;24;70;1;66;55;69;50;0.22;0.29999999999999999;0.29999999999999999;0.17999999999999999;2;90;0;0;0.34000000000000002;0.66000000000000003;0.0;0.0;0;2.88314638525344;64;65;24;2;   
2019_03_04 09:20;17;2;0;timed;25;29;1;44;51;0;0;0.78000000000000003;0.22;0.0;0.0;74;1;68;82;0.69999999999999996;0.28000000000000003;0.01;0.01;0;2.3831556861528043;64;65;24;2;   
2019_03_04 09:20;17;2;0;timed;26;10;0;45;62;0;0;0.059999999999999998;0.93999999999999995;0.0;0.0;17;99;28;67;0.58999999999999997;0.34000000000000002;0.01;0.059999999999999998;1;2.216708713147;64;65;24;2;   
2019_03_04 09:20;17;2;0;timed;27;128;0;70;49;27;54;0.27000000000000002;0.53000000000000003;0.02;0.17999999999999999;72;97;6;20;0.29999999999999999;0.39000000000000001;0.22;0.0899999999999999;0;1.7332229412781999;64;65;24;2;   
2019_03_04 09:20;17;2;0;timed;28;102;1;40;56;53;17;0.28000000000000003;0.26000000000000001;0.14999999999999999;0.31;1;76;29;62;0.68000000000000005;0.23000000000000001;0.050000000000000003;0.039999999999999897;0;1.6998574075892066;64;65;24;2;   
2019_03_04 09:20;17;2;0;timed;29;75;1;67;80;36;81;0.81999999999999995;0.080000000000000002;0.059999999999999998;0.040000000000000001;3;97;0;0;0.32000000000000001;0.68000000000000005;0.0;0.0;0;2.0000301477430185;64;65;24;2;   
2019_03_04 09:20;17;2;0;timed;30;25;1;50;53;0;0;0.82999999999999996;0.17000000000000001;0.0;0.0;83;16;97;4;0.45000000000000001;0.29999999999999999;0.11;0.14000000000000001;0;2.9831663340792147;64;65;24;2;   
2019_03_04 09:20;17;2;0;timed;31;106;1;85;69;22;61;0.10000000000000001;0.58999999999999997;0.17999999999999999;0.13;20;79;91;84;0.55000000000000004;0.14999999999999999;0.26000000000000001;0.039999999999999897;1;2.899936753883594;64;65;24;2;   
2019_03_04 09:20;17;2;0;timed;32;76;1;39;62;9;28;0.01;0.51000000000000001;0.26000000000000001;0.22;77;7;0;0;0.57999999999999996;0.41999999999999998;0.0;0.0;0;1.849868408308339;64;65;24;2;   
2019_03_04 09:20;17;2;0;timed;33;63;1;56;78;42;36;0.93000000000000005;0.040000000000000001;0.01;0.0199999999999999;2;72;0;0;0.32000000000000001;0.68000000000000005;0.0;0.0;0;1.8666680778378577;64;65;24;2;   
2019_03_04 09:20;17;2;0;timed;34;66;1;89;23;27;15;0.070000000000000007;0.54000000000000004;0.17000000000000001;0.22;9;73;0;0;0.72999999999999998;0.27000000000000002;0.0;0.0;0;2.449881942720367;64;65;24;2;   
2019_03_04 09:20;17;2;0;timed;35;5;1;70;5;0;0;0.98999999999999999;0.01;0.0;0.0;92;87;47;1;0.44;0.02;0.16;0.38;0;2.583180509932845;64;65;24;2;   
2019_03_04 09:20;17;2;0;timed;36;127;0;89;26;62;79;0.02;0.28999999999999998;0.53000000000000003;0.16;96;6;60;13;0.53000000000000003;0.25;0.17000000000000001;0.050000000000000003;0;2.0666624331538515;64;65;24;2;   
2019_03_04 09:20;17;2;0;timed;37;32;1;19;81;0;0;0.93000000000000005;0.070000000000000007;0.0;0.0;1;65;41;68;0.45000000000000001;0.050000000000000003;0.059999999999999998;0.44;0;1.8499748875710793;64;65;24;2;   
2019_03_04 09:20;17;2;0;timed;38;137;1;71;22;28;17;0.25;0.46000000000000002;0.050000000000000003;0.23999999999999999;3;98;92;69;0.42999999999999999;0.23999999999999999;0.20000000000000001;0.13;0;2.083177944167801;64;65;24;2;   
2019_03_04 09:20;17;2;0;timed;39;72;1;63;82;51;61;0.01;0.96999999999999997;0.01;0.01;92;12;0;0;0.89000000000000001;0.11;0.0;0.0;0;2.016644120003548;64;65;24;2;   
2019_03_04 09:20;17;2;0;timed;40;23;0;54;40;0;0;0.93000000000000005;0.070000000000000007;0.0;0.0;36;23;71;86;0.02;0.41999999999999998;0.19;0.37;1;2.983281472800627;64;65;24;2;   
2019_03_04 09:20;17;2;0;timed;41;46;0;5;19;0;0;0.32000000000000001;0.68000000000000005;0.0;0.0;88;38;97;66;0.60999999999999999;0.20000000000000001;0.040000000000000001;0.14999999999999999;1;1.999796342373429;64;65;24;2;   
2019_03_04 09:20;17;2;0;timed;42;148;1;37;63;55;10;0.72999999999999998;0.070000000000000007;0.029999999999999999;0.17000000000000001;80;14;23;70;0.46999999999999997;0.10000000000000001;0.23000000000000001;0.20000000000000001;1;3.016500757863014;64;65;24;2;   
2019_03_04 09:20;17;2;0;timed;43;113;0;85;65;39;64;0.44;0.34000000000000002;0.13;0.089999999999999997;87;2;4;35;0.67000000000000004;0.17000000000000001;0.11;0.049999999999999899;0;2.966495594259868;64;65;24;2;   
2019_03_04 09:20;17;2;0;timed;44;22;1;32;55;0;0;0.39000000000000001;0.60999999999999999;0.0;0.0;93;72;59;22;0.20000000000000001;0.11;0.14000000000000001;0.55000000000000004;1;2.083199432452602;64;65;24;2;   
2019_03_04 09:20;17;2;0;timed;45;31;1;10;59;0;0;0.23999999999999999;0.76000000000000001;0.0;0.0;1;79;53;73;0.23000000000000001;0.58999999999999997;0.050000000000000003;0.13;0;1.3666331192844154;64;65;24;2;   
2019_03_04 09:20;17;2;0;timed;46;43;1;60;83;0;0;0.23000000000000001;0.77000000000000002;0.0;0.0;72;5;70;12;0.29999999999999999;0.40999999999999998;0.12;0.17000000000000001;0;1.3999499034312066;64;65;24;2;   
2019_03_04 09:20;17;2;0;timed;47;44;0;79;74;0;0;0.71999999999999997;0.28000000000000003;0.0;0.0;3;67;15;36;0.41999999999999998;0.53000000000000003;0.02;0.029999999999999999;0;2.0999971776582242;64;65;24;2;   
2019_03_04 09:20;17;2;0;timed;48;146;1;25;5;64;35;0.94999999999999996;0.02;0.01;0.02;47;97;12;79;0.20999999999999999;0.029999999999999999;0.02;0.73999999999999999;1;1.6665476792973095;64;65;24;2;   
2019_03_04 09:20;17;2;0;timed;49;78;1;74;36;34;3;0.14999999999999999;0.64000000000000001;0.13;0.080000000000000002;1;83;0;0;0.41999999999999998;0.57999999999999996;0.0;0.0;0;1.4333590551309499;64;65;24;2;   
2019_03_04 09:20;17;2;0;timed;50;85;0;31;22;82;50;0.11;0.69999999999999996;0.01;0.17999999999999999;3;99;0;0;0.62;0.38;0.0;0.0;0;1.3665555048819442;64;65;24;2;   
2019_03_04 09:20;17;2;0;timed;51;69;1;54;34;64;49;0.34000000000000002;0.25;0.20999999999999999;0.20000000000000001;14;98;0;0;0.62;0.38;0.0;0.0;0;1.7665172749775593;64;65;24;2;   
2019_03_04 09:20;17;2;0;timed;52;112;0;70;44;98;64;0.02;0.75;0.12;0.11;33;2;63;85;0.23999999999999999;0.31;0.080000000000000002;0.37;0;1.699901987762587;64;65;24;2;   
2019_03_04 09:20;17;2;0;timed;53;99;0;8;24;15;73;0.56000000000000005;0.35999999999999999;0.070000000000000007;0.0099999999999999499;88;12;0;0;0.52000000000000002;0.47999999999999998;0.0;0.0;1;2.4831256025540824;64;65;24;2;   
2019_03_04 09:20;17;2;0;timed;54;90;1;27;44;50;72;0.68000000000000005;0.28999999999999998;0.02;0.0099999999999999707;6;96;0;0;0.46999999999999997;0.53000000000000003;0.0;0.0;0;3.066663716036146;64;65;24;2;   
2019_03_04 09:20;17;2;0;timed;55;132;0;27;70;21;19;0.64000000000000001;0.23000000000000001;0.029999999999999999;0.10000000000000001;11;85;55;6;0.39000000000000001;0.46999999999999997;0.029999999999999999;0.11;0;1.9831891052472201;64;65;24;2;   
2019_03_04 09:20;17;2;0;timed;56;1;1;22;51;0;0;0.26000000000000001;0.73999999999999999;0.0;0.0;14;11;92;31;0.29999999999999999;0.40999999999999998;0.14999999999999999;0.14000000000000001;1;1.7998597167779735;64;65;24;2;   
2019_03_04 09:20;17;2;0;timed;57;62;0;12;45;16;50;0.20999999999999999;0.76000000000000001;0.02;0.01;92;15;0;0;0.20999999999999999;0.79000000000000004;0.0;0.0;1;2.716483567234718;64;65;24;2;   
2019_03_04 09:20;17;2;0;timed;58;126;0;16;55;51;42;0.68999999999999995;0.23999999999999999;0.01;0.060000000000000102;66;4;1;5;0.46999999999999997;0.38;0.089999999999999997;0.059999999999999998;0;1.833226854069835;64;65;24;2;   
2019_03_04 09:20;17;2;0;timed;59;7;0;49;29;0;0;0.95999999999999996;0.040000000000000001;0.0;0.0;23;99;64;25;0.68999999999999995;0.12;0.059999999999999998;0.13;1;1.5665248439854622;64;65;24;2;   
2019_03_04 09:20;17;2;0;timed;60;89;1;26;41;13;56;0.059999999999999998;0.40999999999999998;0.050000000000000003;0.47999999999999998;5;97;0;0;0.37;0.63;0.0;0.0;1;2.533120823815807;64;65;24;2;   
2019_03_04 09:20;17;2;0;timed;61;80;0;47;39;45;10;0.13;0.76000000000000001;0.059999999999999998;0.050000000000000003;2;87;0;0;0.48999999999999999;0.51000000000000001;0.0;0.0;0;1.716529109570729;64;65;24;2;   
2019_03_04 09:20;17;2;0;timed;62;45;1;97;87;0;0;0.71999999999999997;0.28000000000000003;0.0;0.0;96;11;14;4;0.25;0.029999999999999999;0.14000000000000001;0.57999999999999996;0;1.800286275271901;64;65;24;2;   
2019_03_04 09:20;17;2;0;timed;63;34;0;32;48;0;0;0.28000000000000003;0.71999999999999997;0.0;0.0;97;83;7;62;0.040000000000000001;0.54000000000000004;0.35999999999999999;0.059999999999999901;1;2.3000127005389004;64;65;24;2;   
2019_03_04 09:20;17;2;0;timed;64;53;1;26;70;50;80;0.29999999999999999;0.59999999999999998;0.040000000000000001;0.059999999999999998;89;1;0;0;0.40999999999999998;0.58999999999999997;0.0;0.0;0;1.9666768014399167;64;65;24;2;   
2019_03_04 09:20;17;2;0;timed;65;38;1;40;70;0;0;0.53000000000000003;0.46999999999999997;0.0;0.0;97;90;6;96;0.56999999999999995;0.070000000000000007;0.27000000000000002;0.089999999999999997;1;2.7498609675885746;64;65;24;2;   
2019_03_04 09:20;17;2;0;timed;66;114;0;57;39;79;97;0.77000000000000002;0.02;0.13;0.080000000000000002;92;36;6;1;0.54000000000000004;0.12;0.13;0.20999999999999999;0;2.79995785730398;64;65;24;2;   
2019_03_04 09:20;17;2;0;timed;67;93;0;87;81;73;98;0.80000000000000004;0.040000000000000001;0.14999999999999999;0.0099999999999999499;5;71;0;0;0.51000000000000001;0.48999999999999999;0.0;0.0;0;1.6665739783925346;64;65;24;2;   
2019_03_04 09:20;17;2;0;timed;68;103;1;38;49;89;50;0.89000000000000001;0.070000000000000007;0.01;0.029999999999999999;6;64;99;27;0.70999999999999996;0.17999999999999999;0.059999999999999998;0.050000000000000003;0;2.0164491218347393;64;65;24;2;   
2019_03_04 09:20;17;2;0;timed;69;121;0;42;51;47;70;0.41999999999999998;0.17000000000000001;0.23999999999999999;0.17000000000000001;21;76;48;9;0.14999999999999999;0.34000000000000002;0.40999999999999998;0.10000000000000001;0;2.3499617380234668;64;65;24;2;   
2019_03_04 09:20;17;2;0;timed;70;120;1;64;40;48;51;0.19;0.02;0.070000000000000007;0.71999999999999997;97;9;79;94;0.23000000000000001;0.54000000000000004;0.01;0.22;0;2.0332022868665263;64;65;24;2;   
2019_03_04 09:20;17;2;0;timed;71;36;1;70;17;0;0;0.33000000000000002;0.67000000000000004;0.0;0.0;84;1;12;88;0.22;0.27000000000000002;0.14000000000000001;0.37;0;2.1998509931759145;64;65;24;2;   
2019_03_04 09:20;17;2;0;timed;72;116;0;53;65;43;99;0.56999999999999995;0.37;0.050000000000000003;0.010000000000000101;57;72;11;87;0.67000000000000004;0.13;0.14999999999999999;0.050000000000000003;0;1.6666525549571816;64;65;24;2;   
2019_03_04 09:20;17;2;0;timed;73;82;1;78;66;30;27;0.28999999999999998;0.58999999999999997;0.080000000000000002;0.040000000000000001;90;6;0;0;0.82999999999999996;0.17000000000000001;0.0;0.0;0;1.8665692958702493;64;65;24;2;   
2019_03_04 09:20;17;2;0;timed;74;124;1;37;65;15;41;0.17999999999999999;0.45000000000000001;0.02;0.34999999999999998;40;7;98;30;0.070000000000000007;0.45000000000000001;0.45000000000000001;0.029999999999999898;0;1.6665733369509326;64;65;24;2;   
2019_03_04 09:20;17;2;0;timed;75;26;1;76;41;0;0;0.57999999999999996;0.41999999999999998;0.0;0.0;61;79;84;2;0.13;0.029999999999999999;0.67000000000000004;0.17000000000000001;0;2.3331046594939835;64;65;24;2;   
2019_03_04 09:20;17;3;0;control;1;66;0;89;23;27;15;0.070000000000000007;0.54000000000000004;0.17000000000000001;0.22;9;73;0;0;0.72999999999999998;0.27000000000000002;0.0;0.0;0;2.4056244142839205;64;65;24;2;   
2019_03_04 09:20;17;3;0;control;2;42;0;70;48;0;0;0.79000000000000004;0.20999999999999999;0.0;0.0;51;8;12;67;0.19;0.26000000000000001;0.28999999999999998;0.26000000000000001;0;2.9664721816507154;64;65;24;2;   
2019_03_04 09:20;17;3;0;control;3;77;0;24;17;99;41;0.17999999999999999;0.13;0.10000000000000001;0.58999999999999997;12;97;0;0;0.59999999999999998;0.40000000000000002;0.0;0.0;0;2.6330897780549094;64;65;24;2;   
2019_03_04 09:20;17;3;0;control;4;50;1;15;20;0;0;0.82999999999999996;0.17000000000000001;0.0;0.0;97;18;88;87;0.56999999999999995;0.39000000000000001;0.01;0.029999999999999999;1;2.583299818023079;64;65;24;2;   
2019_03_04 09:20;17;3;0;control;5;84;1;43;10;5;45;0.78000000000000003;0.13;0.059999999999999998;0.029999999999999999;87;1;0;0;0.57999999999999996;0.41999999999999998;0.0;0.0;0;1.7664903344411869;64;65;24;2;   
2019_03_04 09:20;17;3;0;control;6;80;0;47;39;45;10;0.13;0.76000000000000001;0.059999999999999998;0.050000000000000003;2;87;0;0;0.48999999999999999;0.51000000000000001;0.0;0.0;0;5.1330977960715245;64;65;24;2;   
2019_03_04 09:20;17;3;0;control;7;4;0;40;43;0;0;0.58999999999999997;0.40999999999999998;0.0;0.0;2;33;88;81;0.69999999999999996;0.14000000000000001;0.13;0.029999999999999999;0;3.866430103098537;64;65;24;2;   
2019_03_04 09:20;17;3;0;control;8;38;1;40;70;0;0;0.53000000000000003;0.46999999999999997;0.0;0.0;97;90;6;96;0.56999999999999995;0.070000000000000007;0.27000000000000002;0.089999999999999997;1;4.3499482677552805;64;65;24;2;   
2019_03_04 09:20;17;3;0;control;9;99;1;8;24;15;73;0.56000000000000005;0.35999999999999999;0.070000000000000007;0.0099999999999999499;88;12;0;0;0.52000000000000002;0.47999999999999998;0.0;0.0;1;3.1331561672341195;64;65;24;2;   
2019_03_04 09:20;17;3;0;control;10;113;0;85;65;39;64;0.44;0.34000000000000002;0.13;0.089999999999999997;87;2;4;35;0.67000000000000004;0.17000000000000001;0.11;0.049999999999999899;0;2.6831693488538804;64;65;24;2;   
2019_03_04 09:20;17;3;0;control;11;135;0;48;60;41;51;0.14000000000000001;0.40000000000000002;0.089999999999999997;0.37;94;1;85;65;0.64000000000000001;0.29999999999999999;0.01;0.050000000000000003;0;3.1331305095800417;64;65;24;2;   
2019_03_04 09:20;17;3;0;control;12;118;0;62;52;65;68;0.40999999999999998;0.44;0.10000000000000001;0.0500000000000001;79;20;14;37;0.56999999999999995;0.23999999999999999;0.14000000000000001;0.050000000000000003;1;8.866211692321485;64;65;24;2;   
2019_03_04 09:20;17;3;0;control;13;112;1;70;44;98;64;0.02;0.75;0.12;0.11;33;2;63;85;0.23999999999999999;0.31;0.080000000000000002;0.37;0;3.8664634580486563;64;65;24;2;   
2019_03_04 09:20;17;3;0;control;14;1;0;22;51;0;0;0.26000000000000001;0.73999999999999999;0.0;0.0;14;11;92;31;0.29999999999999999;0.40999999999999998;0.14999999999999999;0.14000000000000001;0;3.9332743848740392;64;65;24;2;   
2019_03_04 09:20;17;3;0;control;15;131;0;83;41;81;88;0.23999999999999999;0.58999999999999997;0.10000000000000001;0.070000000000000007;82;97;4;17;0.26000000000000001;0.46999999999999997;0.11;0.16;0;2.6165120472305716;64;65;24;2;   
2019_03_04 09:20;17;3;0;control;16;146;0;25;5;64;35;0.94999999999999996;0.02;0.01;0.02;47;97;12;79;0.20999999999999999;0.029999999999999999;0.02;0.73999999999999999;1;5.683047795718721;64;65;24;2;   
2019_03_04 09:20;17;3;0;control;17;127;1;89;26;62;79;0.02;0.28999999999999998;0.53000000000000003;0.16;96;6;60;13;0.53000000000000003;0.25;0.17000000000000001;0.050000000000000003;0;5.066406498057404;64;65;24;2;   
2019_03_04 09:20;17;3;0;control;18;107;1;52;48;13;63;0.68000000000000005;0.19;0.050000000000000003;0.079999999999999905;54;91;33;3;0.19;0.17999999999999999;0.33000000000000002;0.29999999999999999;0;5.4663926429243475;64;65;24;2;   
2019_03_04 09:20;17;3;0;control;19;19;1;22;53;0;0;0.13;0.87;0.0;0.0;4;93;96;65;0.46999999999999997;0.059999999999999998;0.26000000000000001;0.20999999999999999;0;2.8665186220041505;64;65;24;2;   
2019_03_04 09:20;17;3;0;control;20;3;0;53;40;0;0;0.31;0.68999999999999995;0.0;0.0;96;24;7;88;0.11;0.27000000000000002;0.58999999999999997;0.029999999999999999;0;2.4331935632644672;64;65;24;2;   
2019_03_04 09:20;17;3;0;control;21;93;1;87;81;73;98;0.80000000000000004;0.040000000000000001;0.14999999999999999;0.0099999999999999499;5;71;0;0;0.51000000000000001;0.48999999999999999;0.0;0.0;0;1.6332382717259861;64;65;24;2;   
2019_03_04 09:20;17;3;0;control;22;27;1;44;26;0;0;0.35999999999999999;0.64000000000000001;0.0;0.0;63;10;3;5;0.58999999999999997;0.19;0.14999999999999999;0.070000000000000007;0;5.716570161816435;64;65;24;2;   
2019_03_04 09:20;17;3;0;control;23;101;1;30;96;61;45;0.65000000000000002;0.14000000000000001;0.11;0.10000000000000001;3;98;63;89;0.75;0.19;0.040000000000000001;0.02;0;2.583344718917033;64;65;24;2;   
2019_03_04 09:20;17;3;0;control;24;39;1;14;33;0;0;0.78000000000000003;0.22;0.0;0.0;93;84;1;25;0.14000000000000001;0.23999999999999999;0.39000000000000001;0.23000000000000001;0;3.7663383128428904;64;65;24;2;   
2019_03_04 09:20;17;3;0;control;25;108;1;48;72;39;70;0.14000000000000001;0.66000000000000003;0.02;0.17999999999999999;81;44;98;8;0.59999999999999998;0.029999999999999999;0.050000000000000003;0.32000000000000001;0;2.933179451554679;64;65;24;2;   
2019_03_04 09:20;17;3;0;control;26;122;1;35;58;25;31;0.81999999999999995;0.070000000000000007;0.080000000000000002;0.029999999999999999;18;64;68;89;0.63;0.17000000000000001;0.11;0.089999999999999997;0;3.18321873983723;64;65;24;2;   
2019_03_04 09:20;17;3;0;control;27;59;1;56;47;83;90;0.31;0.12;0.54000000000000004;0.029999999999999898;10;98;0;0;0.46999999999999997;0.53000000000000003;0.0;0.0;0;3.26646788399421;64;65;24;2;   
2019_03_04 09:20;17;3;0;control;28;41;0;99;40;0;0;0.89000000000000001;0.11;0.0;0.0;1;67;52;46;0.51000000000000001;0.38;0.029999999999999999;0.080000000000000002;0;2.4664497312037383;64;65;24;2;   
2019_03_04 09:20;17;3;0;control;29;148;0;37;63;55;10;0.72999999999999998;0.070000000000000007;0.029999999999999999;0.17000000000000001;80;14;23;70;0.46999999999999997;0.10000000000000001;0.23000000000000001;0.20000000000000001;1;8.949617989607304;64;65;24;2;   
2019_03_04 09:20;17;3;0;control;30;100;0;27;14;59;52;0.02;0.95999999999999996;0.01;0.01;17;98;0;0;0.48999999999999999;0.51000000000000001;0.0;0.0;1;3.483234326861748;64;65;24;2;   
2019_03_04 09:20;17;3;0;control;31;22;1;32;55;0;0;0.39000000000000001;0.60999999999999999;0.0;0.0;93;72;59;22;0.20000000000000001;0.11;0.14000000000000001;0.55000000000000004;1;3.7499260738850353;64;65;24;2;   
2019_03_04 09:20;17;3;0;control;32;6;1;9;51;0;0;0.14999999999999999;0.84999999999999998;0.0;0.0;6;40;50;73;0.42999999999999999;0.26000000000000001;0.059999999999999998;0.25;0;2.5499791852284943;64;65;24;2;   
2019_03_04 09:20;17;3;0;control;33;45;1;97;87;0;0;0.71999999999999997;0.28000000000000003;0.0;0.0;96;11;14;4;0.25;0.029999999999999999;0.14000000000000001;0.57999999999999996;0;2.23320113227237;64;65;24;2;   
2019_03_04 09:20;17;3;0;control;34;111;0;51;36;48;27;0.93000000000000005;0.01;0.01;0.049999999999999899;31;78;30;53;0.55000000000000004;0.16;0.029999999999999999;0.26000000000000001;0;7.666303290144697;64;65;24;2;   
2019_03_04 09:20;17;3;0;control;35;15;1;77;81;0;0;0.28000000000000003;0.71999999999999997;0.0;0.0;98;14;87;18;0.55000000000000004;0.23000000000000001;0.16;0.059999999999999901;0;1.9332670082985715;64;65;24;2;   
2019_03_04 09:20;17;3;0;control;36;124;1;37;65;15;41;0.17999999999999999;0.45000000000000001;0.02;0.34999999999999998;40;7;98;30;0.070000000000000007;0.45000000000000001;0.45000000000000001;0.029999999999999898;0;5.1997358544540475;64;65;24;2;   
2019_03_04 09:20;17;3;0;control;37;62;0;12;45;16;50;0.20999999999999999;0.76000000000000001;0.02;0.01;92;15;0;0;0.20999999999999999;0.79000000000000004;0.0;0.0;0;6.4996664505006265;64;65;24;2;   
2019_03_04 09:20;17;3;0;control;38;24;0;35;27;0;0;0.070000000000000007;0.93000000000000005;0.0;0.0;62;3;81;95;0.35999999999999999;0.55000000000000004;0.01;0.080000000000000002;0;4.549961545591486;64;65;24;2;   
2019_03_04 09:20;17;3;0;control;39;14;1;36;40;0;0;0.54000000000000004;0.46000000000000002;0.0;0.0;99;70;1;11;0.16;0.089999999999999997;0.080000000000000002;0.67000000000000004;0;3.7499684090139453;64;65;24;2;   
2019_03_04 09:20;17;3;0;control;40;71;1;68;55;36;51;0.20000000000000001;0.75;0.02;0.029999999999999999;38;81;0;0;0.52000000000000002;0.47999999999999998;0.0;0.0;1;2.3498446749786126;64;65;24;2;   
2019_03_04 09:20;17;3;0;control;41;138;1;8;20;43;51;0.38;0.5;0.02;0.10000000000000001;72;82;70;1;0.39000000000000001;0.050000000000000003;0.070000000000000007;0.48999999999999999;0;3.266348575903976;64;65;24;2;   
2019_03_04 09:20;17;3;0;control;42;49;0;21;30;0;0;0.53000000000000003;0.46999999999999997;0.0;0.0;93;99;89;25;0.44;0.02;0.11;0.42999999999999999;1;4.36642817877464;64;65;24;2;   
2019_03_04 09:20;17;3;0;control;43;109;1;75;28;16;56;0.19;0.070000000000000007;0.059999999999999998;0.68000000000000005;3;50;98;44;0.5;0.02;0.34999999999999998;0.13;0;3.716430648324149;64;65;24;2;   
2019_03_04 09:20;17;3;0;control;44;136;0;29;67;14;75;0.46000000000000002;0.29999999999999999;0.20999999999999999;0.0300000000000001;70;86;1;85;0.31;0.39000000000000001;0.27000000000000002;0.029999999999999898;0;4.6997974328232885;64;65;24;2;   
2019_03_04 09:20;17;3;0;control;45;85;1;31;22;82;50;0.11;0.69999999999999996;0.01;0.17999999999999999;3;99;0;0;0.62;0.38;0.0;0.0;0;3.5332356418166455;64;65;24;2;   
2019_03_04 09:20;17;3;0;control;46;88;1;77;13;12;7;0.12;0.19;0.66000000000000003;0.029999999999999898;94;2;0;0;0.40999999999999998;0.58999999999999997;0.0;0.0;1;3.5666839214386528;64;65;24;2;   
2019_03_04 09:20;17;3;0;control;47;17;1;81;52;0;0;0.059999999999999998;0.93999999999999995;0.0;0.0;34;3;69;41;0.01;0.22;0.75;0.02;0;4.21639729337403;64;65;24;2;   
2019_03_04 09:20;17;3;0;control;48;29;0;44;51;0;0;0.78000000000000003;0.22;0.0;0.0;74;1;68;82;0.69999999999999996;0.28000000000000003;0.01;0.01;0;4.083165115340762;64;65;24;2;   
2019_03_04 09:20;17;3;0;control;49;86;0;56;30;57;88;0.20000000000000001;0.35999999999999999;0.080000000000000002;0.35999999999999999;98;2;0;0;0.77000000000000002;0.23000000000000001;0.0;0.0;1;7.416509032455906;64;65;24;2;   
2019_03_04 09:20;17;3;0;control;50;126;1;16;55;51;42;0.68999999999999995;0.23999999999999999;0.01;0.060000000000000102;66;4;1;5;0.46999999999999997;0.38;0.089999999999999997;0.059999999999999998;0;2.2664964281339053;64;65;24;2;   
2019_03_04 09:20;17;3;0;control;51;34;0;32;48;0;0;0.28000000000000003;0.71999999999999997;0.0;0.0;97;83;7;62;0.040000000000000001;0.54000000000000004;0.35999999999999999;0.059999999999999901;0;2.1831956479491055;64;65;24;2;   
2019_03_04 09:20;17;3;0;control;52;87;1;10;30;63;4;0.56999999999999995;0.12;0.16;0.14999999999999999;86;2;0;0;0.42999999999999999;0.56999999999999995;0.0;0.0;0;2.0333886255771176;64;65;24;2;   
2019_03_04 09:20;17;3;0;control;53;145;0;91;89;90;74;0.57999999999999996;0.29999999999999999;0.11;0.010000000000000101;2;75;84;39;0.32000000000000001;0.27000000000000002;0.39000000000000001;0.0199999999999999;0;1.5166742677465663;64;65;24;2;   
2019_03_04 09:20;17;3;0;control;54;52;1;71;51;10;54;0.22;0.12;0.19;0.46999999999999997;91;1;0;0;0.29999999999999999;0.69999999999999996;0.0;0.0;0;2.7167035816160023;64;65;24;2;   
2019_03_04 09:20;17;3;0;control;55;139;0;44;31;16;8;0.79000000000000004;0.070000000000000007;0.13;0.0099999999999999499;92;58;2;88;0.55000000000000004;0.070000000000000007;0.34000000000000002;0.039999999999999897;0;8.566246137721464;64;65;24;2;   
2019_03_04 09:20;17;3;0;control;56;54;0;44;79;78;52;0.79000000000000004;0.19;0.01;0.0099999999999999603;96;1;0;0;0.28000000000000003;0.71999999999999997;0.0;0.0;0;3.016722375847621;64;65;24;2;   
2019_03_04 09:20;17;3;0;control;57;117;0;65;85;92;41;0.23000000000000001;0.17999999999999999;0.54000000000000004;0.050000000000000003;99;93;10;13;0.64000000000000001;0.16;0.01;0.19;0;6.166368075721039;64;65;24;2;   
2019_03_04 09:20;17;3;0;control;58;61;1;43;18;39;70;0.75;0.089999999999999997;0.089999999999999997;0.070000000000000007;16;66;0;0;0.64000000000000001;0.35999999999999999;0.0;0.0;0;2.8166465574804533;64;65;24;2;   
2019_03_04 09:20;17;3;0;control;59;82;1;78;66;30;27;0.28999999999999998;0.58999999999999997;0.080000000000000002;0.040000000000000001;90;6;0;0;0.82999999999999996;0.17000000000000001;0.0;0.0;0;3.799882487945524;64;65;24;2;   
2019_03_04 09:20;17;3;0;control;60;110;0;47;44;23;52;0.13;0.27000000000000002;0.040000000000000001;0.56000000000000005;99;2;30;22;0.28999999999999998;0.5;0.11;0.10000000000000001;0;2.6331394897588325;64;65;24;2;   
2019_03_04 09:20;17;3;0;control;61;30;0;33;30;0;0;0.71999999999999997;0.28000000000000003;0.0;0.0;9;88;1;14;0.55000000000000004;0.39000000000000001;0.01;0.049999999999999899;0;2.3166228241511817;64;65;24;2;   
2019_03_04 09:20;17;3;0;control;62;56;1;28;84;37;41;0.68000000000000005;0.28000000000000003;0.02;0.0199999999999999;6;95;0;0;0.72999999999999998;0.27000000000000002;0.0;0.0;0;2.483298150275459;64;65;24;2;   
2019_03_04 09:20;17;3;0;control;63;25;1;50;53;0;0;0.82999999999999996;0.17000000000000001;0.0;0.0;83;16;97;4;0.45000000000000001;0.29999999999999999;0.11;0.14000000000000001;0;2.7331248007526483;64;65;24;2;   
2019_03_04 09:20;17;3;0;control;64;133;1;59;88;60;36;0.67000000000000004;0.070000000000000007;0.12;0.14000000000000001;7;91;66;61;0.25;0.68999999999999995;0.01;0.0500000000000001;0;5.866379429232438;64;65;24;2;   
2019_03_04 09:20;17;3;0;control;65;144;1;99;93;90;71;0.65000000000000002;0.32000000000000001;0.01;0.02;97;14;48;73;0.23000000000000001;0.46000000000000002;0.13;0.17999999999999999;0;3.0999121866802852;64;65;24;2;   
2019_03_04 09:20;17;3;0;control;66;44;0;79;74;0;0;0.71999999999999997;0.28000000000000003;0.0;0.0;3;67;15;36;0.41999999999999998;0.53000000000000003;0.02;0.029999999999999999;0;2.433315757840319;64;65;24;2;   
2019_03_04 09:20;17;3;0;control;67;106;1;85;69;22;61;0.10000000000000001;0.58999999999999997;0.17999999999999999;0.13;20;79;91;84;0.55000000000000004;0.14999999999999999;0.26000000000000001;0.039999999999999897;0;3.19995971748358;64;65;24;2;   
2019_03_04 09:20;17;3;0;control;68;125;1;37;41;10;35;0.91000000000000003;0.040000000000000001;0.029999999999999999;0.02;7;13;91;93;0.26000000000000001;0.39000000000000001;0.16;0.19;0;5.433222428124736;64;65;24;2;   
2019_03_04 09:20;17;3;0;control;69;36;0;70;17;0;0;0.33000000000000002;0.67000000000000004;0.0;0.0;84;1;12;88;0.22;0.27000000000000002;0.14000000000000001;0.37;0;1.6165296868675796;64;65;24;2;   
2019_03_04 09:20;17;3;0;control;70;35;1;33;37;0;0;0.88;0.12;0.0;0.0;63;4;79;98;0.16;0.46000000000000002;0.17000000000000001;0.20999999999999999;0;3.5165899182097746;64;65;24;2;   
2019_03_04 09:20;17;3;0;control;71;128;1;70;49;27;54;0.27000000000000002;0.53000000000000003;0.02;0.17999999999999999;72;97;6;20;0.29999999999999999;0.39000000000000001;0.22;0.0899999999999999;0;6.733133780930984;64;65;24;2;   
2019_03_04 09:20;17;3;0;control;72;114;0;57;39;79;97;0.77000000000000002;0.02;0.13;0.080000000000000002;92;36;6;1;0.54000000000000004;0.12;0.13;0.20999999999999999;0;3.233153344891889;64;65;24;2;   
2019_03_04 09:20;17;3;0;control;73;33;0;27;70;0;0;0.88;0.12;0.0;0.0;93;3;77;16;0.080000000000000002;0.40000000000000002;0.5;0.02;0;2.483142921470062;64;65;24;2;   
2019_03_04 09:20;17;3;0;control;74;9;0;61;69;0;0;0.93999999999999995;0.060000000000000102;0.0;0.0;18;93;72;16;0.40999999999999998;0.34999999999999998;0.089999999999999997;0.14999999999999999;0;3.4997886450773876;64;65;24;2;   
2019_03_04 09:20;17;3;0;control;75;63;1;56;78;42;36;0.93000000000000005;0.040000000000000001;0.01;0.0199999999999999;2;72;0;0;0.32000000000000001;0.68000000000000005;0.0;0.0;0;1.6832020623623976;64;65;24;2;   
2019_03_04 09:20;17;4;0;timed;1;74;0;66;47;52;44;0.41999999999999998;0.26000000000000001;0.17999999999999999;0.14000000000000001;17;99;0;0;0.47999999999999998;0.52000000000000002;0.0;0.0;1;1.9637479802613598;64;65;24;2;   
2019_03_04 09:20;17;4;0;timed;2;19;0;22;53;0;0;0.13;0.87;0.0;0.0;4;93;96;65;0.46999999999999997;0.059999999999999998;0.26000000000000001;0.20999999999999999;1;2.3165189106530306;64;65;24;2;   
2019_03_04 09:20;17;4;0;timed;3;125;1;37;41;10;35;0.91000000000000003;0.040000000000000001;0.029999999999999999;0.02;7;13;91;93;0.26000000000000001;0.39000000000000001;0.16;0.19;0;2.133258477128493;64;65;24;2;   
2019_03_04 09:20;17;4;0;timed;4;27;1;44;26;0;0;0.35999999999999999;0.64000000000000001;0.0;0.0;63;10;3;5;0.58999999999999997;0.19;0.14999999999999999;0.070000000000000007;0;2.516504606511262;64;65;24;2;   
2019_03_04 09:20;17;4;0;timed;5;14;1;36;40;0;0;0.54000000000000004;0.46000000000000002;0.0;0.0;99;70;1;11;0.16;0.089999999999999997;0.080000000000000002;0.67000000000000004;0;2.31653847461439;64;65;24;2;   
2019_03_04 09:20;17;4;0;timed;6;58;1;37;58;76;34;0.20999999999999999;0.57999999999999996;0.19;0.020000000000000101;86;5;0;0;0.47999999999999998;0.52000000000000002;0.0;0.0;0;2.283182562545335;64;65;24;2;   
2019_03_04 09:20;17;4;0;timed;7;87;1;10;30;63;4;0.56999999999999995;0.12;0.16;0.14999999999999999;86;2;0;0;0.42999999999999999;0.56999999999999995;0.0;0.0;0;1.866625421988374;64;65;24;2;   
2019_03_04 09:20;17;4;0;timed;8;15;0;77;81;0;0;0.28000000000000003;0.71999999999999997;0.0;0.0;98;14;87;18;0.55000000000000004;0.23000000000000001;0.16;0.059999999999999901;0;2.2165246194808788;64;65;24;2;   
2019_03_04 09:20;17;4;0;timed;9;96;1;51;54;39;7;0.17000000000000001;0.26000000000000001;0.10000000000000001;0.46999999999999997;24;96;0;0;0.28000000000000003;0.71999999999999997;0.0;0.0;1;2.3499097812746186;64;65;24;2;   
2019_03_04 09:20;17;4;0;timed;10;8;0;50;36;0;0;0.080000000000000002;0.92000000000000004;0.0;0.0;6;19;84;29;0.54000000000000004;0.070000000000000007;0.17000000000000001;0.22;0;2.0833440774758856;64;65;24;2;   
2019_03_04 09:20;17;4;0;timed;11;35;0;33;37;0;0;0.88;0.12;0.0;0.0;63;4;79;98;0.16;0.46000000000000002;0.17000000000000001;0.20999999999999999;0;1.516568750645547;64;65;24;2;   
2019_03_04 09:20;17;4;0;timed;12;145;1;91;89;90;74;0.57999999999999996;0.29999999999999999;0.11;0.010000000000000101;2;75;84;39;0.32000000000000001;0.27000000000000002;0.39000000000000001;0.0199999999999999;0;2.033267393162987;64;65;24;2;   
2019_03_04 09:20;17;4;0;timed;13;97;1;17;33;32;74;0.94999999999999996;0.01;0.029999999999999999;0.01;76;23;0;0;0.33000000000000002;0.67000000000000004;0.0;0.0;1;1.949795348139105;64;65;24;2;   
2019_03_04 09:20;17;4;0;timed;14;134;1;57;48;50;55;0.02;0.62;0.17999999999999999;0.17999999999999999;80;96;15;18;0.23999999999999999;0.35999999999999999;0.33000000000000002;0.070000000000000007;0;2.6335525779850286;64;65;24;2;   
2019_03_04 09:20;17;4;0;timed;15;20;0;44;40;0;0;0.91000000000000003;0.089999999999999997;0.0;0.0;29;5;80;99;0.25;0.40000000000000002;0.26000000000000001;0.089999999999999997;0;1.9498630202010645;64;65;24;2;   
2019_03_04 09:20;17;4;0;timed;16;118;0;62;52;65;68;0.40999999999999998;0.44;0.10000000000000001;0.0500000000000001;79;20;14;37;0.56999999999999995;0.23999999999999999;0.14000000000000001;0.050000000000000003;0;2.7997538789563805;64;65;24;2;   
2019_03_04 09:20;17;4;0;timed;17;21;0;64;28;0;0;0.080000000000000002;0.92000000000000004;0.0;0.0;50;1;88;13;0.57999999999999996;0.13;0.02;0.27000000000000002;0;2.6331802212844195;64;65;24;2;   
2019_03_04 09:20;17;4;0;timed;18;67;1;44;42;8;89;0.88;0.070000000000000007;0.029999999999999999;0.02;10;63;0;0;0.39000000000000001;0.60999999999999999;0.0;0.0;1;2.449880339117044;64;65;24;2;   
2019_03_04 09:20;17;4;0;timed;19;94;1;84;86;93;39;0.78000000000000003;0.20000000000000001;0.01;0.0099999999999999603;9;83;0;0;0.46999999999999997;0.53000000000000003;0.0;0.0;0;1.8166285971228717;64;65;24;2;   
2019_03_04 09:20;17;4;0;timed;20;12;1;53;68;0;0;0.31;0.68999999999999995;0.0;0.0;69;54;97;29;0.25;0.20999999999999999;0.20000000000000001;0.34000000000000002;1;1.733235770104784;64;65;24;2;   
2019_03_04 09:20;17;4;0;timed;21;136;0;29;67;14;75;0.46000000000000002;0.29999999999999999;0.20999999999999999;0.0300000000000001;70;86;1;85;0.31;0.39000000000000001;0.27000000000000002;0.029999999999999898;0;1.8998796656037484;64;65;24;2;   
2019_03_04 09:20;17;4;0;timed;22;109;1;75;28;16;56;0.19;0.070000000000000007;0.059999999999999998;0.68000000000000005;3;50;98;44;0.5;0.02;0.34999999999999998;0.13;0;2.4664981600258216;64;65;24;2;   
2019_03_04 09:20;17;4;0;timed;23;42;0;70;48;0;0;0.79000000000000004;0.20999999999999999;0.0;0.0;51;8;12;67;0.19;0.26000000000000001;0.28999999999999998;0.26000000000000001;0;1.800017190627841;64;65;24;2;   
2019_03_04 09:20;17;4;0;timed;24;41;0;99;40;0;0;0.89000000000000001;0.11;0.0;0.0;1;67;52;46;0.51000000000000001;0.38;0.029999999999999999;0.080000000000000002;0;2.0665296547954313;64;65;24;2;   
2019_03_04 09:20;17;4;0;timed;25;149;1;14;89;73;53;0.93999999999999995;0.01;0.01;0.040000000000000001;97;45;6;13;0.34000000000000002;0.01;0.40999999999999998;0.23999999999999999;0;1.9332317290241008;64;65;24;2;   
2019_03_04 09:20;17;4;0;timed;26;81;0;67;38;52;65;0.27000000000000002;0.35999999999999999;0.01;0.35999999999999999;2;77;0;0;0.14000000000000001;0.85999999999999999;0.0;0.0;0;1.9834706979972907;64;65;24;2;   
2019_03_04 09:20;17;4;0;timed;27;95;0;93;88;68;85;0.83999999999999997;0.14000000000000001;0.01;0.01;2;82;0;0;0.41999999999999998;0.57999999999999996;0.0;0.0;0;1.7498673820023214;64;65;24;2;   
2019_03_04 09:20;17;4;0;timed;28;131;1;83;41;81;88;0.23999999999999999;0.58999999999999997;0.10000000000000001;0.070000000000000007;82;97;4;17;0.26000000000000001;0.46999999999999997;0.11;0.16;0;1.7832630634343332;64;65;24;2;   
2019_03_04 09:20;17;4;0;timed;29;4;1;40;43;0;0;0.58999999999999997;0.40999999999999998;0.0;0.0;2;33;88;81;0.69999999999999996;0.14000000000000001;0.13;0.029999999999999999;0;2.6164600904817235;64;65;24;2;   
2019_03_04 09:20;17;4;0;timed;30;48;0;13;32;0;0;0.90000000000000002;0.10000000000000001;0.0;0.0;24;99;84;94;0.62;0.14999999999999999;0.20000000000000001;0.029999999999999999;1;2.2165586158721453;64;65;24;2;   
2019_03_04 09:20;17;4;0;timed;31;144;0;99;93;90;71;0.65000000000000002;0.32000000000000001;0.01;0.02;97;14;48;73;0.23000000000000001;0.46000000000000002;0.13;0.17999999999999999;0;1.7665650623580404;64;65;24;2;   
2019_03_04 09:20;17;4;0;timed;32;65;1;75;64;59;52;0.59999999999999998;0.22;0.14000000000000001;0.040000000000000001;1;99;0;0;0.35999999999999999;0.64000000000000001;0.0;0.0;0;1.9833600493652739;64;65;24;2;   
2019_03_04 09:20;17;4;0;timed;33;101;1;30;96;61;45;0.65000000000000002;0.14000000000000001;0.11;0.10000000000000001;3;98;63;89;0.75;0.19;0.040000000000000001;0.02;0;2.6331645059713082;64;65;24;2;   
2019_03_04 09:20;17;4;0;timed;34;18;1;68;50;0;0;0.029999999999999999;0.96999999999999997;0.0;0.0;34;64;15;89;0.65000000000000002;0.029999999999999999;0.050000000000000003;0.27000000000000002;1;2.699825656242865;64;65;24;2;   
2019_03_04 09:20;17;4;0;timed;35;79;1;52;46;29;22;0.17999999999999999;0.51000000000000001;0.23999999999999999;0.070000000000000104;93;14;0;0;0.45000000000000001;0.55000000000000004;0.0;0.0;0;2.24995590090748;64;65;24;2;   
2019_03_04 09:20;17;4;0;timed;36;133;1;59;88;60;36;0.67000000000000004;0.070000000000000007;0.12;0.14000000000000001;7;91;66;61;0.25;0.68999999999999995;0.01;0.0500000000000001;0;3.0665043178628366;64;65;24;2;   
2019_03_04 09:20;17;4;0;timed;37;47;0;2;40;0;0;0.45000000000000001;0.55000000000000004;0.0;0.0;93;89;11;56;0.58999999999999997;0.070000000000000007;0.28000000000000003;0.059999999999999998;1;1.8500024695490538;64;65;24;2;   
2019_03_04 09:20;17;4;0;timed;38;98;0;27;10;31;79;0.23000000000000001;0.67000000000000004;0.070000000000000007;0.029999999999999999;25;99;0;0;0.38;0.62;0.0;0.0;1;1.933204147046581;64;65;24;2;   
2019_03_04 09:20;17;4;0;timed;39;30;0;33;30;0;0;0.71999999999999997;0.28000000000000003;0.0;0.0;9;88;1;14;0.55000000000000004;0.39000000000000001;0.01;0.049999999999999899;0;1.9165269928139423;64;65;24;2;   
2019_03_04 09:20;17;4;0;timed;40;55;0;74;55;47;48;0.60999999999999999;0.31;0.070000000000000007;0.01;97;6;0;0;0.42999999999999999;0.56999999999999995;0.0;0.0;0;2.7665403668656836;64;65;24;2;   
2019_03_04 09:20;17;4;0;timed;41;122;0;35;58;25;31;0.81999999999999995;0.070000000000000007;0.080000000000000002;0.029999999999999999;18;64;68;89;0.63;0.17000000000000001;0.11;0.089999999999999997;1;2.049898684339496;64;65;24;2;   
2019_03_04 09:20;17;4;0;timed;42;123;0;26;24;51;92;0.72999999999999998;0.16;0.070000000000000007;0.040000000000000001;6;90;82;49;0.64000000000000001;0.25;0.050000000000000003;0.059999999999999998;0;1.6166477120750642;64;65;24;2;   
2019_03_04 09:20;17;4;0;timed;43;52;0;71;51;10;54;0.22;0.12;0.19;0.46999999999999997;91;1;0;0;0.29999999999999999;0.69999999999999996;0.0;0.0;0;1.7999851185604712;64;65;24;2;   
2019_03_04 09:20;17;4;0;timed;44;60;1;64;59;57;96;0.83999999999999997;0.13;0.02;0.01;83;6;0;0;0.54000000000000004;0.46000000000000002;0.0;0.0;0;1.4166703549544764;64;65;24;2;   
2019_03_04 09:20;17;4;0;timed;45;91;1;74;81;86;48;0.93000000000000005;0.02;0.01;0.039999999999999897;7;64;0;0;0.13;0.87;0.0;0.0;0;1.64989938992494;64;65;24;2;   
2019_03_04 09:20;17;4;0;timed;46;40;1;45;49;0;0;0.68999999999999995;0.31;0.0;0.0;2;92;65;73;0.23999999999999999;0.59999999999999998;0.11;0.050000000000000003;0;1.8166997971120509;64;65;24;2;   
2019_03_04 09:20;17;4;0;timed;47;117;1;65;85;92;41;0.23000000000000001;0.17999999999999999;0.54000000000000004;0.050000000000000003;99;93;10;13;0.64000000000000001;0.16;0.01;0.19;0;2.5332956165825635;64;65;24;2;   
2019_03_04 09:20;17;4;0;timed;48;108;1;48;72;39;70;0.14000000000000001;0.66000000000000003;0.02;0.17999999999999999;81;44;98;8;0.59999999999999998;0.029999999999999999;0.050000000000000003;0.32000000000000001;0;2.7331321773276613;64;65;24;2;   
2019_03_04 09:20;17;4;0;timed;49;111;1;51;36;48;27;0.93000000000000005;0.01;0.01;0.049999999999999899;31;78;30;53;0.55000000000000004;0.16;0.029999999999999999;0.26000000000000001;0;2.3665311301106158;64;65;24;2;   
2019_03_04 09:20;17;4;0;timed;50;16;1;64;53;0;0;0.65000000000000002;0.34999999999999998;0.0;0.0;29;17;81;46;0.10000000000000001;0.01;0.44;0.45000000000000001;0;1.733316591714356;64;65;24;2;   
2019_03_04 09:20;17;4;0;timed;51;130;1;37;79;23;95;0.94999999999999996;0.029999999999999999;0.01;0.01;94;4;58;49;0.46000000000000002;0.5;0.029999999999999999;0.01;0;1.9998893513679832;64;65;24;2;   
2019_03_04 09:20;17;4;0;timed;52;54;1;44;79;78;52;0.79000000000000004;0.19;0.01;0.0099999999999999603;96;1;0;0;0.28000000000000003;0.71999999999999997;0.0;0.0;0;2.0664940548008417;64;65;24;2;   
2019_03_04 09:20;17;4;0;timed;53;88;1;77;13;12;7;0.12;0.19;0.66000000000000003;0.029999999999999898;94;2;0;0;0.40999999999999998;0.58999999999999997;0.0;0.0;0;2.6497553863432586;64;65;24;2;   
2019_03_04 09:20;17;4;0;timed;54;3;1;53;40;0;0;0.31;0.68999999999999995;0.0;0.0;96;24;7;88;0.11;0.27000000000000002;0.58999999999999997;0.029999999999999999;0;1.9833722367511655;64;65;24;2;   
2019_03_04 09:20;17;4;0;timed;55;57;1;52;35;23;47;0.22;0.68000000000000005;0.040000000000000001;0.059999999999999998;71;7;0;0;0.28999999999999998;0.70999999999999996;0.0;0.0;0;2.4165029387636423;64;65;24;2;   
2019_03_04 09:20;17;4;0;timed;56;39;1;14;33;0;0;0.78000000000000003;0.22;0.0;0.0;93;84;1;25;0.14000000000000001;0.23999999999999999;0.39000000000000001;0.23000000000000001;0;2.349773795710007;64;65;24;2;   
2019_03_04 09:20;17;4;0;timed;57;83;0;17;12;7;41;0.65000000000000002;0.19;0.089999999999999997;0.070000000000000007;6;84;0;0;0.72999999999999998;0.27000000000000002;0.0;0.0;NA;3.416477601830593;64;65;24;2;   
2019_03_04 09:20;17;4;0;timed;58;17;0;81;52;0;0;0.059999999999999998;0.93999999999999995;0.0;0.0;34;3;69;41;0.01;0.22;0.75;0.02;0;1.7165550879444709;64;65;24;2;   
2019_03_04 09:20;17;4;0;timed;59;9;0;61;69;0;0;0.93999999999999995;0.060000000000000102;0.0;0.0;18;93;72;16;0.40999999999999998;0.34999999999999998;0.089999999999999997;0.14999999999999999;0;1.5498877798368085;64;65;24;2;   
2019_03_04 09:20;17;4;0;timed;60;141;1;93;28;60;91;0.81999999999999995;0.10000000000000001;0.01;0.070000000000000007;14;85;7;89;0.45000000000000001;0.070000000000000007;0.23999999999999999;0.23999999999999999;0;2.266641714598336;64;65;24;2;   
2019_03_04 09:20;17;4;0;timed;61;150;1;25;21;78;38;0.84999999999999998;0.059999999999999998;0.050000000000000003;0.040000000000000001;31;43;64;95;0.059999999999999998;0.45000000000000001;0.13;0.35999999999999999;0;2.499850223445719;64;65;24;2;   
2019_03_04 09:20;17;4;0;timed;62;51;1;52;23;43;16;0.60999999999999999;0.20999999999999999;0.01;0.17000000000000001;92;7;0;0;0.14999999999999999;0.84999999999999998;0.0;0.0;0;2.0498268429087148;64;65;24;2;   
2019_03_04 09:20;17;4;0;timed;63;49;0;21;30;0;0;0.53000000000000003;0.46999999999999997;0.0;0.0;93;99;89;25;0.44;0.02;0.11;0.42999999999999999;1;2.216506979843871;64;65;24;2;   
2019_03_04 09:20;17;4;0;timed;64;84;1;43;10;5;45;0.78000000000000003;0.13;0.059999999999999998;0.029999999999999999;87;1;0;0;0.57999999999999996;0.41999999999999998;0.0;0.0;0;1.883262486136573;64;65;24;2;   
2019_03_04 09:20;17;4;0;timed;65;6;1;9;51;0;0;0.14999999999999999;0.84999999999999998;0.0;0.0;6;40;50;73;0.42999999999999999;0.26000000000000001;0.059999999999999998;0.25;1;2.149855130472133;64;65;24;2;   
2019_03_04 09:20;17;4;0;timed;66;138;1;8;20;43;51;0.38;0.5;0.02;0.10000000000000001;72;82;70;1;0.39000000000000001;0.050000000000000003;0.070000000000000007;0.48999999999999999;0;2.1665390198390924;64;65;24;2;   
2019_03_04 09:20;17;4;0;timed;67;107;0;52;48;13;63;0.68000000000000005;0.19;0.050000000000000003;0.079999999999999905;54;91;33;3;0.19;0.17999999999999999;0.33000000000000002;0.29999999999999999;0;2.3998504800229057;64;65;24;2;   
2019_03_04 09:20;17;4;0;timed;68;56;0;28;84;37;41;0.68000000000000005;0.28000000000000003;0.02;0.0199999999999999;6;95;0;0;0.72999999999999998;0.27000000000000002;0.0;0.0;0;2.9832375340688486;64;65;24;2;   
2019_03_04 09:20;17;4;0;timed;69;147;1;39;43;76;28;0.14000000000000001;0.10000000000000001;0.10000000000000001;0.66000000000000003;6;31;68;85;0.27000000000000002;0.20000000000000001;0.22;0.31;0;1.4665921311825514;64;65;24;2;   
2019_03_04 09:20;17;4;0;timed;70;115;1;50;28;61;79;0.83999999999999997;0.040000000000000001;0.059999999999999998;0.059999999999999998;1;26;97;55;0.45000000000000001;0.080000000000000002;0.40999999999999998;0.060000000000000102;0;2.233251806138469;64;65;24;2;   
2019_03_04 09:20;17;4;0;timed;71;2;1;59;32;0;0;0.080000000000000002;0.92000000000000004;0.0;0.0;33;38;85;1;0.28999999999999998;0.050000000000000003;0.070000000000000007;0.58999999999999997;0;1.7331668151600752;64;65;24;2;   
2019_03_04 09:20;17;4;0;timed;72;100;0;27;14;59;52;0.02;0.95999999999999996;0.01;0.01;17;98;0;0;0.48999999999999999;0.51000000000000001;0.0;0.0;1;1.8832185474047947;64;65;24;2;   
2019_03_04 09:20;17;4;0;timed;73;61;1;43;18;39;70;0.75;0.089999999999999997;0.089999999999999997;0.070000000000000007;16;66;0;0;0.64000000000000001;0.35999999999999999;0.0;0.0;0;2.116563683258846;64;65;24;2;   
2019_03_04 09:20;17;4;0;timed;74;68;1;84;27;55;62;0.01;0.050000000000000003;0.40999999999999998;0.53000000000000003;9;82;0;0;0.37;0.63;0.0;0.0;0;1.783169733718296;64;65;24;2;   
2019_03_04 09:20;17;4;0;timed;75;119;0;60;58;11;18;0.25;0.72999999999999998;0.01;0.01;96;23;42;85;0.44;0.48999999999999999;0.059999999999999998;0.010000000000000101;1;2.5664722457954667;64;65;24;2;   
