date;id;block;order;cond;trial;gameid;leftright;oa1;oa2;oa3;oa4;pa1;pa2;pa3;pa4;ob1;ob2;ob3;ob4;pb1;pb2;pb3;pb4;choice;rt;paytrial;payout;alter;geschlecht;comment
2019_03_14 13:58;26;0;1;practice;1;70;0;21;42;14;63;0.96999999999999997;0.01;0.01;0.01;70;2;6;76;0.23999999999999999;0.42999999999999999;0.01;0.32000000000000001;0;26.1261261810248;15;49;44;2;nein
2019_03_14 13:58;26;0;1;practice;2;33;0;54;82;55;71;0.56000000000000005;0.20999999999999999;0.02;0.20999999999999999;13;99;0;0;0.5;0.5;0.0;0.0;0;18.766568664208535;15;49;44;2;nein
2019_03_14 13:58;26;0;1;practice;3;68;1;39;58;40;8;0.48999999999999999;0.44;0.02;0.050000000000000003;92;83;51;2;0.57999999999999996;0.13;0.02;0.27000000000000002;0;12.183325962034587;15;49;44;2;nein
2019_03_14 13:58;26;0;1;practice;4;37;1;50;66;99;12;0.26000000000000001;0.71999999999999997;0.01;0.01;22;90;0;0;0.37;0.63;0.0;0.0;1;13.999940345400091;15;49;44;2;nein
2019_03_14 13:58;26;0;1;practice;5;36;0;56;89;86;77;0.66000000000000003;0.080000000000000002;0.14999999999999999;0.11;29;91;0;0;0.40999999999999998;0.58999999999999997;0.0;0.0;1;15.366421644484944;15;49;44;2;nein
2019_03_14 13:58;26;0;1;practice;6;61;1;51;48;56;88;0.91000000000000003;0.02;0.01;0.059999999999999998;78;21;14;82;0.55000000000000004;0.29999999999999999;0.070000000000000007;0.080000000000000002;0;19.73301840408567;15;49;44;2;nein
2019_03_14 13:58;26;0;1;practice;7;58;1;44;50;85;42;0.38;0.57999999999999996;0.02;0.02;37;88;19;12;0.20000000000000001;0.29999999999999999;0.46000000000000002;0.040000000000000001;0;14.983246679146987;15;49;44;2;nein
2019_03_14 13:58;26;0;1;practice;8;63;1;24;82;6;96;0.91000000000000003;0.070000000000000007;0.01;0.0099999999999999603;73;10;71;22;0.31;0.51000000000000001;0.050000000000000003;0.13;1;16.083063898735872;15;49;44;2;nein
2019_03_14 13:58;26;0;1;practice;9;71;0;94;87;26;75;0.71999999999999997;0.23999999999999999;0.02;0.02;90;27;12;83;0.16;0.73999999999999999;0.02;0.080000000000000002;0;10.266548618980096;15;49;44;2;nein
2019_03_14 13:58;26;0;1;practice;10;55;1;53;11;80;74;0.31;0.37;0.28000000000000003;0.039999999999999897;6;93;98;96;0.69999999999999996;0.22;0.050000000000000003;0.029999999999999999;0;11.58320100809874;15;49;44;2;nein
2019_03_14 13:58;26;0;1;practice;11;40;1;29;65;30;41;0.70999999999999996;0.01;0.14999999999999999;0.13;2;59;0;0;0.32000000000000001;0.68000000000000005;0.0;0.0;1;9.666499355826545;15;49;44;2;nein
2019_03_14 13:58;26;0;1;practice;12;2;0;41;60;0;0;0.97999999999999998;0.02;0.0;0.0;10;14;97;6;0.54000000000000004;0.17000000000000001;0.12;0.17000000000000001;0;9.899838323205586;15;49;44;2;nein
2019_03_14 13:58;26;0;1;practice;13;45;1;37;40;75;23;0.54000000000000004;0.38;0.059999999999999998;0.02;1;90;0;0;0.28000000000000003;0.71999999999999997;0.0;0.0;1;9.283355821406985;15;49;44;2;nein
2019_03_14 13:58;26;0;1;practice;14;4;0;40;59;0;0;0.19;0.81000000000000005;0.0;0.0;10;88;13;45;0.56000000000000005;0.28999999999999998;0.01;0.14000000000000001;0;5.933215071830773;15;49;44;2;nein
2019_03_14 13:58;26;0;1;practice;15;49;1;14;31;42;22;0.77000000000000002;0.089999999999999997;0.02;0.12;87;28;0;0;0.68000000000000005;0.32000000000000001;0.0;0.0;1;8.24989343956554;15;49;44;2;nein
2019_03_14 13:58;26;0;1;practice;16;32;0;21;86;16;78;0.45000000000000001;0.41999999999999998;0.050000000000000003;0.080000000000000099;95;9;0;0;0.42999999999999999;0.56999999999999995;0.0;0.0;1;7.216503861993942;15;49;44;2;nein
2019_03_14 13:58;26;0;1;practice;17;26;1;24;46;74;59;0.29999999999999999;0.11;0.25;0.34000000000000002;91;6;0;0;0.28999999999999998;0.70999999999999996;0.0;0.0;0;5.7000133741764785;15;49;44;2;nein
2019_03_14 13:58;26;0;1;practice;18;42;0;23;45;91;22;0.72999999999999998;0.02;0.20000000000000001;0.050000000000000003;2;86;0;0;0.40999999999999998;0.58999999999999997;0.0;0.0;1;11.41663638500836;15;49;44;2;nein
2019_03_14 13:58;26;0;1;practice;19;19;1;25;73;0;0;0.69999999999999996;0.29999999999999999;0.0;0.0;87;84;1;86;0.040000000000000001;0.59999999999999998;0.28000000000000003;0.080000000000000002;1;9.89981138241842;15;49;44;2;nein
2019_03_14 13:58;26;0;1;practice;20;13;1;15;25;0;0;0.29999999999999999;0.69999999999999996;0.0;0.0;3;43;35;73;0.44;0.40000000000000002;0.01;0.14999999999999999;1;13.3664687908622;15;49;44;2;nein
2019_03_14 13:58;26;0;1;practice;21;75;0;21;86;27;62;0.88;0.040000000000000001;0.070000000000000007;0.0099999999999999794;13;3;49;87;0.28999999999999998;0.39000000000000001;0.070000000000000007;0.25;0;17.733358050436436;15;49;44;2;nein
2019_03_14 13:58;26;0;1;practice;22;47;1;91;99;90;78;0.93000000000000005;0.040000000000000001;0.02;0.0099999999999999499;10;87;0;0;0.23000000000000001;0.77000000000000002;0.0;0.0;0;15.932976132707836;15;49;44;2;nein
2019_03_14 13:58;26;0;1;practice;23;74;0;36;46;10;12;0.11;0.19;0.65000000000000002;0.049999999999999899;92;24;79;19;0.51000000000000001;0.40999999999999998;0.02;0.059999999999999998;1;7.483108607613531;15;49;44;2;nein
2019_03_14 13:58;26;0;1;practice;24;67;0;74;31;10;77;0.11;0.070000000000000007;0.77000000000000002;0.050000000000000003;2;23;8;97;0.56999999999999995;0.01;0.059999999999999998;0.35999999999999999;1;9.116495170382905;15;49;44;2;nein
2019_03_14 13:58;26;0;1;practice;25;14;1;92;56;0;0;0.11;0.89000000000000001;0.0;0.0;97;31;51;4;0.58999999999999997;0.22;0.080000000000000002;0.11;1;10.733270492878546;15;49;44;2;nein
2019_03_14 13:58;26;0;1;practice;26;69;1;38;74;27;73;0.22;0.19;0.45000000000000001;0.14000000000000001;1;97;79;84;0.28000000000000003;0.45000000000000001;0.17000000000000001;0.10000000000000001;1;6.633365715731543;15;49;44;2;nein
2019_03_14 13:58;26;0;1;practice;27;57;1;39;68;59;91;0.73999999999999999;0.040000000000000001;0.14999999999999999;0.070000000000000007;9;22;40;84;0.29999999999999999;0.32000000000000001;0.040000000000000001;0.34000000000000002;1;14.699756153804856;15;49;44;2;nein
2019_03_14 13:58;26;0;1;practice;28;48;0;20;25;24;35;0.32000000000000001;0.13;0.48999999999999999;0.059999999999999901;44;76;0;0;0.29999999999999999;0.69999999999999996;0.0;0.0;1;8.516657584841823;15;49;44;2;nein
2019_03_14 13:58;26;0;1;practice;29;59;1;13;27;48;51;0.56999999999999995;0.13;0.13;0.17000000000000001;8;37;97;1;0.65000000000000002;0.16;0.14999999999999999;0.040000000000000001;0;14.91649446479073;15;49;44;2;nein
2019_03_14 13:58;26;0;1;practice;30;38;0;51;89;10;60;0.57999999999999996;0.029999999999999999;0.080000000000000002;0.31;8;84;0;0;0.33000000000000002;0.67000000000000004;0.0;0.0;1;8.766519272765436;15;49;44;2;nein
2019_03_14 13:58;26;0;1;practice;31;34;1;57;23;66;79;0.56000000000000005;0.23000000000000001;0.13;0.079999999999999905;85;9;0;0;0.56000000000000005;0.44;0.0;0.0;1;5.866553622269066;15;49;44;2;nein
2019_03_14 13:58;26;0;1;practice;32;66;0;44;18;63;36;0.47999999999999998;0.10000000000000001;0.029999999999999999;0.39000000000000001;13;93;61;53;0.52000000000000002;0.45000000000000001;0.02;0.0099999999999999707;0;9.449884202724434;15;49;44;2;nein
2019_03_14 13:58;26;0;1;practice;33;73;0;99;88;95;28;0.83999999999999997;0.14000000000000001;0.01;0.01;90;93;10;74;0.080000000000000002;0.46000000000000002;0.34999999999999998;0.11;0;6.0331804657482735;15;49;44;2;nein
2019_03_14 13:58;26;0;1;practice;34;31;1;72;59;40;92;0.59999999999999998;0.34999999999999998;0.02;0.029999999999999999;97;29;0;0;0.38;0.62;0.0;0.0;0;10.983506786031512;15;49;44;2;nein
2019_03_14 13:58;26;0;1;practice;35;54;0;69;80;22;55;0.27000000000000002;0.31;0.059999999999999998;0.35999999999999999;52;2;49;90;0.059999999999999998;0.33000000000000002;0.20000000000000001;0.40999999999999998;0;7.299960005760113;15;49;44;2;nein
2019_03_14 13:58;26;0;1;practice;36;20;0;32;11;0;0;0.40999999999999998;0.58999999999999997;0.0;0.0;1;86;42;65;0.45000000000000001;0.38;0.050000000000000003;0.12;1;15.916557647351055;15;49;44;2;nein
2019_03_14 13:58;26;0;1;practice;37;16;0;50;42;0;0;0.32000000000000001;0.68000000000000005;0.0;0.0;97;2;56;31;0.35999999999999999;0.16;0.16;0.32000000000000001;1;8.866498778523919;15;49;44;2;nein
2019_03_14 13:58;26;0;1;practice;38;24;0;19;38;0;0;0.89000000000000001;0.11;0.0;0.0;45;76;95;57;0.29999999999999999;0.22;0.40000000000000002;0.080000000000000002;1;5.749893599927418;15;49;44;2;nein
2019_03_14 13:58;26;0;1;practice;39;3;1;20;70;0;0;0.13;0.87;0.0;0.0;95;19;80;73;0.31;0.57999999999999996;0.029999999999999999;0.080000000000000002;0;8.08321752536699;15;49;44;2;nein
2019_03_14 13:58;26;0;1;practice;40;44;0;69;48;22;63;0.39000000000000001;0.40999999999999998;0.19;0.01;1;94;0;0;0.22;0.78000000000000003;0.0;0.0;1;2.7332550981429904;15;49;44;2;nein
2019_03_14 13:58;26;0;1;practice;41;39;0;53;65;48;75;0.92000000000000004;0.029999999999999999;0.01;0.040000000000000001;16;83;0;0;0.31;0.68999999999999995;0.0;0.0;1;3.2165660823829967;15;49;44;2;nein
2019_03_14 13:58;26;0;1;practice;42;12;0;45;86;0;0;0.97999999999999998;0.02;0.0;0.0;6;23;95;81;0.14999999999999999;0.40999999999999998;0.050000000000000003;0.39000000000000001;1;9.749804118027669;15;49;44;2;nein
2019_03_14 13:58;26;0;1;practice;43;18;1;47;36;0;0;0.089999999999999997;0.91000000000000003;0.0;0.0;2;44;81;9;0.20000000000000001;0.25;0.51000000000000001;0.040000000000000001;0;12.149806491382833;15;49;44;2;nein
2019_03_14 13:58;26;0;1;practice;44;41;0;19;54;51;8;0.76000000000000001;0.070000000000000007;0.16;0.0099999999999999794;2;77;0;0;0.54000000000000004;0.46000000000000002;0.0;0.0;1;11.183156940668368;15;49;44;2;nein
2019_03_14 13:58;26;0;1;practice;45;56;1;47;52;64;10;0.77000000000000002;0.040000000000000001;0.11;0.080000000000000002;1;5;12;99;0.14000000000000001;0.28999999999999998;0.27000000000000002;0.29999999999999999;0;16.16657969710195;15;49;44;2;nein
2019_03_14 13:58;26;0;1;practice;46;29;1;66;40;92;49;0.46999999999999997;0.10000000000000001;0.34000000000000002;0.089999999999999997;8;94;0;0;0.44;0.56000000000000005;0.0;0.0;1;4.450015057975406;15;49;44;2;nein
2019_03_14 13:58;26;0;1;practice;47;21;1;59;69;0;0;0.34000000000000002;0.66000000000000003;0.0;0.0;64;18;5;24;0.14999999999999999;0.040000000000000001;0.51000000000000001;0.29999999999999999;0;2.550210090030305;15;49;44;2;nein
2019_03_14 13:58;26;0;1;practice;48;46;1;79;57;98;81;0.67000000000000004;0.070000000000000007;0.20999999999999999;0.050000000000000003;1;76;0;0;0.56000000000000005;0.44;0.0;0.0;0;5.499836270574178;15;49;44;2;nein
2019_03_14 13:58;26;0;1;practice;49;50;1;17;12;21;14;0.55000000000000004;0.34000000000000002;0.059999999999999998;0.049999999999999899;13;93;0;0;0.28999999999999998;0.70999999999999996;0.0;0.0;1;3.2834161174541805;15;49;44;2;nein
2019_03_14 13:58;26;0;1;practice;50;28;0;37;83;75;8;0.83999999999999997;0.070000000000000007;0.01;0.080000000000000002;94;2;0;0;0.19;0.81000000000000005;0.0;0.0;0;16.216433944236996;15;49;44;2;nein
2019_03_14 13:58;26;0;1;practice;51;64;1;44;60;96;45;0.53000000000000003;0.10000000000000001;0.029999999999999999;0.34000000000000002;88;20;43;31;0.47999999999999998;0.38;0.050000000000000003;0.089999999999999997;1;12.983155272905378;15;49;44;2;nein
2019_03_14 13:58;26;0;1;practice;52;23;1;99;93;0;0;0.57999999999999996;0.41999999999999998;0.0;0.0;64;10;80;81;0.13;0.55000000000000004;0.02;0.29999999999999999;0;6.683207775367691;15;49;44;2;nein
2019_03_14 13:58;26;0;1;practice;53;51;1;38;13;51;84;0.91000000000000003;0.070000000000000007;0.01;0.0099999999999999603;4;89;35;16;0.80000000000000004;0.089999999999999997;0.059999999999999998;0.050000000000000003;0;19.9330996113149;15;49;44;2;nein
2019_03_14 13:58;26;0;1;practice;54;8;0;20;44;0;0;0.26000000000000001;0.73999999999999999;0.0;0.0;99;3;69;24;0.20999999999999999;0.60999999999999999;0.12;0.060000000000000102;0;14.433095922992834;15;49;44;2;nein
2019_03_14 13:58;26;0;1;practice;55;60;1;39;93;27;78;0.85999999999999999;0.02;0.11;0.01;22;5;62;95;0.059999999999999998;0.56999999999999995;0.14000000000000001;0.23000000000000001;1;16.14970321836563;15;49;44;2;nein
2019_03_14 13:58;26;0;1;practice;56;43;1;11;17;21;44;0.16;0.46000000000000002;0.25;0.13;2;66;0;0;0.44;0.56000000000000005;0.0;0.0;1;5.133220909001466;15;49;44;2;nein
2019_03_14 13:58;26;0;1;practice;57;62;0;65;52;74;55;0.16;0.12;0.14999999999999999;0.56999999999999995;72;86;2;68;0.12;0.53000000000000003;0.22;0.13;1;14.149819641052318;15;49;44;2;nein
2019_03_14 13:58;26;0;1;practice;58;52;1;17;61;57;59;0.070000000000000007;0.050000000000000003;0.33000000000000002;0.55000000000000004;12;93;94;62;0.71999999999999997;0.16;0.080000000000000002;0.040000000000000001;0;8.749836190393125;15;49;44;2;nein
2019_03_14 13:58;26;0;1;practice;59;10;1;34;59;0;0;0.16;0.83999999999999997;0.0;0.0;21;61;96;7;0.19;0.01;0.5;0.29999999999999999;0;2.6667135992283875;15;49;44;2;nein
2019_03_14 13:58;26;0;1;practice;60;35;1;84;95;4;35;0.89000000000000001;0.050000000000000003;0.01;0.050000000000000003;5;98;0;0;0.19;0.81000000000000005;0.0;0.0;1;2.199896791127685;15;49;44;2;nein
2019_03_14 13:58;26;0;1;practice;61;1;1;67;36;0;0;0.14999999999999999;0.84999999999999998;0.0;0.0;1;4;81;77;0.25;0.54000000000000004;0.14000000000000001;0.070000000000000007;0;9.54964369205527;15;49;44;2;nein
2019_03_14 13:58;26;0;1;practice;62;72;1;86;85;97;43;0.51000000000000001;0.14999999999999999;0.33000000000000002;0.0099999999999999499;72;29;10;90;0.01;0.11;0.65000000000000002;0.23000000000000001;0;5.883206235894249;15;49;44;2;nein
2019_03_14 13:58;26;0;1;practice;63;27;1;68;43;98;36;0.54000000000000004;0.44;0.01;0.0099999999999999603;97;13;0;0;0.27000000000000002;0.72999999999999998;0.0;0.0;0;3.800032328944326;15;49;44;2;nein
2019_03_14 13:58;26;0;1;practice;64;11;1;10;44;0;0;0.48999999999999999;0.51000000000000001;0.0;0.0;88;12;54;50;0.17000000000000001;0.75;0.02;0.059999999999999998;0;7.883289624044664;15;49;44;2;nein
2019_03_14 13:58;26;0;1;practice;65;53;1;47;24;95;38;0.57999999999999996;0.28000000000000003;0.02;0.12;8;22;93;96;0.54000000000000004;0.34000000000000002;0.10000000000000001;0.0199999999999999;0;7.349771917372436;15;49;44;2;nein
2019_03_14 13:58;26;0;1;practice;66;5;1;23;58;0;0;0.71999999999999997;0.28000000000000003;0.0;0.0;94;12;52;3;0.11;0.84999999999999998;0.029999999999999999;0.01;0;10.349793085134024;15;49;44;2;nein
2019_03_14 13:58;26;0;1;practice;67;65;1;35;15;77;1;0.62;0.33000000000000002;0.029999999999999999;0.02;68;3;25;96;0.38;0.28000000000000003;0.28000000000000003;0.059999999999999901;0;14.96644075961467;15;49;44;2;nein
2019_03_14 13:58;26;0;1;practice;68;17;1;27;61;0;0;0.68999999999999995;0.31;0.0;0.0;3;91;69;43;0.29999999999999999;0.33000000000000002;0.27000000000000002;0.099999999999999895;1;14.449907294827426;15;49;44;2;nein
2019_03_14 13:58;26;0;1;practice;69;25;0;7;18;0;0;0.20999999999999999;0.79000000000000004;0.0;0.0;92;45;33;13;0.41999999999999998;0.17999999999999999;0.22;0.17999999999999999;1;3.3832570705935723;15;49;44;2;nein
2019_03_14 13:58;26;0;1;practice;70;22;1;84;87;0;0;0.17000000000000001;0.82999999999999996;0.0;0.0;3;24;41;83;0.68000000000000005;0.11;0.10000000000000001;0.11;0;3.633386562769374;15;49;44;2;nein
2019_03_14 13:58;26;0;1;practice;71;7;0;13;31;0;0;0.51000000000000001;0.48999999999999999;0.0;0.0;8;79;42;18;0.85999999999999999;0.089999999999999997;0.02;0.029999999999999999;0;5.266708339360321;15;49;44;2;nein
2019_03_14 13:58;26;0;1;practice;72;15;0;24;59;0;0;0.56999999999999995;0.42999999999999999;0.0;0.0;9;8;80;22;0.31;0.10000000000000001;0.55000000000000004;0.039999999999999897;1;4.933183961636587;15;49;44;2;nein
2019_03_14 13:58;26;0;1;practice;73;30;0;54;78;85;25;0.20999999999999999;0.60999999999999999;0.089999999999999997;0.090000000000000094;87;20;0;0;0.58999999999999997;0.40999999999999998;0.0;0.0;1;8.999995189145466;15;49;44;2;nein
2019_03_14 13:58;26;0;1;practice;74;9;1;57;44;0;0;0.14999999999999999;0.84999999999999998;0.0;0.0;38;35;64;95;0.34000000000000002;0.45000000000000001;0.089999999999999997;0.12;1;9.583163483431235;15;49;44;2;nein
2019_03_14 13:58;26;0;1;practice;75;6;0;42;59;0;0;0.35999999999999999;0.64000000000000001;0.0;0.0;77;19;6;7;0.44;0.14999999999999999;0.17999999999999999;0.23000000000000001;0;7.466522063061348;15;49;44;2;nein
2019_03_14 13:58;26;1;1;timed;1;147;1;39;43;76;28;0.14000000000000001;0.10000000000000001;0.10000000000000001;0.66000000000000003;6;31;68;85;0.27000000000000002;0.20000000000000001;0.22;0.31;1;4.842567982991568;15;49;44;2;nein
2019_03_14 13:58;26;1;1;timed;2;44;0;79;74;0;0;0.71999999999999997;0.28000000000000003;0.0;0.0;3;67;15;36;0.41999999999999998;0.53000000000000003;0.02;0.029999999999999999;0;2.733360616225582;15;49;44;2;nein
2019_03_14 13:58;26;1;1;timed;3;68;0;84;27;55;62;0.01;0.050000000000000003;0.40999999999999998;0.53000000000000003;9;82;0;0;0.37;0.63;0.0;0.0;1;2.599935726979311;15;49;44;2;nein
2019_03_14 13:58;26;1;1;timed;4;80;0;47;39;45;10;0.13;0.76000000000000001;0.059999999999999998;0.050000000000000003;2;87;0;0;0.48999999999999999;0.51000000000000001;0.0;0.0;1;3.6165825675789165;15;49;44;2;nein
2019_03_14 13:58;26;1;1;timed;5;104;1;55;85;93;3;0.87;0.02;0.089999999999999997;0.02;1;2;90;8;0.35999999999999999;0.070000000000000007;0.40000000000000002;0.17000000000000001;0;2.883341902000211;15;49;44;2;nein
2019_03_14 13:58;26;1;1;timed;6;73;0;65;68;70;47;0.25;0.23000000000000001;0.20999999999999999;0.31;27;95;0;0;0.45000000000000001;0.55000000000000004;0.0;0.0;1;2.283257038521242;15;49;44;2;nein
2019_03_14 13:58;26;1;1;timed;7;14;1;36;40;0;0;0.54000000000000004;0.46000000000000002;0.0;0.0;99;70;1;11;0.16;0.089999999999999997;0.080000000000000002;0.67000000000000004;0;2.5999370098738837;15;49;44;2;nein
2019_03_14 13:58;26;1;1;timed;8;107;1;52;48;13;63;0.68000000000000005;0.19;0.050000000000000003;0.079999999999999905;54;91;33;3;0.19;0.17999999999999999;0.33000000000000002;0.29999999999999999;0;3.1333601030678437;15;49;44;2;nein
2019_03_14 13:58;26;1;1;timed;9;74;1;66;47;52;44;0.41999999999999998;0.26000000000000001;0.17999999999999999;0.14000000000000001;17;99;0;0;0.47999999999999998;0.52000000000000002;0.0;0.0;1;2.383369323873012;15;49;44;2;nein
2019_03_14 13:58;26;1;1;timed;10;56;1;28;84;37;41;0.68000000000000005;0.28000000000000003;0.02;0.0199999999999999;6;95;0;0;0.72999999999999998;0.27000000000000002;0.0;0.0;0;2.833239094032706;15;49;44;2;nein
2019_03_14 13:58;26;1;1;timed;11;141;0;93;28;60;91;0.81999999999999995;0.10000000000000001;0.01;0.070000000000000007;14;85;7;89;0.45000000000000001;0.070000000000000007;0.23999999999999999;0.23999999999999999;0;1.8499494379157113;15;49;44;2;nein
2019_03_14 13:58;26;1;1;timed;12;95;1;93;88;68;85;0.83999999999999997;0.14000000000000001;0.01;0.01;2;82;0;0;0.41999999999999998;0.57999999999999996;0.0;0.0;0;2.1000875896302205;15;49;44;2;nein
2019_03_14 13:58;26;1;1;timed;13;7;0;49;29;0;0;0.95999999999999996;0.040000000000000001;0.0;0.0;23;99;64;25;0.68999999999999995;0.12;0.059999999999999998;0.13;0;2.4666561255494344;15;49;44;2;nein
2019_03_14 13:58;26;1;1;timed;14;79;0;52;46;29;22;0.17999999999999999;0.51000000000000001;0.23999999999999999;0.070000000000000104;93;14;0;0;0.45000000000000001;0.55000000000000004;0.0;0.0;1;3.4500782405357313;15;49;44;2;nein
2019_03_14 13:58;26;1;1;timed;15;34;1;32;48;0;0;0.28000000000000003;0.71999999999999997;0.0;0.0;97;83;7;62;0.040000000000000001;0.54000000000000004;0.35999999999999999;0.059999999999999901;1;3.0832588987182135;15;49;44;2;nein
2019_03_14 13:58;26;1;1;timed;16;123;0;26;24;51;92;0.72999999999999998;0.16;0.070000000000000007;0.040000000000000001;6;90;82;49;0.64000000000000001;0.25;0.050000000000000003;0.059999999999999998;0;2.916754892398785;15;49;44;2;nein
2019_03_14 13:58;26;1;1;timed;17;13;1;52;56;0;0;0.46999999999999997;0.53000000000000003;0.0;0.0;94;71;27;2;0.089999999999999997;0.31;0.57999999999999996;0.020000000000000101;1;4.416542092253621;15;49;44;2;nein
2019_03_14 13:58;26;1;1;timed;18;102;1;40;56;53;17;0.28000000000000003;0.26000000000000001;0.14999999999999999;0.31;1;76;29;62;0.68000000000000005;0.23000000000000001;0.050000000000000003;0.039999999999999897;0;2.816569802777394;15;49;44;2;nein
2019_03_14 13:58;26;1;1;timed;19;90;0;27;44;50;72;0.68000000000000005;0.28999999999999998;0.02;0.0099999999999999707;6;96;0;0;0.46999999999999997;0.53000000000000003;0.0;0.0;1;3.983243151186798;15;49;44;2;nein
2019_03_14 13:58;26;1;1;timed;20;49;1;21;30;0;0;0.53000000000000003;0.46999999999999997;0.0;0.0;93;99;89;25;0.44;0.02;0.11;0.42999999999999999;1;2.866567413386292;15;49;44;2;nein
2019_03_14 13:58;26;1;1;timed;21;15;0;77;81;0;0;0.28000000000000003;0.71999999999999997;0.0;0.0;98;14;87;18;0.55000000000000004;0.23000000000000001;0.16;0.059999999999999901;0;1.9332147511072435;15;49;44;2;nein
2019_03_14 13:58;26;1;1;timed;22;37;1;14;98;0;0;0.93000000000000005;0.070000000000000007;0.0;0.0;41;2;87;66;0.17999999999999999;0.48999999999999999;0.32000000000000001;0.010000000000000101;1;2.766755325375925;15;49;44;2;nein
2019_03_14 13:58;26;1;1;timed;23;59;0;56;47;83;90;0.31;0.12;0.54000000000000004;0.029999999999999898;10;98;0;0;0.46999999999999997;0.53000000000000003;0.0;0.0;1;1.9332862724822917;15;49;44;2;nein
2019_03_14 13:58;26;1;1;timed;24;92;0;90;86;65;94;0.16;0.34000000000000002;0.28000000000000003;0.22;79;22;0;0;0.35999999999999999;0.64000000000000001;0.0;0.0;0;2.6667305975815907;15;49;44;2;nein
2019_03_14 13:58;26;1;1;timed;25;17;0;81;52;0;0;0.059999999999999998;0.93999999999999995;0.0;0.0;34;3;69;41;0.01;0.22;0.75;0.02;1;3.8998716784658427;15;49;44;2;nein
2019_03_14 13:58;26;1;1;timed;26;76;1;39;62;9;28;0.01;0.51000000000000001;0.26000000000000001;0.22;77;7;0;0;0.57999999999999996;0.41999999999999998;0.0;0.0;1;3.250166054672718;15;49;44;2;nein
2019_03_14 13:58;26;1;1;timed;27;35;0;33;37;0;0;0.88;0.12;0.0;0.0;63;4;79;98;0.16;0.46000000000000002;0.17000000000000001;0.20999999999999999;1;3.9998675411306976;15;49;44;2;nein
2019_03_14 13:58;26;1;1;timed;28;145;1;91;89;90;74;0.57999999999999996;0.29999999999999999;0.11;0.010000000000000101;2;75;84;39;0.32000000000000001;0.27000000000000002;0.39000000000000001;0.0199999999999999;0;3.1832076150062676;15;49;44;2;nein
2019_03_14 13:58;26;1;1;timed;29;119;0;60;58;11;18;0.25;0.72999999999999998;0.01;0.01;96;23;42;85;0.44;0.48999999999999999;0.059999999999999998;0.010000000000000101;1;5.38339369887035;15;49;44;2;nein
2019_03_14 13:58;26;1;1;timed;30;132;0;27;70;21;19;0.64000000000000001;0.23000000000000001;0.029999999999999999;0.10000000000000001;11;85;55;6;0.39000000000000001;0.46999999999999997;0.029999999999999999;0.11;0;4.133321295505539;15;49;44;2;nein
2019_03_14 13:58;26;1;1;timed;31;1;1;22;51;0;0;0.26000000000000001;0.73999999999999999;0.0;0.0;14;11;92;31;0.29999999999999999;0.40999999999999998;0.14999999999999999;0.14000000000000001;0;2.166565585261651;15;49;44;2;nein
2019_03_14 13:58;26;1;1;timed;32;38;0;40;70;0;0;0.53000000000000003;0.46999999999999997;0.0;0.0;97;90;6;96;0.56999999999999995;0.070000000000000007;0.27000000000000002;0.089999999999999997;1;4.067003340978317;15;49;44;2;nein
2019_03_14 13:58;26;1;1;timed;33;144;0;99;93;90;71;0.65000000000000002;0.32000000000000001;0.01;0.02;97;14;48;73;0.23000000000000001;0.46000000000000002;0.13;0.17999999999999999;0;2.6999056110284982;15;49;44;2;nein
2019_03_14 13:58;26;1;1;timed;34;45;0;97;87;0;0;0.71999999999999997;0.28000000000000003;0.0;0.0;96;11;14;4;0.25;0.029999999999999999;0.14000000000000001;0.57999999999999996;0;1.7833816396614566;15;49;44;2;nein
2019_03_14 13:58;26;1;1;timed;35;6;1;9;51;0;0;0.14999999999999999;0.84999999999999998;0.0;0.0;6;40;50;73;0.42999999999999999;0.26000000000000001;0.059999999999999998;0.25;0;4.016588148170285;15;49;44;2;nein
2019_03_14 13:58;26;1;1;timed;36;23;0;54;40;0;0;0.93000000000000005;0.070000000000000007;0.0;0.0;36;23;71;86;0.02;0.41999999999999998;0.19;0.37;0;3.766707537550701;15;49;44;2;nein
2019_03_14 13:58;26;1;1;timed;37;39;0;14;33;0;0;0.78000000000000003;0.22;0.0;0.0;93;84;1;25;0.14000000000000001;0.23999999999999999;0.39000000000000001;0.23000000000000001;1;3.2499627158749718;15;49;44;2;nein
2019_03_14 13:58;26;1;1;timed;38;42;0;70;48;0;0;0.79000000000000004;0.20999999999999999;0.0;0.0;51;8;12;67;0.19;0.26000000000000001;0.28999999999999998;0.26000000000000001;0;2.29985224261236;15;49;44;2;nein
2019_03_14 13:58;26;1;1;timed;39;30;0;33;30;0;0;0.71999999999999997;0.28000000000000003;0.0;0.0;9;88;1;14;0.55000000000000004;0.39000000000000001;0.01;0.049999999999999899;1;3.749932407489723;15;49;44;2;nein
2019_03_14 13:58;26;1;1;timed;40;142;0;98;65;64;84;0.88;0.070000000000000007;0.01;0.040000000000000001;5;68;60;16;0.46000000000000002;0.080000000000000002;0.27000000000000002;0.19;0;1.9332163547255732;15;49;44;2;nein
2019_03_14 13:58;26;1;1;timed;41;118;1;62;52;65;68;0.40999999999999998;0.44;0.10000000000000001;0.0500000000000001;79;20;14;37;0.56999999999999995;0.23999999999999999;0.14000000000000001;0.050000000000000003;1;2.5500494074790367;15;49;44;2;nein
2019_03_14 13:58;26;1;1;timed;42;21;1;64;28;0;0;0.080000000000000002;0.92000000000000004;0.0;0.0;50;1;88;13;0.57999999999999996;0.13;0.02;0.27000000000000002;1;3.249917493839348;15;49;44;2;nein
2019_03_14 13:58;26;1;1;timed;43;121;1;42;51;47;70;0.41999999999999998;0.17000000000000001;0.23999999999999999;0.17000000000000001;21;76;48;9;0.14999999999999999;0.34000000000000002;0.40999999999999998;0.10000000000000001;1;3.6832436964168664;15;49;44;2;nein
2019_03_14 13:58;26;1;1;timed;44;33;1;27;70;0;0;0.88;0.12;0.0;0.0;93;3;77;16;0.080000000000000002;0.40000000000000002;0.5;0.02;1;2.5166203808976206;15;49;44;2;nein
2019_03_14 13:58;26;1;1;timed;45;43;1;60;83;0;0;0.23000000000000001;0.77000000000000002;0.0;0.0;72;5;70;12;0.29999999999999999;0.40999999999999998;0.12;0.17000000000000001;0;2.2332693703456243;15;49;44;2;nein
2019_03_14 13:58;26;1;1;timed;46;55;1;74;55;47;48;0.60999999999999999;0.31;0.070000000000000007;0.01;97;6;0;0;0.42999999999999999;0.56999999999999995;0.0;0.0;0;3.200158180906783;15;49;44;2;nein
2019_03_14 13:58;26;1;1;timed;47;108;0;48;72;39;70;0.14000000000000001;0.66000000000000003;0.02;0.17999999999999999;81;44;98;8;0.59999999999999998;0.029999999999999999;0.050000000000000003;0.32000000000000001;0;1.8332650726488282;15;49;44;2;nein
2019_03_14 13:58;26;1;1;timed;48;2;0;59;32;0;0;0.080000000000000002;0.92000000000000004;0.0;0.0;33;38;85;1;0.28999999999999998;0.050000000000000003;0.070000000000000007;0.58999999999999997;1;3.9332314287371446;15;49;44;2;nein
2019_03_14 13:58;26;1;1;timed;49;62;0;12;45;16;50;0.20999999999999999;0.76000000000000001;0.02;0.01;92;15;0;0;0.20999999999999999;0.79000000000000004;0.0;0.0;0;3.0667073130448443;15;49;44;2;nein
2019_03_14 13:58;26;1;1;timed;50;91;1;74;81;86;48;0.93000000000000005;0.02;0.01;0.039999999999999897;7;64;0;0;0.13;0.87;0.0;0.0;1;2.783358547557782;15;49;44;2;nein
2019_03_14 13:58;26;1;1;timed;51;83;1;17;12;7;41;0.65000000000000002;0.19;0.089999999999999997;0.070000000000000007;6;84;0;0;0.72999999999999998;0.27000000000000002;0.0;0.0;0;4.283136446426852;15;49;44;2;nein
2019_03_14 13:58;26;1;1;timed;52;65;1;75;64;59;52;0.59999999999999998;0.22;0.14000000000000001;0.040000000000000001;1;99;0;0;0.35999999999999999;0.64000000000000001;0.0;0.0;1;1.9665995178243065;15;49;44;2;nein
2019_03_14 13:58;26;1;1;timed;53;32;0;19;81;0;0;0.93000000000000005;0.070000000000000007;0.0;0.0;1;65;41;68;0.45000000000000001;0.050000000000000003;0.059999999999999998;0.44;1;2.91659805853169;15;49;44;2;nein
2019_03_14 13:58;26;1;1;timed;54;46;1;5;19;0;0;0.32000000000000001;0.68000000000000005;0.0;0.0;88;38;97;66;0.60999999999999999;0.20000000000000001;0.040000000000000001;0.14999999999999999;1;4.083250559903263;15;49;44;2;nein
2019_03_14 13:58;26;1;1;timed;55;106;0;85;69;22;61;0.10000000000000001;0.58999999999999997;0.17999999999999999;0.13;20;79;91;84;0.55000000000000004;0.14999999999999999;0.26000000000000001;0.039999999999999897;1;4.149893728216739;15;49;44;2;nein
2019_03_14 13:58;26;1;1;timed;56;122;1;35;58;25;31;0.81999999999999995;0.070000000000000007;0.080000000000000002;0.029999999999999999;18;64;68;89;0.63;0.17000000000000001;0.11;0.089999999999999997;0;3.1332109665681855;15;49;44;2;nein
2019_03_14 13:58;26;1;1;timed;57;134;1;57;48;50;55;0.02;0.62;0.17999999999999999;0.17999999999999999;80;96;15;18;0.23999999999999999;0.35999999999999999;0.33000000000000002;0.070000000000000007;1;4.533228413934921;15;49;44;2;nein
2019_03_14 13:58;26;1;1;timed;58;67;1;44;42;8;89;0.88;0.070000000000000007;0.029999999999999999;0.02;10;63;0;0;0.39000000000000001;0.60999999999999999;0.0;0.0;1;2.1999291842166713;15;49;44;2;nein
2019_03_14 13:58;26;1;1;timed;59;8;1;50;36;0;0;0.080000000000000002;0.92000000000000004;0.0;0.0;6;19;84;29;0.54000000000000004;0.070000000000000007;0.17000000000000001;0.22;1;4.466558304834507;15;49;44;2;nein
2019_03_14 13:58;26;1;1;timed;60;12;0;53;68;0;0;0.31;0.68999999999999995;0.0;0.0;69;54;97;29;0.25;0.20999999999999999;0.20000000000000001;0.34000000000000002;0;1.5333704945142017;15;49;44;2;nein
2019_03_14 13:58;26;1;1;timed;61;75;1;67;80;36;81;0.81999999999999995;0.080000000000000002;0.059999999999999998;0.040000000000000001;3;97;0;0;0.32000000000000001;0.68000000000000005;0.0;0.0;1;1.916588757545469;15;49;44;2;nein
2019_03_14 13:58;26;1;1;timed;62;112;1;70;44;98;64;0.02;0.75;0.12;0.11;33;2;63;85;0.23999999999999999;0.31;0.080000000000000002;0.37;0;4.516708900626327;15;49;44;2;nein
2019_03_14 13:58;26;1;1;timed;63;27;0;44;26;0;0;0.35999999999999999;0.64000000000000001;0.0;0.0;63;10;3;5;0.58999999999999997;0.19;0.14999999999999999;0.070000000000000007;1;3.7999165477049246;15;49;44;2;nein
2019_03_14 13:58;26;1;1;timed;64;117;1;65;85;92;41;0.23000000000000001;0.17999999999999999;0.54000000000000004;0.050000000000000003;99;93;10;13;0.64000000000000001;0.16;0.01;0.19;1;2.2168002106513995;15;49;44;2;nein
2019_03_14 13:58;26;1;1;timed;65;19;1;22;53;0;0;0.13;0.87;0.0;0.0;4;93;96;65;0.46999999999999997;0.059999999999999998;0.26000000000000001;0.20999999999999999;0;2.0332497420577056;15;49;44;2;nein
2019_03_14 13:58;26;1;1;timed;66;130;0;37;79;23;95;0.94999999999999996;0.029999999999999999;0.01;0.01;94;4;58;49;0.46000000000000002;0.5;0.029999999999999999;0.01;1;4.700063727790621;15;49;44;2;nein
2019_03_14 13:58;26;1;1;timed;67;140;0;36;32;26;27;0.39000000000000001;0.14999999999999999;0.19;0.27000000000000002;44;3;99;25;0.29999999999999999;0.34000000000000002;0.34000000000000002;0.0199999999999999;1;5.4998705880047964;15;49;44;2;nein
2019_03_14 13:58;26;1;1;timed;68;87;1;10;30;63;4;0.56999999999999995;0.12;0.16;0.14999999999999999;86;2;0;0;0.42999999999999999;0.56999999999999995;0.0;0.0;1;2.733249004393656;15;49;44;2;nein
2019_03_14 13:58;26;1;1;timed;69;85;1;31;22;82;50;0.11;0.69999999999999996;0.01;0.17999999999999999;3;99;0;0;0.62;0.38;0.0;0.0;0;3.166722739852503;15;49;44;2;nein
2019_03_14 13:58;26;1;1;timed;70;128;1;70;49;27;54;0.27000000000000002;0.53000000000000003;0.02;0.17999999999999999;72;97;6;20;0.29999999999999999;0.39000000000000001;0.22;0.0899999999999999;0;5.4833792983786225;15;49;44;2;nein
2019_03_14 13:58;26;1;1;timed;71;3;1;53;40;0;0;0.31;0.68999999999999995;0.0;0.0;96;24;7;88;0.11;0.27000000000000002;0.58999999999999997;0.029999999999999999;1;2.8332304344939985;15;49;44;2;nein
2019_03_14 13:58;26;1;1;timed;72;69;1;54;34;64;49;0.34000000000000002;0.25;0.20999999999999999;0.20000000000000001;14;98;0;0;0.62;0.38;0.0;0.0;0;2.616609829089157;15;49;44;2;nein
2019_03_14 13:58;26;1;1;timed;73;50;0;15;20;0;0;0.82999999999999996;0.17000000000000001;0.0;0.0;97;18;88;87;0.56999999999999995;0.39000000000000001;0.01;0.029999999999999999;1;2.683239206286089;15;49;44;2;nein
2019_03_14 13:58;26;1;1;timed;74;97;0;17;33;32;74;0.94999999999999996;0.01;0.029999999999999999;0.01;76;23;0;0;0.33000000000000002;0.67000000000000004;0.0;0.0;0;2.6832029645129296;15;49;44;2;nein
2019_03_14 13:58;26;1;1;timed;75;125;0;37;41;10;35;0.91000000000000003;0.040000000000000001;0.029999999999999999;0.02;7;13;91;93;0.26000000000000001;0.39000000000000001;0.16;0.19;1;3.9831677811280315;15;49;44;2;nein
2019_03_14 13:58;26;2;1;control;1;121;0;42;51;47;70;0.41999999999999998;0.17000000000000001;0.23999999999999999;0.17000000000000001;21;76;48;9;0.14999999999999999;0.34000000000000002;0.40999999999999998;0.10000000000000001;1;15.759030054693085;15;49;44;2;nein
2019_03_14 13:58;26;2;1;control;2;86;1;56;30;57;88;0.20000000000000001;0.35999999999999999;0.080000000000000002;0.35999999999999999;98;2;0;0;0.77000000000000002;0.23000000000000001;0.0;0.0;1;2.199900639811858;15;49;44;2;nein
2019_03_14 13:58;26;2;1;control;3;99;0;8;24;15;73;0.56000000000000005;0.35999999999999999;0.070000000000000007;0.0099999999999999499;88;12;0;0;0.52000000000000002;0.47999999999999998;0.0;0.0;1;5.516515824986527;15;49;44;2;nein
2019_03_14 13:58;26;2;1;control;4;26;0;76;41;0;0;0.57999999999999996;0.41999999999999998;0.0;0.0;61;79;84;2;0.13;0.029999999999999999;0.67000000000000004;0.17000000000000001;1;6.183341036046841;15;49;44;2;nein
2019_03_14 13:58;26;2;1;control;5;29;1;44;51;0;0;0.78000000000000003;0.22;0.0;0.0;74;1;68;82;0.69999999999999996;0.28000000000000003;0.01;0.01;1;8.716503701632064;15;49;44;2;nein
2019_03_14 13:58;26;2;1;control;6;79;1;52;46;29;22;0.17999999999999999;0.51000000000000001;0.23999999999999999;0.070000000000000104;93;14;0;0;0.45000000000000001;0.55000000000000004;0.0;0.0;0;8.74984517065559;15;49;44;2;nein
2019_03_14 13:58;26;2;1;control;7;135;0;48;60;41;51;0.14000000000000001;0.40000000000000002;0.089999999999999997;0.37;94;1;85;65;0.64000000000000001;0.29999999999999999;0.01;0.050000000000000003;1;2.6165652485015016;15;49;44;2;nein
2019_03_14 13:58;26;2;1;control;8;123;0;26;24;51;92;0.72999999999999998;0.16;0.070000000000000007;0.040000000000000001;6;90;82;49;0.64000000000000001;0.25;0.050000000000000003;0.059999999999999998;1;18.649722301423026;15;49;44;2;nein
2019_03_14 13:58;26;2;1;control;9;92;1;90;86;65;94;0.16;0.34000000000000002;0.28000000000000003;0.22;79;22;0;0;0.35999999999999999;0.64000000000000001;0.0;0.0;0;10.84983205305798;15;49;44;2;nein
2019_03_14 13:58;26;2;1;control;10;61;0;43;18;39;70;0.75;0.089999999999999997;0.089999999999999997;0.070000000000000007;16;66;0;0;0.64000000000000001;0.35999999999999999;0.0;0.0;0;8.916660599644274;15;49;44;2;nein
2019_03_14 13:58;26;2;1;control;11;63;0;56;78;42;36;0.93000000000000005;0.040000000000000001;0.01;0.0199999999999999;2;72;0;0;0.32000000000000001;0.68000000000000005;0.0;0.0;1;3.0499132602872123;15;49;44;2;nein
2019_03_14 13:58;26;2;1;control;12;74;0;66;47;52;44;0.41999999999999998;0.26000000000000001;0.17999999999999999;0.14000000000000001;17;99;0;0;0.47999999999999998;0.52000000000000002;0.0;0.0;1;5.0665562522031;15;49;44;2;nein
2019_03_14 13:58;26;2;1;control;13;33;0;27;70;0;0;0.88;0.12;0.0;0.0;93;3;77;16;0.080000000000000002;0.40000000000000002;0.5;0.02;1;7.683142347741978;15;49;44;2;nein
2019_03_14 13:58;26;2;1;control;14;11;0;17;36;0;0;0.14000000000000001;0.85999999999999999;0.0;0.0;19;41;34;95;0.88;0.02;0.050000000000000003;0.050000000000000003;0;12.216578269881666;15;49;44;2;nein
2019_03_14 13:58;26;2;1;control;15;89;0;26;41;13;56;0.059999999999999998;0.40999999999999998;0.050000000000000003;0.47999999999999998;5;97;0;0;0.37;0.63;0.0;0.0;1;2.3668103615550535;15;49;44;2;nein
2019_03_14 13:58;26;2;1;control;16;3;0;53;40;0;0;0.31;0.68999999999999995;0.0;0.0;96;24;7;88;0.11;0.27000000000000002;0.58999999999999997;0.029999999999999999;0;12.483148377346879;15;49;44;2;nein
2019_03_14 13:58;26;2;1;control;17;140;0;36;32;26;27;0.39000000000000001;0.14999999999999999;0.19;0.27000000000000002;44;3;99;25;0.29999999999999999;0.34000000000000002;0.34000000000000002;0.0199999999999999;1;11.866489477537925;15;49;44;2;nein
2019_03_14 13:58;26;2;1;control;18;30;1;33;30;0;0;0.71999999999999997;0.28000000000000003;0.0;0.0;9;88;1;14;0.55000000000000004;0.39000000000000001;0.01;0.049999999999999899;0;9.349838307169193;15;49;44;2;nein
2019_03_14 13:58;26;2;1;control;19;105;0;49;74;63;58;0.84999999999999998;0.080000000000000002;0.02;0.050000000000000003;97;5;86;8;0.25;0.52000000000000002;0.070000000000000007;0.16;0;11.049854247135045;15;49;44;2;nein
2019_03_14 13:58;26;2;1;control;20;22;1;32;55;0;0;0.39000000000000001;0.60999999999999999;0.0;0.0;93;72;59;22;0.20000000000000001;0.11;0.14000000000000001;0.55000000000000004;0;16.299913180106614;15;49;44;2;nein
2019_03_14 13:58;26;2;1;control;21;56;1;28;84;37;41;0.68000000000000005;0.28000000000000003;0.02;0.0199999999999999;6;95;0;0;0.72999999999999998;0.27000000000000002;0.0;0.0;0;17.232943835835613;15;49;44;2;nein
2019_03_14 13:58;26;2;1;control;22;84;0;43;10;5;45;0.78000000000000003;0.13;0.059999999999999998;0.029999999999999999;87;1;0;0;0.57999999999999996;0.41999999999999998;0.0;0.0;1;3.666711995610058;15;49;44;2;nein
2019_03_14 13:58;26;2;1;control;23;97;0;17;33;32;74;0.94999999999999996;0.01;0.029999999999999999;0.01;76;23;0;0;0.33000000000000002;0.67000000000000004;0.0;0.0;1;15.899608043620901;15;49;44;2;nein
2019_03_14 13:58;26;2;1;control;24;146;0;25;5;64;35;0.94999999999999996;0.02;0.01;0.02;47;97;12;79;0.20999999999999999;0.029999999999999999;0.02;0.73999999999999999;1;6.983173233429625;15;49;44;2;nein
2019_03_14 13:58;26;2;1;control;25;54;0;44;79;78;52;0.79000000000000004;0.19;0.01;0.0099999999999999603;96;1;0;0;0.28000000000000003;0.71999999999999997;0.0;0.0;0;8.999833865146684;15;49;44;2;nein
2019_03_14 13:58;26;2;1;control;26;24;0;35;27;0;0;0.070000000000000007;0.93000000000000005;0.0;0.0;62;3;81;95;0.35999999999999999;0.55000000000000004;0.01;0.080000000000000002;1;13.749884298941652;15;49;44;2;nein
2019_03_14 13:58;26;2;1;control;27;25;1;50;53;0;0;0.82999999999999996;0.17000000000000001;0.0;0.0;83;16;97;4;0.45000000000000001;0.29999999999999999;0.11;0.14000000000000001;0;9.599982231909507;15;49;44;2;nein
2019_03_14 13:58;26;2;1;control;28;138;1;8;20;43;51;0.38;0.5;0.02;0.10000000000000001;72;82;70;1;0.39000000000000001;0.050000000000000003;0.070000000000000007;0.48999999999999999;1;15.616605659682136;15;49;44;2;nein
2019_03_14 13:58;26;2;1;control;29;124;0;37;65;15;41;0.17999999999999999;0.45000000000000001;0.02;0.34999999999999998;40;7;98;30;0.070000000000000007;0.45000000000000001;0.45000000000000001;0.029999999999999898;1;13.383007547589841;15;49;44;2;nein
2019_03_14 13:58;26;2;1;control;30;75;1;67;80;36;81;0.81999999999999995;0.080000000000000002;0.059999999999999998;0.040000000000000001;3;97;0;0;0.32000000000000001;0.68000000000000005;0.0;0.0;1;5.216516049492839;15;49;44;2;nein
2019_03_14 13:58;26;2;1;control;31;21;1;64;28;0;0;0.080000000000000002;0.92000000000000004;0.0;0.0;50;1;88;13;0.57999999999999996;0.13;0.02;0.27000000000000002;1;13.01644446397313;15;49;44;2;nein
2019_03_14 13:58;26;2;1;control;32;47;0;2;40;0;0;0.45000000000000001;0.55000000000000004;0.0;0.0;93;89;11;56;0.58999999999999997;0.070000000000000007;0.28000000000000003;0.059999999999999998;1;3.8168135527553204;15;49;44;2;nein
2019_03_14 13:58;26;2;1;control;33;103;1;38;49;89;50;0.89000000000000001;0.070000000000000007;0.01;0.029999999999999999;6;64;99;27;0.70999999999999996;0.17999999999999999;0.059999999999999998;0.050000000000000003;0;5.800026235194764;15;49;44;2;nein
2019_03_14 13:58;26;2;1;control;34;32;0;19;81;0;0;0.93000000000000005;0.070000000000000007;0.0;0.0;1;65;41;68;0.45000000000000001;0.050000000000000003;0.059999999999999998;0.44;1;11.283233625694265;15;49;44;2;nein
2019_03_14 13:58;26;2;1;control;35;31;0;10;59;0;0;0.23999999999999999;0.76000000000000001;0.0;0.0;1;79;53;73;0.23000000000000001;0.58999999999999997;0.050000000000000003;0.13;0;4.799957279609316;15;49;44;2;nein
2019_03_14 13:58;26;2;1;control;36;52;0;71;51;10;54;0.22;0.12;0.19;0.46999999999999997;91;1;0;0;0.29999999999999999;0.69999999999999996;0.0;0.0;0;5.566558336906837;15;49;44;2;nein
2019_03_14 13:58;26;2;1;control;37;48;1;13;32;0;0;0.90000000000000002;0.10000000000000001;0.0;0.0;24;99;84;94;0.62;0.14999999999999999;0.20000000000000001;0.029999999999999999;1;9.149856524272764;15;49;44;2;nein
2019_03_14 13:58;26;2;1;control;38;111;1;51;36;48;27;0.93000000000000005;0.01;0.01;0.049999999999999899;31;78;30;53;0.55000000000000004;0.16;0.029999999999999999;0.26000000000000001;0;7.7333080175458235;15;49;44;2;nein
2019_03_14 13:58;26;2;1;control;39;70;1;66;55;69;50;0.22;0.29999999999999999;0.29999999999999999;0.17999999999999999;2;90;0;0;0.34000000000000002;0.66000000000000003;0.0;0.0;1;3.5832459094103797;15;49;44;2;nein
2019_03_14 13:58;26;2;1;control;40;149;0;14;89;73;53;0.93999999999999995;0.01;0.01;0.040000000000000001;97;45;6;13;0.34000000000000002;0.01;0.40999999999999998;0.23999999999999999;1;5.549834843353892;15;49;44;2;nein
2019_03_14 13:58;26;2;1;control;41;17;0;81;52;0;0;0.059999999999999998;0.93999999999999995;0.0;0.0;34;3;69;41;0.01;0.22;0.75;0.02;0;5.616688727108794;15;49;44;2;nein
2019_03_14 13:58;26;2;1;control;42;126;1;16;55;51;42;0.68999999999999995;0.23999999999999999;0.01;0.060000000000000102;66;4;1;5;0.46999999999999997;0.38;0.089999999999999997;0.059999999999999998;1;6.100049102791672;15;49;44;2;nein
2019_03_14 13:58;26;2;1;control;43;110;0;47;44;23;52;0.13;0.27000000000000002;0.040000000000000001;0.56000000000000005;99;2;30;22;0.28999999999999998;0.5;0.11;0.10000000000000001;0;9.766505481648437;15;49;44;2;nein
2019_03_14 13:58;26;2;1;control;44;34;0;32;48;0;0;0.28000000000000003;0.71999999999999997;0.0;0.0;97;83;7;62;0.040000000000000001;0.54000000000000004;0.35999999999999999;0.059999999999999901;1;5.6500119148840895;15;49;44;2;nein
2019_03_14 13:58;26;2;1;control;45;136;0;29;67;14;75;0.46000000000000002;0.29999999999999999;0.20999999999999999;0.0300000000000001;70;86;1;85;0.31;0.39000000000000001;0.27000000000000002;0.029999999999999898;1;8.333145923810662;15;49;44;2;nein
2019_03_14 13:58;26;2;1;control;46;78;1;74;36;34;3;0.14999999999999999;0.64000000000000001;0.13;0.080000000000000002;1;83;0;0;0.41999999999999998;0.57999999999999996;0.0;0.0;1;5.199878830602756;15;49;44;2;nein
2019_03_14 13:58;26;2;1;control;47;62;0;12;45;16;50;0.20999999999999999;0.76000000000000001;0.02;0.01;92;15;0;0;0.20999999999999999;0.79000000000000004;0.0;0.0;0;5.333235405710639;15;49;44;2;nein
2019_03_14 13:58;26;2;1;control;48;41;1;99;40;0;0;0.89000000000000001;0.11;0.0;0.0;1;67;52;46;0.51000000000000001;0.38;0.029999999999999999;0.080000000000000002;0;2.566583032627932;15;49;44;2;nein
2019_03_14 13:58;26;2;1;control;49;87;0;10;30;63;4;0.56999999999999995;0.12;0.16;0.14999999999999999;86;2;0;0;0.42999999999999999;0.56999999999999995;0.0;0.0;1;12.283192252342815;15;49;44;2;nein
2019_03_14 13:58;26;2;1;control;50;142;1;98;65;64;84;0.88;0.070000000000000007;0.01;0.040000000000000001;5;68;60;16;0.46000000000000002;0.080000000000000002;0.27000000000000002;0.19;0;2.5000428166076745;15;49;44;2;nein
2019_03_14 13:58;26;2;1;control;51;4;0;40;43;0;0;0.58999999999999997;0.40999999999999998;0.0;0.0;2;33;88;81;0.69999999999999996;0.14000000000000001;0.13;0.029999999999999999;0;10.833131330884498;15;49;44;2;nein
2019_03_14 13:58;26;2;1;control;52;150;0;25;21;78;38;0.84999999999999998;0.059999999999999998;0.050000000000000003;0.040000000000000001;31;43;64;95;0.059999999999999998;0.45000000000000001;0.13;0.35999999999999999;1;6.349845363089571;15;49;44;2;nein
2019_03_14 13:58;26;2;1;control;53;133;1;59;88;60;36;0.67000000000000004;0.070000000000000007;0.12;0.14000000000000001;7;91;66;61;0.25;0.68999999999999995;0.01;0.0500000000000001;1;2.983176440666739;15;49;44;2;nein
2019_03_14 13:58;26;2;1;control;54;27;0;44;26;0;0;0.35999999999999999;0.64000000000000001;0.0;0.0;63;10;3;5;0.58999999999999997;0.19;0.14999999999999999;0.070000000000000007;1;4.449852451082279;15;49;44;2;nein
2019_03_14 13:58;26;2;1;control;55;10;0;45;62;0;0;0.059999999999999998;0.93999999999999995;0.0;0.0;17;99;28;67;0.58999999999999997;0.34000000000000002;0.01;0.059999999999999998;0;5.533217509330825;15;49;44;2;nein
2019_03_14 13:58;26;2;1;control;56;40;1;45;49;0;0;0.68999999999999995;0.31;0.0;0.0;2;92;65;73;0.23999999999999999;0.59999999999999998;0.11;0.050000000000000003;1;5.099876553465037;15;49;44;2;nein
2019_03_14 13:58;26;2;1;control;57;98;1;27;10;31;79;0.23000000000000001;0.67000000000000004;0.070000000000000007;0.029999999999999999;25;99;0;0;0.38;0.62;0.0;0.0;1;4.599789156269253;15;49;44;2;nein
2019_03_14 13:58;26;2;1;control;58;71;0;68;55;36;51;0.20000000000000001;0.75;0.02;0.029999999999999999;38;81;0;0;0.52000000000000002;0.47999999999999998;0.0;0.0;0;7.116652645697741;15;49;44;2;nein
2019_03_14 13:58;26;2;1;control;59;35;1;33;37;0;0;0.88;0.12;0.0;0.0;63;4;79;98;0.16;0.46000000000000002;0.17000000000000001;0.20999999999999999;1;12.433307921328833;15;49;44;2;nein
2019_03_14 13:58;26;2;1;control;60;134;1;57;48;50;55;0.02;0.62;0.17999999999999999;0.17999999999999999;80;96;15;18;0.23999999999999999;0.35999999999999999;0.33000000000000002;0.070000000000000007;1;7.899804647221572;15;49;44;2;nein
2019_03_14 13:58;26;2;1;control;61;15;0;77;81;0;0;0.28000000000000003;0.71999999999999997;0.0;0.0;98;14;87;18;0.55000000000000004;0.23000000000000001;0.16;0.059999999999999901;0;5.066668826206296;15;49;44;2;nein
2019_03_14 13:58;26;2;1;control;62;81;1;67;38;52;65;0.27000000000000002;0.35999999999999999;0.01;0.35999999999999999;2;77;0;0;0.14000000000000001;0.85999999999999999;0.0;0.0;1;2.3166280141208517;15;49;44;2;nein
2019_03_14 13:58;26;2;1;control;63;59;1;56;47;83;90;0.31;0.12;0.54000000000000004;0.029999999999999898;10;98;0;0;0.46999999999999997;0.53000000000000003;0.0;0.0;1;1.7666100375599854;15;49;44;2;nein
2019_03_14 13:58;26;2;1;control;64;102;1;40;56;53;17;0.28000000000000003;0.26000000000000001;0.14999999999999999;0.31;1;76;29;62;0.68000000000000005;0.23000000000000001;0.050000000000000003;0.039999999999999897;0;11.433142748646787;15;49;44;2;nein
2019_03_14 13:58;26;2;1;control;65;50;0;15;20;0;0;0.82999999999999996;0.17000000000000001;0.0;0.0;97;18;88;87;0.56999999999999995;0.39000000000000001;0.01;0.029999999999999999;1;12.15008872819908;15;49;44;2;nein
2019_03_14 13:58;26;2;1;control;66;128;0;70;49;27;54;0.27000000000000002;0.53000000000000003;0.02;0.17999999999999999;72;97;6;20;0.29999999999999999;0.39000000000000001;0.22;0.0899999999999999;1;6.666674150219023;15;49;44;2;nein
2019_03_14 13:58;26;2;1;control;67;90;1;27;44;50;72;0.68000000000000005;0.28999999999999998;0.02;0.0099999999999999707;6;96;0;0;0.46999999999999997;0.53000000000000003;0.0;0.0;1;3.1334187954962545;15;49;44;2;nein
2019_03_14 13:58;26;2;1;control;68;122;1;35;58;25;31;0.81999999999999995;0.070000000000000007;0.080000000000000002;0.029999999999999999;18;64;68;89;0.63;0.17000000000000001;0.11;0.089999999999999997;0;8.6998231850489;15;49;44;2;nein
2019_03_14 13:58;26;2;1;control;69;118;0;62;52;65;68;0.40999999999999998;0.44;0.10000000000000001;0.0500000000000001;79;20;14;37;0.56999999999999995;0.23999999999999999;0.14000000000000001;0.050000000000000003;0;8.833165006868512;15;49;44;2;nein
2019_03_14 13:58;26;2;1;control;70;69;1;54;34;64;49;0.34000000000000002;0.25;0.20999999999999999;0.20000000000000001;14;98;0;0;0.62;0.38;0.0;0.0;0;6.099866290308;15;49;44;2;nein
2019_03_14 13:58;26;2;1;control;71;18;1;68;50;0;0;0.029999999999999999;0.96999999999999997;0.0;0.0;34;64;15;89;0.65000000000000002;0.029999999999999999;0.050000000000000003;0.27000000000000002;0;6.516608193398952;15;49;44;2;nein
2019_03_14 13:58;26;2;1;control;72;44;0;79;74;0;0;0.71999999999999997;0.28000000000000003;0.0;0.0;3;67;15;36;0.41999999999999998;0.53000000000000003;0.02;0.029999999999999999;0;5.833197720680801;15;49;44;2;nein
2019_03_14 13:58;26;2;1;control;73;93;1;87;81;73;98;0.80000000000000004;0.040000000000000001;0.14999999999999999;0.0099999999999999499;5;71;0;0;0.51000000000000001;0.48999999999999999;0.0;0.0;0;6.366508881319078;15;49;44;2;nein
2019_03_14 13:58;26;2;1;control;74;100;1;27;14;59;52;0.02;0.95999999999999996;0.01;0.01;17;98;0;0;0.48999999999999999;0.51000000000000001;0.0;0.0;1;12.283093790180828;15;49;44;2;nein
2019_03_14 13:58;26;2;1;control;75;43;1;60;83;0;0;0.23000000000000001;0.77000000000000002;0.0;0.0;72;5;70;12;0.29999999999999999;0.40999999999999998;0.12;0.17000000000000001;0;4.9331134024319;15;49;44;2;nein
2019_03_14 13:58;26;3;1;timed;1;148;1;37;63;55;10;0.72999999999999998;0.070000000000000007;0.029999999999999999;0.17000000000000001;80;14;23;70;0.46999999999999997;0.10000000000000001;0.23000000000000001;0.20000000000000001;1;4.922386158336849;15;49;44;2;nein
2019_03_14 13:58;26;3;1;timed;2;127;1;89;26;62;79;0.02;0.28999999999999998;0.53000000000000003;0.16;96;6;60;13;0.53000000000000003;0.25;0.17000000000000001;0.050000000000000003;1;4.549892252888185;15;49;44;2;nein
2019_03_14 13:58;26;3;1;timed;3;51;1;52;23;43;16;0.60999999999999999;0.20999999999999999;0.01;0.17000000000000001;92;7;0;0;0.14999999999999999;0.84999999999999998;0.0;0.0;0;2.800065684204583;15;49;44;2;nein
2019_03_14 13:58;26;3;1;timed;4;11;1;17;36;0;0;0.14000000000000001;0.85999999999999999;0.0;0.0;19;41;34;95;0.88;0.02;0.050000000000000003;0.050000000000000003;0;3.4832455566142926;15;49;44;2;nein
2019_03_14 13:58;26;3;1;timed;5;109;0;75;28;16;56;0.19;0.070000000000000007;0.059999999999999998;0.68000000000000005;3;50;98;44;0.5;0.02;0.34999999999999998;0.13;0;2.9165733628101407;15;49;44;2;nein
2019_03_14 13:58;26;3;1;timed;6;150;0;25;21;78;38;0.84999999999999998;0.059999999999999998;0.050000000000000003;0.040000000000000001;31;43;64;95;0.059999999999999998;0.45000000000000001;0.13;0.35999999999999999;1;3.3664822612554417;15;49;44;2;nein
2019_03_14 13:58;26;3;1;timed;7;78;0;74;36;34;3;0.14999999999999999;0.64000000000000001;0.13;0.080000000000000002;1;83;0;0;0.41999999999999998;0.57999999999999996;0.0;0.0;1;3.6832241322745176;15;49;44;2;nein
2019_03_14 13:58;26;3;1;timed;8;57;0;52;35;23;47;0.22;0.68000000000000005;0.040000000000000001;0.059999999999999998;71;7;0;0;0.28999999999999998;0.70999999999999996;0.0;0.0;0;3.09992402056605;15;49;44;2;nein
2019_03_14 13:58;26;3;1;timed;9;84;0;43;10;5;45;0.78000000000000003;0.13;0.059999999999999998;0.029999999999999999;87;1;0;0;0.57999999999999996;0.41999999999999998;0.0;0.0;1;4.083240617469983;15;49;44;2;nein
2019_03_14 13:58;26;3;1;timed;10;53;1;26;70;50;80;0.29999999999999999;0.59999999999999998;0.040000000000000001;0.059999999999999998;89;1;0;0;0.40999999999999998;0.58999999999999997;0.0;0.0;0;3.6165604376469673;15;49;44;2;nein
2019_03_14 13:58;26;3;1;timed;11;111;1;51;36;48;27;0.93000000000000005;0.01;0.01;0.049999999999999899;31;78;30;53;0.55000000000000004;0.16;0.029999999999999999;0.26000000000000001;0;3.1498639009168983;15;49;44;2;nein
2019_03_14 13:58;26;3;1;timed;12;94;0;84;86;93;39;0.78000000000000003;0.20000000000000001;0.01;0.0099999999999999603;9;83;0;0;0.46999999999999997;0.53000000000000003;0.0;0.0;0;2.516656943394537;15;49;44;2;nein
2019_03_14 13:58;26;3;1;timed;13;96;1;51;54;39;7;0.17000000000000001;0.26000000000000001;0.10000000000000001;0.46999999999999997;24;96;0;0;0.28000000000000003;0.71999999999999997;0.0;0.0;1;2.5832548896723893;15;49;44;2;nein
2019_03_14 13:58;26;3;1;timed;14;64;0;48;39;34;19;0.46000000000000002;0.5;0.02;0.02;13;92;0;0;0.68999999999999995;0.31;0.0;0.0;0;2.9665652003932337;15;49;44;2;nein
2019_03_14 13:58;26;3;1;timed;15;105;1;49;74;63;58;0.84999999999999998;0.080000000000000002;0.02;0.050000000000000003;97;5;86;8;0.25;0.52000000000000002;0.070000000000000007;0.16;0;4.099904777146548;15;49;44;2;nein
2019_03_14 13:58;26;3;1;timed;16;40;1;45;49;0;0;0.68999999999999995;0.31;0.0;0.0;2;92;65;73;0.23999999999999999;0.59999999999999998;0.11;0.050000000000000003;1;3.4332469838345787;15;49;44;2;nein
2019_03_14 13:58;26;3;1;timed;17;29;0;44;51;0;0;0.78000000000000003;0.22;0.0;0.0;74;1;68;82;0.69999999999999996;0.28000000000000003;0.01;0.01;1;3.9331134024323546;15;49;44;2;nein
2019_03_14 13:58;26;3;1;timed;18;137;1;71;22;28;17;0.25;0.46000000000000002;0.050000000000000003;0.23999999999999999;3;98;92;69;0.42999999999999999;0.23999999999999999;0.20000000000000001;0.13;0;3.1665184388843954;15;49;44;2;nein
2019_03_14 13:58;26;3;1;timed;19;131;1;83;41;81;88;0.23999999999999999;0.58999999999999997;0.10000000000000001;0.070000000000000007;82;97;4;17;0.26000000000000001;0.46999999999999997;0.11;0.16;0;3.883246326351127;15;49;44;2;nein
2019_03_14 13:58;26;3;1;timed;20;115;0;50;28;61;79;0.83999999999999997;0.040000000000000001;0.059999999999999998;0.059999999999999998;1;26;97;55;0.45000000000000001;0.080000000000000002;0.40999999999999998;0.060000000000000102;0;3.7833620755181983;15;49;44;2;nein
2019_03_14 13:58;26;3;1;timed;21;58;0;37;58;76;34;0.20999999999999999;0.57999999999999996;0.19;0.020000000000000101;86;5;0;0;0.47999999999999998;0.52000000000000002;0.0;0.0;0;4.216731896513011;15;49;44;2;nein
2019_03_14 13:58;26;3;1;timed;22;136;0;29;67;14;75;0.46000000000000002;0.29999999999999999;0.20999999999999999;0.0300000000000001;70;86;1;85;0.31;0.39000000000000001;0.27000000000000002;0.029999999999999898;1;3.583339239994075;15;49;44;2;nein
2019_03_14 13:58;26;3;1;timed;23;82;0;78;66;30;27;0.28999999999999998;0.58999999999999997;0.080000000000000002;0.040000000000000001;90;6;0;0;0.82999999999999996;0.17000000000000001;0.0;0.0;1;3.6332345397568133;15;49;44;2;nein
2019_03_14 13:58;26;3;1;timed;24;77;1;24;17;99;41;0.17999999999999999;0.13;0.10000000000000001;0.58999999999999997;12;97;0;0;0.59999999999999998;0.40000000000000002;0.0;0.0;0;4.333392239578188;15;49;44;2;nein
2019_03_14 13:58;26;3;1;timed;25;129;0;12;29;81;36;0.17999999999999999;0.79000000000000004;0.01;0.02;5;19;95;92;0.47999999999999998;0.26000000000000001;0.13;0.13;1;4.69990176234478;15;49;44;2;nein
2019_03_14 13:58;26;3;1;timed;26;52;0;71;51;10;54;0.22;0.12;0.19;0.46999999999999997;91;1;0;0;0.29999999999999999;0.69999999999999996;0.0;0.0;0;2.933240408999609;15;49;44;2;nein
2019_03_14 13:58;26;3;1;timed;27;72;0;63;82;51;61;0.01;0.96999999999999997;0.01;0.01;92;12;0;0;0.89000000000000001;0.11;0.0;0.0;0;2.083288726018054;15;49;44;2;nein
2019_03_14 13:58;26;3;1;timed;28;120;0;64;40;48;51;0.19;0.02;0.070000000000000007;0.71999999999999997;97;9;79;94;0.23000000000000001;0.54000000000000004;0.01;0.22;0;4.049927372127968;15;49;44;2;nein
2019_03_14 13:58;26;3;1;timed;29;126;0;16;55;51;42;0.68999999999999995;0.23999999999999999;0.01;0.060000000000000102;66;4;1;5;0.46999999999999997;0.38;0.089999999999999997;0.059999999999999998;1;3.6332284460072515;15;49;44;2;nein
2019_03_14 13:58;26;3;1;timed;30;22;1;32;55;0;0;0.39000000000000001;0.60999999999999999;0.0;0.0;93;72;59;22;0.20000000000000001;0.11;0.14000000000000001;0.55000000000000004;0;3.200029249997442;15;49;44;2;nein
2019_03_14 13:58;26;3;1;timed;31;24;1;35;27;0;0;0.070000000000000007;0.93000000000000005;0.0;0.0;62;3;81;95;0.35999999999999999;0.55000000000000004;0.01;0.080000000000000002;1;4.249892798118253;15;49;44;2;nein
2019_03_14 13:58;26;3;1;timed;32;113;0;85;65;39;64;0.44;0.34000000000000002;0.13;0.089999999999999997;87;2;4;35;0.67000000000000004;0.17000000000000001;0.11;0.049999999999999899;1;2.0665780614117466;15;49;44;2;nein
2019_03_14 13:58;26;3;1;timed;33;149;1;14;89;73;53;0.93999999999999995;0.01;0.01;0.040000000000000001;97;45;6;13;0.34000000000000002;0.01;0.40999999999999998;0.23999999999999999;1;3.4499326319960346;15;49;44;2;nein
2019_03_14 13:58;26;3;1;timed;34;20;1;44;40;0;0;0.91000000000000003;0.089999999999999997;0.0;0.0;29;5;80;99;0.25;0.40000000000000002;0.26000000000000001;0.089999999999999997;0;3.116769389107958;15;49;44;2;nein
2019_03_14 13:58;26;3;1;timed;35;71;1;68;55;36;51;0.20000000000000001;0.75;0.02;0.029999999999999999;38;81;0;0;0.52000000000000002;0.47999999999999998;0.0;0.0;0;3.5665894471012507;15;49;44;2;nein
2019_03_14 13:58;26;3;1;timed;36;110;1;47;44;23;52;0.13;0.27000000000000002;0.040000000000000001;0.56000000000000005;99;2;30;22;0.28999999999999998;0.5;0.11;0.10000000000000001;0;3.6167195165799058;15;49;44;2;nein
2019_03_14 13:58;26;3;1;timed;37;99;1;8;24;15;73;0.56000000000000005;0.35999999999999999;0.070000000000000007;0.0099999999999999499;88;12;0;0;0.52000000000000002;0.47999999999999998;0.0;0.0;1;3.4667225153457366;15;49;44;2;nein
2019_03_14 13:58;26;3;1;timed;38;41;0;99;40;0;0;0.89000000000000001;0.11;0.0;0.0;1;67;52;46;0.51000000000000001;0.38;0.029999999999999999;0.080000000000000002;0;1.6332281252834946;15;49;44;2;nein
2019_03_14 13:58;26;3;1;timed;39;70;0;66;55;69;50;0.22;0.29999999999999999;0.29999999999999999;0.17999999999999999;2;90;0;0;0.34000000000000002;0.66000000000000003;0.0;0.0;1;1.866785184748096;15;49;44;2;nein
2019_03_14 13:58;26;3;1;timed;40;88;1;77;13;12;7;0.12;0.19;0.66000000000000003;0.029999999999999898;94;2;0;0;0.40999999999999998;0.58999999999999997;0.0;0.0;0;2.4166030297483303;15;49;44;2;nein
2019_03_14 13:58;26;3;1;timed;41;36;0;70;17;0;0;0.33000000000000002;0.67000000000000004;0.0;0.0;84;1;12;88;0.22;0.27000000000000002;0.14000000000000001;0.37;1;4.516682922010659;15;49;44;2;nein
2019_03_14 13:58;26;3;1;timed;42;124;1;37;65;15;41;0.17999999999999999;0.45000000000000001;0.02;0.34999999999999998;40;7;98;30;0.070000000000000007;0.45000000000000001;0.45000000000000001;0.029999999999999898;1;4.200042399666927;15;49;44;2;nein
2019_03_14 13:58;26;3;1;timed;43;28;0;47;30;0;0;0.97999999999999998;0.02;0.0;0.0;55;48;77;13;0.070000000000000007;0.26000000000000001;0.42999999999999999;0.23999999999999999;0;2.083232278655032;15;49;44;2;nein
2019_03_14 13:58;26;3;1;timed;44;143;0;88;44;56;73;0.95999999999999996;0.02;0.01;0.01;20;3;87;32;0.19;0.40000000000000002;0.28000000000000003;0.13;0;1.6667370120549094;15;49;44;2;nein
2019_03_14 13:58;26;3;1;timed;45;54;1;44;79;78;52;0.79000000000000004;0.19;0.01;0.0099999999999999603;96;1;0;0;0.28000000000000003;0.71999999999999997;0.0;0.0;0;3.9165749664284704;15;49;44;2;nein
2019_03_14 13:58;26;3;1;timed;46;146;1;25;5;64;35;0.94999999999999996;0.02;0.01;0.02;47;97;12;79;0.20999999999999999;0.029999999999999999;0.02;0.73999999999999999;1;3.783229616648441;15;49;44;2;nein
2019_03_14 13:58;26;3;1;timed;47;61;0;43;18;39;70;0.75;0.089999999999999997;0.089999999999999997;0.070000000000000007;16;66;0;0;0.64000000000000001;0.35999999999999999;0.0;0.0;0;2.999888388168074;15;49;44;2;nein
2019_03_14 13:58;26;3;1;timed;48;98;1;27;10;31;79;0.23000000000000001;0.67000000000000004;0.070000000000000007;0.029999999999999999;25;99;0;0;0.38;0.62;0.0;0.0;1;2.6332553867941897;15;49;44;2;nein
2019_03_14 13:58;26;3;1;timed;49;86;0;56;30;57;88;0.20000000000000001;0.35999999999999999;0.080000000000000002;0.35999999999999999;98;2;0;0;0.77000000000000002;0.23000000000000001;0.0;0.0;1;2.1332622823529164;15;49;44;2;nein
2019_03_14 13:58;26;3;1;timed;50;25;0;50;53;0;0;0.82999999999999996;0.17000000000000001;0.0;0.0;83;16;97;4;0.45000000000000001;0.29999999999999999;0.11;0.14000000000000001;0;2.299930178460272;15;49;44;2;nein
2019_03_14 13:58;26;3;1;timed;51;138;1;8;20;43;51;0.38;0.5;0.02;0.10000000000000001;72;82;70;1;0.39000000000000001;0.050000000000000003;0.070000000000000007;0.48999999999999999;1;4.533192492885519;15;49;44;2;nein
2019_03_14 13:58;26;3;1;timed;52;101;1;30;96;61;45;0.65000000000000002;0.14000000000000001;0.11;0.10000000000000001;3;98;63;89;0.75;0.19;0.040000000000000001;0.02;0;3.133214815251904;15;49;44;2;nein
2019_03_14 13:58;26;3;1;timed;53;139;0;44;31;16;8;0.79000000000000004;0.070000000000000007;0.13;0.0099999999999999499;92;58;2;88;0.55000000000000004;0.070000000000000007;0.34000000000000002;0.039999999999999897;1;3.799731490155864;15;49;44;2;nein
2019_03_14 13:58;26;3;1;timed;54;114;0;57;39;79;97;0.77000000000000002;0.02;0.13;0.080000000000000002;92;36;6;1;0.54000000000000004;0.12;0.13;0.20999999999999999;1;3.2665431666778204;15;49;44;2;nein
2019_03_14 13:58;26;3;1;timed;55;100;1;27;14;59;52;0.02;0.95999999999999996;0.01;0.01;17;98;0;0;0.48999999999999999;0.51000000000000001;0.0;0.0;1;3.233288293041369;15;49;44;2;nein
2019_03_14 13:58;26;3;1;timed;56;60;1;64;59;57;96;0.83999999999999997;0.13;0.02;0.01;83;6;0;0;0.54000000000000004;0.46000000000000002;0.0;0.0;0;4.199779085546197;15;49;44;2;nein
2019_03_14 13:58;26;3;1;timed;57;133;1;59;88;60;36;0.67000000000000004;0.070000000000000007;0.12;0.14000000000000001;7;91;66;61;0.25;0.68999999999999995;0.01;0.0500000000000001;0;2.3665829684832715;15;49;44;2;nein
2019_03_14 13:58;26;3;1;timed;58;63;1;56;78;42;36;0.93000000000000005;0.040000000000000001;0.01;0.0199999999999999;2;72;0;0;0.32000000000000001;0.68000000000000005;0.0;0.0;0;4.366522672436076;15;49;44;2;nein
2019_03_14 13:58;26;3;1;timed;59;26;0;76;41;0;0;0.57999999999999996;0.41999999999999998;0.0;0.0;61;79;84;2;0.13;0.029999999999999999;0.67000000000000004;0.17000000000000001;1;3.9499039272291157;15;49;44;2;nein
2019_03_14 13:58;26;3;1;timed;60;66;0;89;23;27;15;0.070000000000000007;0.54000000000000004;0.17000000000000001;0.22;9;73;0;0;0.72999999999999998;0.27000000000000002;0.0;0.0;0;2.9999233470466606;15;49;44;2;nein
2019_03_14 13:58;26;3;1;timed;61;103;0;38;49;89;50;0.89000000000000001;0.070000000000000007;0.01;0.029999999999999999;6;64;99;27;0.70999999999999996;0.17999999999999999;0.059999999999999998;0.050000000000000003;0;3.4498607898976843;15;49;44;2;nein
2019_03_14 13:58;26;3;1;timed;62;81;1;67;38;52;65;0.27000000000000002;0.35999999999999999;0.01;0.35999999999999999;2;77;0;0;0.14000000000000001;0.85999999999999999;0.0;0.0;1;2.783195619941125;15;49;44;2;nein
2019_03_14 13:58;26;3;1;timed;63;5;0;70;5;0;0;0.98999999999999999;0.01;0.0;0.0;92;87;47;1;0.44;0.02;0.16;0.38;0;1.849906781669688;15;49;44;2;nein
2019_03_14 13:58;26;3;1;timed;64;135;1;48;60;41;51;0.14000000000000001;0.40000000000000002;0.089999999999999997;0.37;94;1;85;65;0.64000000000000001;0.29999999999999999;0.01;0.050000000000000003;1;2.649937186272382;15;49;44;2;nein
2019_03_14 13:58;26;3;1;timed;65;89;1;26;41;13;56;0.059999999999999998;0.40999999999999998;0.050000000000000003;0.47999999999999998;5;97;0;0;0.37;0.63;0.0;0.0;1;2.149911047294154;15;49;44;2;nein
2019_03_14 13:58;26;3;1;timed;66;48;1;13;32;0;0;0.90000000000000002;0.10000000000000001;0.0;0.0;24;99;84;94;0.62;0.14999999999999999;0.20000000000000001;0.029999999999999999;1;5.166572320457817;15;49;44;2;nein
2019_03_14 13:58;26;3;1;timed;67;4;1;40;43;0;0;0.58999999999999997;0.40999999999999998;0.0;0.0;2;33;88;81;0.69999999999999996;0.14000000000000001;0.13;0.029999999999999999;0;3.250021729027594;15;49;44;2;nein
2019_03_14 13:58;26;3;1;timed;68;18;0;68;50;0;0;0.029999999999999999;0.96999999999999997;0.0;0.0;34;64;15;89;0.65000000000000002;0.029999999999999999;0.050000000000000003;0.27000000000000002;0;3.466524308127191;15;49;44;2;nein
2019_03_14 13:58;26;3;1;timed;69;16;1;64;53;0;0;0.65000000000000002;0.34999999999999998;0.0;0.0;29;17;81;46;0.10000000000000001;0.01;0.44;0.45000000000000001;0;3.7333837083288017;15;49;44;2;nein
2019_03_14 13:58;26;3;1;timed;70;116;1;53;65;43;99;0.56999999999999995;0.37;0.050000000000000003;0.010000000000000101;57;72;11;87;0.67000000000000004;0.13;0.14999999999999999;0.050000000000000003;1;2.9665995178243065;15;49;44;2;nein
2019_03_14 13:58;26;3;1;timed;71;9;0;61;69;0;0;0.93999999999999995;0.060000000000000102;0.0;0.0;18;93;72;16;0.40999999999999998;0.34999999999999998;0.089999999999999997;0.14999999999999999;0;1.966575784273573;15;49;44;2;nein
2019_03_14 13:58;26;3;1;timed;72;31;1;10;59;0;0;0.23999999999999999;0.76000000000000001;0.0;0.0;1;79;53;73;0.23000000000000001;0.58999999999999997;0.050000000000000003;0.13;0;5.049985423109774;15;49;44;2;nein
2019_03_14 13:58;26;3;1;timed;73;47;0;2;40;0;0;0.45000000000000001;0.55000000000000004;0.0;0.0;93;89;11;56;0.58999999999999997;0.070000000000000007;0.28000000000000003;0.059999999999999998;0;1.7833514916374043;15;49;44;2;nein
2019_03_14 13:58;26;3;1;timed;74;10;1;45;62;0;0;0.059999999999999998;0.93999999999999995;0.0;0.0;17;99;28;67;0.58999999999999997;0.34000000000000002;0.01;0.059999999999999998;0;3.9332327116317174;15;49;44;2;nein
2019_03_14 13:58;26;3;1;timed;75;93;1;87;81;73;98;0.80000000000000004;0.040000000000000001;0.14999999999999999;0.0099999999999999499;5;71;0;0;0.51000000000000001;0.48999999999999999;0.0;0.0;0;2.833228830875669;15;49;44;2;nein
2019_03_14 13:58;26;4;1;control;1;143;0;88;44;56;73;0.95999999999999996;0.02;0.01;0.01;20;3;87;32;0.19;0.40000000000000002;0.28000000000000003;0.13;0;4.445986448142776;15;49;44;2;nein
2019_03_14 13:58;26;4;1;control;2;51;0;52;23;43;16;0.60999999999999999;0.20999999999999999;0.01;0.17000000000000001;92;7;0;0;0.14999999999999999;0.84999999999999998;0.0;0.0;0;4.766563532630244;15;49;44;2;nein
2019_03_14 13:58;26;4;1;control;3;28;1;47;30;0;0;0.97999999999999998;0.02;0.0;0.0;55;48;77;13;0.070000000000000007;0.26000000000000001;0.42999999999999999;0.23999999999999999;0;5.199850606921245;15;49;44;2;nein
2019_03_14 13:58;26;4;1;control;4;119;0;60;58;11;18;0.25;0.72999999999999998;0.01;0.01;96;23;42;85;0.44;0.48999999999999999;0.059999999999999998;0.010000000000000101;0;7.41654273370068;15;49;44;2;nein
2019_03_14 13:58;26;4;1;control;5;46;1;5;19;0;0;0.32000000000000001;0.68000000000000005;0.0;0.0;88;38;97;66;0.60999999999999999;0.20000000000000001;0.040000000000000001;0.14999999999999999;1;6.416366656414084;15;49;44;2;nein
2019_03_14 13:58;26;4;1;control;6;8;0;50;36;0;0;0.080000000000000002;0.92000000000000004;0.0;0.0;6;19;84;29;0.54000000000000004;0.070000000000000007;0.17000000000000001;0.22;0;13.81648256594326;15;49;44;2;nein
2019_03_14 13:58;26;4;1;control;7;85;1;31;22;82;50;0.11;0.69999999999999996;0.01;0.17999999999999999;3;99;0;0;0.62;0.38;0.0;0.0;1;8.866631878840963;15;49;44;2;nein
2019_03_14 13:58;26;4;1;control;8;64;0;48;39;34;19;0.46000000000000002;0.5;0.02;0.02;13;92;0;0;0.68999999999999995;0.31;0.0;0.0;0;4.733316035637472;15;49;44;2;nein
2019_03_14 13:58;26;4;1;control;9;57;1;52;35;23;47;0.22;0.68000000000000005;0.040000000000000001;0.059999999999999998;71;7;0;0;0.28999999999999998;0.70999999999999996;0.0;0.0;0;5.833195796339169;15;49;44;2;nein
2019_03_14 13:58;26;4;1;control;10;23;1;54;40;0;0;0.93000000000000005;0.070000000000000007;0.0;0.0;36;23;71;86;0.02;0.41999999999999998;0.19;0.37;0;8.716497928606259;15;49;44;2;nein
2019_03_14 13:58;26;4;1;control;11;144;1;99;93;90;71;0.65000000000000002;0.32000000000000001;0.01;0.02;97;14;48;73;0.23000000000000001;0.46000000000000002;0.13;0.17999999999999999;0;5.1165102443947035;15;49;44;2;nein
2019_03_14 13:58;26;4;1;control;12;95;1;93;88;68;85;0.83999999999999997;0.14000000000000001;0.01;0.01;2;82;0;0;0.41999999999999998;0.57999999999999996;0.0;0.0;0;5.916561816758531;15;49;44;2;nein
2019_03_14 13:58;26;4;1;control;13;91;0;74;81;86;48;0.93000000000000005;0.02;0.01;0.039999999999999897;7;64;0;0;0.13;0.87;0.0;0.0;0;10.283173329647525;15;49;44;2;nein
2019_03_14 13:58;26;4;1;control;14;12;0;53;68;0;0;0.31;0.68999999999999995;0.0;0.0;69;54;97;29;0.25;0.20999999999999999;0.20000000000000001;0.34000000000000002;0;8.733367992870171;15;49;44;2;nein
2019_03_14 13:58;26;4;1;control;15;16;1;64;53;0;0;0.65000000000000002;0.34999999999999998;0.0;0.0;29;17;81;46;0.10000000000000001;0.01;0.44;0.45000000000000001;0;7.683327084567281;15;49;44;2;nein
2019_03_14 13:58;26;4;1;control;16;147;1;39;43;76;28;0.14000000000000001;0.10000000000000001;0.10000000000000001;0.66000000000000003;6;31;68;85;0.27000000000000002;0.20000000000000001;0.22;0.31;1;18.09974184952989;15;49;44;2;nein
2019_03_14 13:58;26;4;1;control;17;45;0;97;87;0;0;0.71999999999999997;0.28000000000000003;0.0;0.0;96;11;14;4;0.25;0.029999999999999999;0.14000000000000001;0.57999999999999996;0;2.016795335652205;15;49;44;2;nein
2019_03_14 13:58;26;4;1;control;18;42;1;70;48;0;0;0.79000000000000004;0.20999999999999999;0.0;0.0;51;8;12;67;0.19;0.26000000000000001;0.28999999999999998;0.26000000000000001;0;3.299964816615102;15;49;44;2;nein
2019_03_14 13:58;26;4;1;control;19;88;1;77;13;12;7;0.12;0.19;0.66000000000000003;0.029999999999999898;94;2;0;0;0.40999999999999998;0.58999999999999997;0.0;0.0;0;16.616606942577164;15;49;44;2;nein
2019_03_14 13:58;26;4;1;control;20;113;0;85;65;39;64;0.44;0.34000000000000002;0.13;0.089999999999999997;87;2;4;35;0.67000000000000004;0.17000000000000001;0.11;0.049999999999999899;1;2.6836862950613067;15;49;44;2;nein
2019_03_14 13:58;26;4;1;control;21;125;0;37;41;10;35;0.91000000000000003;0.040000000000000001;0.029999999999999999;0.02;7;13;91;93;0.26000000000000001;0.39000000000000001;0.16;0.19;0;10.766617734927422;15;49;44;2;nein
2019_03_14 13:58;26;4;1;control;22;117;0;65;85;92;41;0.23000000000000001;0.17999999999999999;0.54000000000000004;0.050000000000000003;99;93;10;13;0.64000000000000001;0.16;0.01;0.19;1;8.966598555653036;15;49;44;2;nein
2019_03_14 13:58;26;4;1;control;23;13;1;52;56;0;0;0.46999999999999997;0.53000000000000003;0.0;0.0;94;71;27;2;0.089999999999999997;0.31;0.57999999999999996;0.020000000000000101;0;9.416618103759902;15;49;44;2;nein
2019_03_14 13:58;26;4;1;control;24;55;0;74;55;47;48;0.60999999999999999;0.31;0.070000000000000007;0.01;97;6;0;0;0.42999999999999999;0.56999999999999995;0.0;0.0;0;6.683341196408946;15;49;44;2;nein
2019_03_14 13:58;26;4;1;control;25;36;0;70;17;0;0;0.33000000000000002;0.67000000000000004;0.0;0.0;84;1;12;88;0.22;0.27000000000000002;0.14000000000000001;0.37;1;8.18314282882784;15;49;44;2;nein
2019_03_14 13:58;26;4;1;control;26;14;1;36;40;0;0;0.54000000000000004;0.46000000000000002;0.0;0.0;99;70;1;11;0.16;0.089999999999999997;0.080000000000000002;0.67000000000000004;0;14.183111077185458;15;49;44;2;nein
2019_03_14 13:58;26;4;1;control;27;112;0;70;44;98;64;0.02;0.75;0.12;0.11;33;2;63;85;0.23999999999999999;0.31;0.080000000000000002;0.37;0;11.449962138572118;15;49;44;2;nein
2019_03_14 13:58;26;4;1;control;28;139;1;44;31;16;8;0.79000000000000004;0.070000000000000007;0.13;0.0099999999999999499;92;58;2;88;0.55000000000000004;0.070000000000000007;0.34000000000000002;0.039999999999999897;1;12.900020173517987;15;49;44;2;nein
2019_03_14 13:58;26;4;1;control;29;76;1;39;62;9;28;0.01;0.51000000000000001;0.26000000000000001;0.22;77;7;0;0;0.57999999999999996;0.41999999999999998;0.0;0.0;0;8.883170956291906;15;49;44;2;nein
2019_03_14 13:58;26;4;1;control;30;94;1;84;86;93;39;0.78000000000000003;0.20000000000000001;0.01;0.0099999999999999603;9;83;0;0;0.46999999999999997;0.53000000000000003;0.0;0.0;0;4.10005038568579;15;49;44;2;nein
2019_03_14 13:58;26;4;1;control;31;116;1;53;65;43;99;0.56999999999999995;0.37;0.050000000000000003;0.010000000000000101;57;72;11;87;0.67000000000000004;0.13;0.14999999999999999;0.050000000000000003;0;8.13321994683065;15;49;44;2;nein
2019_03_14 13:58;26;4;1;control;32;58;0;37;58;76;34;0.20999999999999999;0.57999999999999996;0.19;0.020000000000000101;86;5;0;0;0.47999999999999998;0.52000000000000002;0.0;0.0;0;7.133068885988905;15;49;44;2;nein
2019_03_14 13:58;26;4;1;control;33;72;1;63;82;51;61;0.01;0.96999999999999997;0.01;0.01;92;12;0;0;0.89000000000000001;0.11;0.0;0.0;0;3.2000513799293913;15;49;44;2;nein
2019_03_14 13:58;26;4;1;control;34;141;1;93;28;60;91;0.81999999999999995;0.10000000000000001;0.01;0.070000000000000007;14;85;7;89;0.45000000000000001;0.070000000000000007;0.23999999999999999;0.23999999999999999;0;4.266557599242333;15;49;44;2;nein
2019_03_14 13:58;26;4;1;control;35;20;1;44;40;0;0;0.91000000000000003;0.089999999999999997;0.0;0.0;29;5;80;99;0.25;0.40000000000000002;0.26000000000000001;0.089999999999999997;0;10.983666827135494;15;49;44;2;nein
2019_03_14 13:58;26;4;1;control;36;5;0;70;5;0;0;0.98999999999999999;0.01;0.0;0.0;92;87;47;1;0.44;0.02;0.16;0.38;0;6.2999779662850415;15;49;44;2;nein
2019_03_14 13:58;26;4;1;control;37;80;0;47;39;45;10;0.13;0.76000000000000001;0.059999999999999998;0.050000000000000003;2;87;0;0;0.48999999999999999;0.51000000000000001;0.0;0.0;0;8.016659348822031;15;49;44;2;nein
2019_03_14 13:58;26;4;1;control;38;1;0;22;51;0;0;0.26000000000000001;0.73999999999999999;0.0;0.0;14;11;92;31;0.29999999999999999;0.40999999999999998;0.14999999999999999;0.14000000000000001;0;12.616372493585004;15;49;44;2;nein
2019_03_14 13:58;26;4;1;control;39;2;0;59;32;0;0;0.080000000000000002;0.92000000000000004;0.0;0.0;33;38;85;1;0.28999999999999998;0.050000000000000003;0.070000000000000007;0.58999999999999997;0;15.549796035791587;15;49;44;2;nein
2019_03_14 13:58;26;4;1;control;40;109;0;75;28;16;56;0.19;0.070000000000000007;0.059999999999999998;0.68000000000000005;3;50;98;44;0.5;0.02;0.34999999999999998;0.13;0;19.083063578012116;15;49;44;2;nein
2019_03_14 13:58;26;4;1;control;41;38;1;40;70;0;0;0.53000000000000003;0.46999999999999997;0.0;0.0;97;90;6;96;0.56999999999999995;0.070000000000000007;0.27000000000000002;0.089999999999999997;1;6.249889270157837;15;49;44;2;nein
2019_03_14 13:58;26;4;1;control;42;108;1;48;72;39;70;0.14000000000000001;0.66000000000000003;0.02;0.17999999999999999;81;44;98;8;0.59999999999999998;0.029999999999999999;0.050000000000000003;0.32000000000000001;0;9.999922705598692;15;49;44;2;nein
2019_03_14 13:58;26;4;1;control;43;65;1;75;64;59;52;0.59999999999999998;0.22;0.14000000000000001;0.040000000000000001;1;99;0;0;0.35999999999999999;0.64000000000000001;0.0;0.0;0;9.949801937106713;15;49;44;2;nein
2019_03_14 13:58;26;4;1;control;44;73;1;65;68;70;47;0.25;0.23000000000000001;0.20999999999999999;0.31;27;95;0;0;0.45000000000000001;0.55000000000000004;0.0;0.0;0;7.716504984527091;15;49;44;2;nein
2019_03_14 13:58;26;4;1;control;45;82;0;78;66;30;27;0.28999999999999998;0.58999999999999997;0.080000000000000002;0.040000000000000001;90;6;0;0;0.82999999999999996;0.17000000000000001;0.0;0.0;1;6.9832104373736;15;49;44;2;nein
2019_03_14 13:58;26;4;1;control;46;101;1;30;96;61;45;0.65000000000000002;0.14000000000000001;0.11;0.10000000000000001;3;98;63;89;0.75;0.19;0.040000000000000001;0.02;0;7.866620012065141;15;49;44;2;nein
2019_03_14 13:58;26;4;1;control;47;107;0;52;48;13;63;0.68000000000000005;0.19;0.050000000000000003;0.079999999999999905;54;91;33;3;0.19;0.17999999999999999;0.33000000000000002;0.29999999999999999;1;15.666432645306486;15;49;44;2;nein
2019_03_14 13:58;26;4;1;control;48;104;1;55;85;93;3;0.87;0.02;0.089999999999999997;0.02;1;2;90;8;0.35999999999999999;0.070000000000000007;0.40000000000000002;0.17000000000000001;0;4.4667074413337104;15;49;44;2;nein
2019_03_14 13:58;26;4;1;control;49;132;0;27;70;21;19;0.64000000000000001;0.23000000000000001;0.029999999999999999;0.10000000000000001;11;85;55;6;0.39000000000000001;0.46999999999999997;0.029999999999999999;0.11;1;14.21645928140606;15;49;44;2;nein
2019_03_14 13:58;26;4;1;control;50;68;0;84;27;55;62;0.01;0.050000000000000003;0.40999999999999998;0.53000000000000003;9;82;0;0;0.37;0.63;0.0;0.0;1;9.749775252898871;15;49;44;2;nein
2019_03_14 13:58;26;4;1;control;51;120;1;64;40;48;51;0.19;0.02;0.070000000000000007;0.71999999999999997;97;9;79;94;0.23000000000000001;0.54000000000000004;0.01;0.22;0;6.700051861014799;15;49;44;2;nein
2019_03_14 13:58;26;4;1;control;52;106;1;85;69;22;61;0.10000000000000001;0.58999999999999997;0.17999999999999999;0.13;20;79;91;84;0.55000000000000004;0.14999999999999999;0.26000000000000001;0.039999999999999897;0;13.766430432313427;15;49;44;2;nein
2019_03_14 13:58;26;4;1;control;53;7;1;49;29;0;0;0.95999999999999996;0.040000000000000001;0.0;0.0;23;99;64;25;0.68999999999999995;0.12;0.059999999999999998;0.13;0;6.866701796598136;15;49;44;2;nein
2019_03_14 13:58;26;4;1;control;54;96;1;51;54;39;7;0.17000000000000001;0.26000000000000001;0.10000000000000001;0.46999999999999997;24;96;0;0;0.28000000000000003;0.71999999999999997;0.0;0.0;1;9.283181989186232;15;49;44;2;nein
2019_03_14 13:58;26;4;1;control;55;37;0;14;98;0;0;0.93000000000000005;0.070000000000000007;0.0;0.0;41;2;87;66;0.17999999999999999;0.48999999999999999;0.32000000000000001;0.010000000000000101;1;14.099778091303051;15;49;44;2;nein
2019_03_14 13:58;26;4;1;control;56;115;1;50;28;61;79;0.83999999999999997;0.040000000000000001;0.059999999999999998;0.059999999999999998;1;26;97;55;0.45000000000000001;0.080000000000000002;0.40999999999999998;0.060000000000000102;0;7.433391950927216;15;49;44;2;nein
2019_03_14 13:58;26;4;1;control;57;137;1;71;22;28;17;0.25;0.46000000000000002;0.050000000000000003;0.23999999999999999;3;98;92;69;0.42999999999999999;0.23999999999999999;0.20000000000000001;0.13;0;17.74977012131967;15;49;44;2;nein
2019_03_14 13:58;26;4;1;control;58;83;0;17;12;7;41;0.65000000000000002;0.19;0.089999999999999997;0.070000000000000007;6;84;0;0;0.72999999999999998;0.27000000000000002;0.0;0.0;0;9.16643729579937;15;49;44;2;nein
2019_03_14 13:58;26;4;1;control;59;9;0;61;69;0;0;0.93999999999999995;0.060000000000000102;0.0;0.0;18;93;72;16;0.40999999999999998;0.34999999999999998;0.089999999999999997;0.14999999999999999;0;10.349825798946767;15;49;44;2;nein
2019_03_14 13:58;26;4;1;control;60;77;1;24;17;99;41;0.17999999999999999;0.13;0.10000000000000001;0.58999999999999997;12;97;0;0;0.59999999999999998;0.40000000000000002;0.0;0.0;0;8.216668393229156;15;49;44;2;nein
2019_03_14 13:58;26;4;1;control;61;39;1;14;33;0;0;0.78000000000000003;0.22;0.0;0.0;93;84;1;25;0.14000000000000001;0.23999999999999999;0.39000000000000001;0.23000000000000001;1;17.19968960364622;15;49;44;2;nein
2019_03_14 13:58;26;4;1;control;62;53;0;26;70;50;80;0.29999999999999999;0.59999999999999998;0.040000000000000001;0.059999999999999998;89;1;0;0;0.40999999999999998;0.58999999999999997;0.0;0.0;0;9.233218696008407;15;49;44;2;nein
2019_03_14 13:58;26;4;1;control;63;127;1;89;26;62;79;0.02;0.28999999999999998;0.53000000000000003;0.16;96;6;60;13;0.53000000000000003;0.25;0.17000000000000001;0.050000000000000003;1;11.966512280990173;15;49;44;2;nein
2019_03_14 13:58;26;4;1;control;64;19;1;22;53;0;0;0.13;0.87;0.0;0.0;4;93;96;65;0.46999999999999997;0.059999999999999998;0.26000000000000001;0.20999999999999999;0;9.683117331296671;15;49;44;2;nein
2019_03_14 13:58;26;4;1;control;65;66;0;89;23;27;15;0.070000000000000007;0.54000000000000004;0.17000000000000001;0.22;9;73;0;0;0.72999999999999998;0.27000000000000002;0.0;0.0;0;15.23311991312221;15;49;44;2;nein
2019_03_14 13:58;26;4;1;control;66;60;1;64;59;57;96;0.83999999999999997;0.13;0.02;0.01;83;6;0;0;0.54000000000000004;0.46000000000000002;0.0;0.0;0;7.76652664940957;15;49;44;2;nein
2019_03_14 13:58;26;4;1;control;67;114;1;57;39;79;97;0.77000000000000002;0.02;0.13;0.080000000000000002;92;36;6;1;0.54000000000000004;0.12;0.13;0.20999999999999999;0;7.016462103773847;15;49;44;2;nein
2019_03_14 13:58;26;4;1;control;68;67;0;44;42;8;89;0.88;0.070000000000000007;0.029999999999999999;0.02;10;63;0;0;0.39000000000000001;0.60999999999999999;0.0;0.0;1;18.73310083006527;15;49;44;2;nein
2019_03_14 13:58;26;4;1;control;69;130;0;37;79;23;95;0.94999999999999996;0.029999999999999999;0.01;0.01;94;4;58;49;0.46000000000000002;0.5;0.029999999999999999;0.01;0;10.733164974796637;15;49;44;2;nein
2019_03_14 13:58;26;4;1;control;70;49;1;21;30;0;0;0.53000000000000003;0.46999999999999997;0.0;0.0;93;99;89;25;0.44;0.02;0.11;0.42999999999999999;1;12.833146084172768;15;49;44;2;nein
2019_03_14 13:58;26;4;1;control;71;131;1;83;41;81;88;0.23999999999999999;0.58999999999999997;0.10000000000000001;0.070000000000000007;82;97;4;17;0.26000000000000001;0.46999999999999997;0.11;0.16;0;21.349680190407526;15;49;44;2;nein
2019_03_14 13:58;26;4;1;control;72;129;1;12;29;81;36;0.17999999999999999;0.79000000000000004;0.01;0.02;5;19;95;92;0.47999999999999998;0.26000000000000001;0.13;0.13;0;12.016478460680446;15;49;44;2;nein
2019_03_14 13:58;26;4;1;control;73;6;1;9;51;0;0;0.14999999999999999;0.84999999999999998;0.0;0.0;6;40;50;73;0.42999999999999999;0.26000000000000001;0.059999999999999998;0.25;0;6.183198634744258;15;49;44;2;nein
2019_03_14 13:58;26;4;1;control;74;145;0;91;89;90;74;0.57999999999999996;0.29999999999999999;0.11;0.010000000000000101;2;75;84;39;0.32000000000000001;0.27000000000000002;0.39000000000000001;0.0199999999999999;0;9.31654270162835;15;49;44;2;nein
2019_03_14 13:58;26;4;1;control;75;148;0;37;63;55;10;0.72999999999999998;0.070000000000000007;0.029999999999999999;0.17000000000000001;80;14;23;70;0.46999999999999997;0.10000000000000001;0.23000000000000001;0.20000000000000001;1;27.11651441380218;15;49;44;2;nein
