date;id;block;order;cond;trial;gameid;leftright;oa1;oa2;oa3;oa4;pa1;pa2;pa3;pa4;ob1;ob2;ob3;ob4;pb1;pb2;pb3;pb4;choice;rt;paytrial;payout;alter;geschlecht;comment
2019_03_18 10:22;38;0;1;practice;1;25;0;7;18;0;0;0.20999999999999999;0.79000000000000004;0.0;0.0;92;45;33;13;0.41999999999999998;0.17999999999999999;0.22;0.17999999999999999;1;11.176854005161658;11;10;22;2;nein
2019_03_18 10:22;38;0;1;practice;2;32;1;21;86;16;78;0.45000000000000001;0.41999999999999998;0.050000000000000003;0.080000000000000099;95;9;0;0;0.42999999999999999;0.56999999999999995;0.0;0.0;0;16.941035729050782;11;10;22;2;nein
2019_03_18 10:22;38;0;1;practice;3;48;0;20;25;24;35;0.32000000000000001;0.13;0.48999999999999999;0.059999999999999901;44;76;0;0;0.29999999999999999;0.69999999999999996;0.0;0.0;1;14.089888865690227;11;10;22;2;nein
2019_03_18 10:22;38;0;1;practice;4;20;1;32;11;0;0;0.40999999999999998;0.58999999999999997;0.0;0.0;1;86;42;65;0.45000000000000001;0.38;0.050000000000000003;0.12;0;21.444068020573468;11;10;22;2;nein
2019_03_18 10:22;38;0;1;practice;5;36;1;56;89;86;77;0.66000000000000003;0.080000000000000002;0.14999999999999999;0.11;29;91;0;0;0.40999999999999998;0.58999999999999997;0.0;0.0;0;14.389388310675713;11;10;22;2;nein
2019_03_18 10:22;38;0;1;practice;6;37;1;50;66;99;12;0.26000000000000001;0.71999999999999997;0.01;0.01;22;90;0;0;0.37;0.63;0.0;0.0;1;11.21730829243279;11;10;22;2;nein
2019_03_18 10:22;38;0;1;practice;7;62;0;65;52;74;55;0.16;0.12;0.14999999999999999;0.56999999999999995;72;86;2;68;0.12;0.53000000000000003;0.22;0.13;0;6.634288868383919;11;10;22;2;nein
2019_03_18 10:22;38;0;1;practice;8;40;0;29;65;30;41;0.70999999999999996;0.01;0.14999999999999999;0.13;2;59;0;0;0.32000000000000001;0.68000000000000005;0.0;0.0;1;8.395565788810927;11;10;22;2;nein
2019_03_18 10:22;38;0;1;practice;9;64;0;44;60;96;45;0.53000000000000003;0.10000000000000001;0.029999999999999999;0.34000000000000002;88;20;43;31;0.47999999999999998;0.38;0.050000000000000003;0.089999999999999997;0;22.664938922795045;11;10;22;2;nein
2019_03_18 10:22;38;0;1;practice;10;13;1;15;25;0;0;0.29999999999999999;0.69999999999999996;0.0;0.0;3;43;35;73;0.44;0.40000000000000002;0.01;0.14999999999999999;1;7.845120125826725;11;10;22;2;nein
2019_03_18 10:22;38;0;1;practice;11;58;0;44;50;85;42;0.38;0.57999999999999996;0.02;0.02;37;88;19;12;0.20000000000000001;0.29999999999999999;0.46000000000000002;0.040000000000000001;0;6.974621055767784;11;10;22;2;nein
2019_03_18 10:22;38;0;1;practice;12;23;0;99;93;0;0;0.57999999999999996;0.41999999999999998;0.0;0.0;64;10;80;81;0.13;0.55000000000000004;0.02;0.29999999999999999;0;9.566166304088256;11;10;22;2;nein
2019_03_18 10:22;38;0;1;practice;13;71;0;94;87;26;75;0.71999999999999997;0.23999999999999999;0.02;0.02;90;27;12;83;0.16;0.73999999999999999;0.02;0.080000000000000002;0;12.458130194336263;11;10;22;2;nein
2019_03_18 10:22;38;0;1;practice;14;31;0;72;59;40;92;0.59999999999999998;0.34999999999999998;0.02;0.029999999999999999;97;29;0;0;0.38;0.62;0.0;0.0;1;6.484228203309613;11;10;22;2;nein
2019_03_18 10:22;38;0;1;practice;15;16;1;50;42;0;0;0.32000000000000001;0.68000000000000005;0.0;0.0;97;2;56;31;0.35999999999999999;0.16;0.16;0.32000000000000001;0;5.713784650693924;11;10;22;2;nein
2019_03_18 10:22;38;0;1;practice;16;29;0;66;40;92;49;0.46999999999999997;0.10000000000000001;0.34000000000000002;0.089999999999999997;8;94;0;0;0.44;0.56000000000000005;0.0;0.0;1;9.56625386192627;11;10;22;2;nein
2019_03_18 10:22;38;0;1;practice;17;67;1;74;31;10;77;0.11;0.070000000000000007;0.77000000000000002;0.050000000000000003;2;23;8;97;0.56999999999999995;0.01;0.059999999999999998;0.35999999999999999;1;13.168528633818823;11;10;22;2;nein
2019_03_18 10:22;38;0;1;practice;18;17;0;27;61;0;0;0.68999999999999995;0.31;0.0;0.0;3;91;69;43;0.29999999999999999;0.33000000000000002;0.27000000000000002;0.099999999999999895;0;13.598903955465175;11;10;22;2;nein
2019_03_18 10:22;38;0;1;practice;19;61;1;51;48;56;88;0.91000000000000003;0.02;0.01;0.059999999999999998;78;21;14;82;0.55000000000000004;0.29999999999999999;0.070000000000000007;0.080000000000000002;0;22.034524408592006;11;10;22;2;nein
2019_03_18 10:22;38;0;1;practice;20;72;0;86;85;97;43;0.51000000000000001;0.14999999999999999;0.33000000000000002;0.0099999999999999499;72;29;10;90;0.01;0.11;0.65000000000000002;0.23000000000000001;0;6.684341162544115;11;10;22;2;nein
2019_03_18 10:22;38;0;1;practice;21;3;0;20;70;0;0;0.13;0.87;0.0;0.0;95;19;80;73;0.31;0.57999999999999996;0.029999999999999999;0.080000000000000002;0;4.733174061455429;11;10;22;2;nein
2019_03_18 10:22;38;0;1;practice;22;70;1;21;42;14;63;0.96999999999999997;0.01;0.01;0.01;70;2;6;76;0.23999999999999999;0.42999999999999999;0.01;0.32000000000000001;0;10.016684418777913;11;10;22;2;nein
2019_03_18 10:22;38;0;1;practice;23;27;1;68;43;98;36;0.54000000000000004;0.44;0.01;0.0099999999999999603;97;13;0;0;0.27000000000000002;0.72999999999999998;0.0;0.0;0;7.044578806705431;11;10;22;2;nein
2019_03_18 10:22;38;0;1;practice;24;56;0;47;52;64;10;0.77000000000000002;0.040000000000000001;0.11;0.080000000000000002;1;5;12;99;0.14000000000000001;0.28999999999999998;0.27000000000000002;0.29999999999999999;1;15.700271236865774;11;10;22;2;nein
2019_03_18 10:22;38;0;1;practice;25;35;1;84;95;4;35;0.89000000000000001;0.050000000000000003;0.01;0.050000000000000003;5;98;0;0;0.19;0.81000000000000005;0.0;0.0;1;2.992047952188841;11;10;22;2;nein
2019_03_18 10:22;38;0;1;practice;26;8;0;20;44;0;0;0.26000000000000001;0.73999999999999999;0.0;0.0;99;3;69;24;0.20999999999999999;0.60999999999999999;0.12;0.060000000000000102;0;3.8723272007564447;11;10;22;2;nein
2019_03_18 10:22;38;0;1;practice;27;4;0;40;59;0;0;0.19;0.81000000000000005;0.0;0.0;10;88;13;45;0.56000000000000005;0.28999999999999998;0.01;0.14000000000000001;0;0.7105485386337023;11;10;22;2;nein
2019_03_18 10:22;38;0;1;practice;28;42;1;23;45;91;22;0.72999999999999998;0.02;0.20000000000000001;0.050000000000000003;2;86;0;0;0.40999999999999998;0.58999999999999997;0.0;0.0;0;8.04517984476297;11;10;22;2;nein
2019_03_18 10:22;38;0;1;practice;29;51;1;38;13;51;84;0.91000000000000003;0.070000000000000007;0.01;0.0099999999999999603;4;89;35;16;0.80000000000000004;0.089999999999999997;0.059999999999999998;0.050000000000000003;0;9.57634418120415;11;10;22;2;nein
2019_03_18 10:22;38;0;1;practice;30;52;0;17;61;57;59;0.070000000000000007;0.050000000000000003;0.33000000000000002;0.55000000000000004;12;93;94;62;0.71999999999999997;0.16;0.080000000000000002;0.040000000000000001;0;10.416801932302405;11;10;22;2;nein
2019_03_18 10:22;38;0;1;practice;31;5;0;23;58;0;0;0.71999999999999997;0.28000000000000003;0.0;0.0;94;12;52;3;0.11;0.84999999999999998;0.029999999999999999;0.01;1;8.155428634107011;11;10;22;2;nein
2019_03_18 10:22;38;0;1;practice;32;11;0;10;44;0;0;0.48999999999999999;0.51000000000000001;0.0;0.0;88;12;54;50;0.17000000000000001;0.75;0.02;0.059999999999999998;1;11.687770350862593;11;10;22;2;nein
2019_03_18 10:22;38;0;1;practice;33;39;0;53;65;48;75;0.92000000000000004;0.029999999999999999;0.01;0.040000000000000001;16;83;0;0;0.31;0.68999999999999995;0.0;0.0;1;6.764516239733894;11;10;22;2;nein
2019_03_18 10:22;38;0;1;practice;34;9;1;57;44;0;0;0.14999999999999999;0.84999999999999998;0.0;0.0;38;35;64;95;0.34000000000000002;0.45000000000000001;0.089999999999999997;0.12;0;4.28275601286623;11;10;22;2;nein
2019_03_18 10:22;38;0;1;practice;35;18;1;47;36;0;0;0.089999999999999997;0.91000000000000003;0.0;0.0;2;44;81;9;0.20000000000000001;0.25;0.51000000000000001;0.040000000000000001;1;7.114677676503561;11;10;22;2;nein
2019_03_18 10:22;38;0;1;practice;36;15;0;24;59;0;0;0.56999999999999995;0.42999999999999999;0.0;0.0;9;8;80;22;0.31;0.10000000000000001;0.55000000000000004;0.039999999999999897;0;10.517039621365257;11;10;22;2;nein
2019_03_18 10:22;38;0;1;practice;37;21;0;59;69;0;0;0.34000000000000002;0.66000000000000003;0.0;0.0;64;18;5;24;0.14999999999999999;0.040000000000000001;0.51000000000000001;0.29999999999999999;0;4.763175289830542;11;10;22;2;nein
2019_03_18 10:22;38;0;1;practice;38;74;0;36;46;10;12;0.11;0.19;0.65000000000000002;0.049999999999999899;92;24;79;19;0.51000000000000001;0.40999999999999998;0.02;0.059999999999999998;1;7.2447260834806;11;10;22;2;nein
2019_03_18 10:22;38;0;1;practice;39;65;0;35;15;77;1;0.62;0.33000000000000002;0.029999999999999999;0.02;68;3;25;96;0.38;0.28000000000000003;0.28000000000000003;0.059999999999999901;1;8.085240282121958;11;10;22;2;nein
2019_03_18 10:22;38;0;1;practice;40;53;1;47;24;95;38;0.57999999999999996;0.28000000000000003;0.02;0.12;8;22;93;96;0.54000000000000004;0.34000000000000002;0.10000000000000001;0.0199999999999999;0;12.30804226766486;11;10;22;2;nein
2019_03_18 10:22;38;0;1;practice;41;34;1;57;23;66;79;0.56000000000000005;0.23000000000000001;0.13;0.079999999999999905;85;9;0;0;0.56000000000000005;0.44;0.0;0.0;0;9.626455809429899;11;10;22;2;nein
2019_03_18 10:22;38;0;1;practice;42;38;1;51;89;10;60;0.57999999999999996;0.029999999999999999;0.080000000000000002;0.31;8;84;0;0;0.33000000000000002;0.67000000000000004;0.0;0.0;0;7.474865287614193;11;10;22;2;nein
2019_03_18 10:22;38;0;1;practice;43;63;0;24;82;6;96;0.91000000000000003;0.070000000000000007;0.01;0.0099999999999999603;73;10;71;22;0.31;0.51000000000000001;0.050000000000000003;0.13;1;12.298149835516597;11;10;22;2;nein
2019_03_18 10:22;38;0;1;practice;44;6;1;42;59;0;0;0.35999999999999999;0.64000000000000001;0.0;0.0;77;19;6;7;0.44;0.14999999999999999;0.17999999999999999;0.23000000000000001;0;7.67512193150651;11;10;22;2;nein
2019_03_18 10:22;38;0;1;practice;45;24;0;19;38;0;0;0.89000000000000001;0.11;0.0;0.0;45;76;95;57;0.29999999999999999;0.22;0.40000000000000002;0.080000000000000002;1;6.25449375372682;11;10;22;2;nein
2019_03_18 10:22;38;0;1;practice;46;43;1;11;17;21;44;0.16;0.46000000000000002;0.25;0.13;2;66;0;0;0.44;0.56000000000000005;0.0;0.0;0;7.38491195626284;11;10;22;2;nein
2019_03_18 10:22;38;0;1;practice;47;7;1;13;31;0;0;0.51000000000000001;0.48999999999999999;0.0;0.0;8;79;42;18;0.85999999999999999;0.089999999999999997;0.02;0.029999999999999999;0;7.674978567572907;11;10;22;2;nein
2019_03_18 10:22;38;0;1;practice;48;60;0;39;93;27;78;0.85999999999999999;0.02;0.11;0.01;22;5;62;95;0.059999999999999998;0.56999999999999995;0.14000000000000001;0.23000000000000001;0;19.812998265841998;11;10;22;2;nein
2019_03_18 10:22;38;0;1;practice;49;22;1;84;87;0;0;0.17000000000000001;0.82999999999999996;0.0;0.0;3;24;41;83;0.68000000000000005;0.11;0.10000000000000001;0.11;0;4.352801963091224;11;10;22;2;nein
2019_03_18 10:22;38;0;1;practice;50;41;1;19;54;51;8;0.76000000000000001;0.070000000000000007;0.16;0.0099999999999999794;2;77;0;0;0.54000000000000004;0.46000000000000002;0.0;0.0;0;4.122621385472485;11;10;22;2;nein
2019_03_18 10:22;38;0;1;practice;51;28;0;37;83;75;8;0.83999999999999997;0.070000000000000007;0.01;0.080000000000000002;94;2;0;0;0.19;0.81000000000000005;0.0;0.0;0;4.953225832834505;11;10;22;2;nein
2019_03_18 10:22;38;0;1;practice;52;1;0;67;36;0;0;0.14999999999999999;0.84999999999999998;0.0;0.0;1;4;81;77;0.25;0.54000000000000004;0.14000000000000001;0.070000000000000007;0;8.795880868740824;11;10;22;2;nein
2019_03_18 10:22;38;0;1;practice;53;66;0;44;18;63;36;0.47999999999999998;0.10000000000000001;0.029999999999999999;0.39000000000000001;13;93;61;53;0.52000000000000002;0.45000000000000001;0.02;0.0099999999999999707;1;12.217994322531013;11;10;22;2;nein
2019_03_18 10:22;38;0;1;practice;54;14;1;92;56;0;0;0.11;0.89000000000000001;0.0;0.0;97;31;51;4;0.58999999999999997;0.22;0.080000000000000002;0.11;1;8.975849752031536;11;10;22;2;nein
2019_03_18 10:22;38;0;1;practice;55;73;0;99;88;95;28;0.83999999999999997;0.14000000000000001;0.01;0.01;90;93;10;74;0.080000000000000002;0.46000000000000002;0.34999999999999998;0.11;0;9.295991358393621;11;10;22;2;nein
2019_03_18 10:22;38;0;1;practice;56;49;0;14;31;42;22;0.77000000000000002;0.089999999999999997;0.02;0.12;87;28;0;0;0.68000000000000005;0.32000000000000001;0.0;0.0;1;8.945828318001077;11;10;22;2;nein
2019_03_18 10:22;38;0;1;practice;57;54;0;69;80;22;55;0.27000000000000002;0.31;0.059999999999999998;0.35999999999999999;52;2;49;90;0.059999999999999998;0.33000000000000002;0.20000000000000001;0.40999999999999998;1;14.339499265380255;11;10;22;2;nein
2019_03_18 10:22;38;0;1;practice;58;12;0;45;86;0;0;0.97999999999999998;0.02;0.0;0.0;6;23;95;81;0.14999999999999999;0.40999999999999998;0.050000000000000003;0.39000000000000001;0;6.374274801399224;11;10;22;2;nein
2019_03_18 10:22;38;0;1;practice;59;50;0;17;12;21;14;0.55000000000000004;0.34000000000000002;0.059999999999999998;0.049999999999999899;13;93;0;0;0.28999999999999998;0.70999999999999996;0.0;0.0;1;5.153350658881209;11;10;22;2;nein
2019_03_18 10:22;38;0;1;practice;60;44;1;69;48;22;63;0.39000000000000001;0.40999999999999998;0.19;0.01;1;94;0;0;0.22;0.78000000000000003;0.0;0.0;0;8.155270516837845;11;10;22;2;nein
2019_03_18 10:22;38;0;1;practice;61;45;1;37;40;75;23;0.54000000000000004;0.38;0.059999999999999998;0.02;1;90;0;0;0.28000000000000003;0.71999999999999997;0.0;0.0;0;9.316112662883825;11;10;22;2;nein
2019_03_18 10:22;38;0;1;practice;62;55;0;53;11;80;74;0.31;0.37;0.28000000000000003;0.039999999999999897;6;93;98;96;0.69999999999999996;0.22;0.050000000000000003;0.029999999999999999;0;15.740275547404963;11;10;22;2;nein
2019_03_18 10:22;38;0;1;practice;63;47;1;91;99;90;78;0.93000000000000005;0.040000000000000001;0.02;0.0099999999999999499;10;87;0;0;0.23000000000000001;0.77000000000000002;0.0;0.0;0;6.334116222286866;11;10;22;2;nein
2019_03_18 10:22;38;0;1;practice;64;59;0;13;27;48;51;0.56999999999999995;0.13;0.13;0.17000000000000001;8;37;97;1;0.65000000000000002;0.16;0.14999999999999999;0.040000000000000001;1;13.538785075654232;11;10;22;2;nein
2019_03_18 10:22;38;0;1;practice;65;2;0;41;60;0;0;0.97999999999999998;0.02;0.0;0.0;10;14;97;6;0.54000000000000004;0.17000000000000001;0.12;0.17000000000000001;0;8.315561978601181;11;10;22;2;nein
2019_03_18 10:22;38;0;1;practice;66;33;1;54;82;55;71;0.56000000000000005;0.20999999999999999;0.02;0.20999999999999999;13;99;0;0;0.5;0.5;0.0;0.0;0;7.755054861560893;11;10;22;2;nein
2019_03_18 10:22;38;0;1;practice;67;30;1;54;78;85;25;0.20999999999999999;0.60999999999999999;0.089999999999999997;0.090000000000000094;87;20;0;0;0.58999999999999997;0.40999999999999998;0.0;0.0;0;5.203358372309594;11;10;22;2;nein
2019_03_18 10:22;38;0;1;practice;68;46;0;79;57;98;81;0.67000000000000004;0.070000000000000007;0.20999999999999999;0.050000000000000003;1;76;0;0;0.56000000000000005;0.44;0.0;0.0;1;4.232747978712723;11;10;22;2;nein
2019_03_18 10:22;38;0;1;practice;69;57;0;39;68;59;91;0.73999999999999999;0.040000000000000001;0.14999999999999999;0.070000000000000007;9;22;40;84;0.29999999999999999;0.32000000000000001;0.040000000000000001;0.34000000000000002;0;15.58046453121733;11;10;22;2;nein
2019_03_18 10:22;38;0;1;practice;70;75;0;21;86;27;62;0.88;0.040000000000000001;0.070000000000000007;0.0099999999999999794;13;3;49;87;0.28999999999999998;0.39000000000000001;0.070000000000000007;0.25;0;7.284731035469122;11;10;22;2;nein
2019_03_18 10:22;38;0;1;practice;71;10;0;34;59;0;0;0.16;0.83999999999999997;0.0;0.0;21;61;96;7;0.19;0.01;0.5;0.29999999999999999;0;6.2840690597213325;11;10;22;2;nein
2019_03_18 10:22;38;0;1;practice;72;69;1;38;74;27;73;0.22;0.19;0.45000000000000001;0.14000000000000001;1;97;79;84;0.28000000000000003;0.45000000000000001;0.17000000000000001;0.10000000000000001;1;8.535549925767555;11;10;22;2;nein
2019_03_18 10:22;38;0;1;practice;73;19;0;25;73;0;0;0.69999999999999996;0.29999999999999999;0.0;0.0;87;84;1;86;0.040000000000000001;0.59999999999999998;0.28000000000000003;0.080000000000000002;1;5.383564912591282;11;10;22;2;nein
2019_03_18 10:22;38;0;1;practice;74;68;1;39;58;40;8;0.48999999999999999;0.44;0.02;0.050000000000000003;92;83;51;2;0.57999999999999996;0.13;0.02;0.27000000000000002;1;7.374778018428515;11;10;22;2;nein
2019_03_18 10:22;38;0;1;practice;75;26;0;24;46;74;59;0.29999999999999999;0.11;0.25;0.34000000000000002;91;6;0;0;0.28999999999999998;0.70999999999999996;0.0;0.0;0;3.1521729578416853;11;10;22;2;nein
2019_03_18 10:22;38;1;1;timed;1;149;0;14;89;73;53;0.93999999999999995;0.01;0.01;0.040000000000000001;97;45;6;13;0.34000000000000002;0.01;0.40999999999999998;0.23999999999999999;NA;6.4351204433442035;11;10;22;2;nein
2019_03_18 10:22;38;1;1;timed;2;29;1;44;51;0;0;0.78000000000000003;0.22;0.0;0.0;74;1;68;82;0.69999999999999996;0.28000000000000003;0.01;0.01;0;2.9524253040235635;11;10;22;2;nein
2019_03_18 10:22;38;1;1;timed;3;70;0;66;55;69;50;0.22;0.29999999999999999;0.29999999999999999;0.17999999999999999;2;90;0;0;0.34000000000000002;0.66000000000000003;0.0;0.0;0;2.5117377216174646;11;10;22;2;nein
2019_03_18 10:22;38;1;1;timed;4;46;1;5;19;0;0;0.32000000000000001;0.68000000000000005;0.0;0.0;88;38;97;66;0.60999999999999999;0.20000000000000001;0.040000000000000001;0.14999999999999999;1;2.711852605198146;11;10;22;2;nein
2019_03_18 10:22;38;1;1;timed;5;119;0;60;58;11;18;0.25;0.72999999999999998;0.01;0.01;96;23;42;85;0.44;0.48999999999999999;0.059999999999999998;0.010000000000000101;1;4.302771478210161;11;10;22;2;nein
2019_03_18 10:22;38;1;1;timed;6;141;0;93;28;60;91;0.81999999999999995;0.10000000000000001;0.01;0.070000000000000007;14;85;7;89;0.45000000000000001;0.070000000000000007;0.23999999999999999;0.23999999999999999;0;3.6124738168382464;11;10;22;2;nein
2019_03_18 10:22;38;1;1;timed;7;53;0;26;70;50;80;0.29999999999999999;0.59999999999999998;0.040000000000000001;0.059999999999999998;89;1;0;0;0.40999999999999998;0.58999999999999997;0.0;0.0;0;3.7523408892857333;11;10;22;2;nein
2019_03_18 10:22;38;1;1;timed;8;117;0;65;85;92;41;0.23000000000000001;0.17999999999999999;0.54000000000000004;0.050000000000000003;99;93;10;13;0.64000000000000001;0.16;0.01;0.19;0;4.853360184403755;11;10;22;2;nein
2019_03_18 10:22;38;1;1;timed;9;123;0;26;24;51;92;0.72999999999999998;0.16;0.070000000000000007;0.040000000000000001;6;90;82;49;0.64000000000000001;0.25;0.050000000000000003;0.059999999999999998;0;4.8632882169922595;11;10;22;2;nein
2019_03_18 10:22;38;1;1;timed;10;27;0;44;26;0;0;0.35999999999999999;0.64000000000000001;0.0;0.0;63;10;3;5;0.58999999999999997;0.19;0.14999999999999999;0.070000000000000007;0;4.112788287390686;11;10;22;2;nein
2019_03_18 10:22;38;1;1;timed;11;28;0;47;30;0;0;0.97999999999999998;0.02;0.0;0.0;55;48;77;13;0.070000000000000007;0.26000000000000001;0.42999999999999999;0.23999999999999999;1;3.9925960706741535;11;10;22;2;nein
2019_03_18 10:22;38;1;1;timed;12;122;1;35;58;25;31;0.81999999999999995;0.070000000000000007;0.080000000000000002;0.029999999999999999;18;64;68;89;0.63;0.17000000000000001;0.11;0.089999999999999997;1;4.6529941733942906;11;10;22;2;nein
2019_03_18 10:22;38;1;1;timed;13;21;1;64;28;0;0;0.080000000000000002;0.92000000000000004;0.0;0.0;50;1;88;13;0.57999999999999996;0.13;0.02;0.27000000000000002;1;4.152681306465638;11;10;22;2;nein
2019_03_18 10:22;38;1;1;timed;14;35;1;33;37;0;0;0.88;0.12;0.0;0.0;63;4;79;98;0.16;0.46000000000000002;0.17000000000000001;0.20999999999999999;1;3.532326642695807;11;10;22;2;nein
2019_03_18 10:22;38;1;1;timed;15;10;0;45;62;0;0;0.059999999999999998;0.93999999999999995;0.0;0.0;17;99;28;67;0.58999999999999997;0.34000000000000002;0.01;0.059999999999999998;1;4.583115962179363;11;10;22;2;nein
2019_03_18 10:22;38;1;1;timed;16;81;0;67;38;52;65;0.27000000000000002;0.35999999999999999;0.01;0.35999999999999999;2;77;0;0;0.14000000000000001;0.85999999999999999;0.0;0.0;0;4.4333673622222705;11;10;22;2;nein
2019_03_18 10:22;38;1;1;timed;17;1;1;22;51;0;0;0.26000000000000001;0.73999999999999999;0.0;0.0;14;11;92;31;0.29999999999999999;0.40999999999999998;0.14999999999999999;0.14000000000000001;1;5.273427414712387;11;10;22;2;nein
2019_03_18 10:22;38;1;1;timed;18;109;0;75;28;16;56;0.19;0.070000000000000007;0.059999999999999998;0.68000000000000005;3;50;98;44;0.5;0.02;0.34999999999999998;0.13;0;6.344132774887839;11;10;22;2;nein
2019_03_18 10:22;38;1;1;timed;19;3;1;53;40;0;0;0.31;0.68999999999999995;0.0;0.0;96;24;7;88;0.11;0.27000000000000002;0.58999999999999997;0.029999999999999999;1;4.713007855509204;11;10;22;2;nein
2019_03_18 10:22;38;1;1;timed;20;9;0;61;69;0;0;0.93999999999999995;0.060000000000000102;0.0;0.0;18;93;72;16;0.40999999999999998;0.34999999999999998;0.089999999999999997;0.14999999999999999;0;4.312934281267189;11;10;22;2;nein
2019_03_18 10:22;38;1;1;timed;21;40;0;45;49;0;0;0.68999999999999995;0.31;0.0;0.0;2;92;65;73;0.23999999999999999;0.59999999999999998;0.11;0.050000000000000003;1;3.9525414063582502;11;10;22;2;nein
2019_03_18 10:22;38;1;1;timed;22;7;1;49;29;0;0;0.95999999999999996;0.040000000000000001;0.0;0.0;23;99;64;25;0.68999999999999995;0.12;0.059999999999999998;0.13;1;5.363413780705741;11;10;22;2;nein
2019_03_18 10:22;38;1;1;timed;23;45;1;97;87;0;0;0.71999999999999997;0.28000000000000003;0.0;0.0;96;11;14;4;0.25;0.029999999999999999;0.14000000000000001;0.57999999999999996;0;3.8625633792062217;11;10;22;2;nein
2019_03_18 10:22;38;1;1;timed;24;31;1;10;59;0;0;0.23999999999999999;0.76000000000000001;0.0;0.0;1;79;53;73;0.23000000000000001;0.58999999999999997;0.050000000000000003;0.13;1;4.6729743590240105;11;10;22;2;nein
2019_03_18 10:22;38;1;1;timed;25;142;0;98;65;64;84;0.88;0.070000000000000007;0.01;0.040000000000000001;5;68;60;16;0.46000000000000002;0.080000000000000002;0.27000000000000002;0.19;0;3.2120583500827706;11;10;22;2;nein
2019_03_18 10:22;38;1;1;timed;26;61;1;43;18;39;70;0.75;0.089999999999999997;0.089999999999999997;0.070000000000000007;16;66;0;0;0.64000000000000001;0.35999999999999999;0.0;0.0;1;4.553083623508428;11;10;22;2;nein
2019_03_18 10:22;38;1;1;timed;27;5;0;70;5;0;0;0.98999999999999999;0.01;0.0;0.0;92;87;47;1;0.44;0.02;0.16;0.38;0;5.883832878063913;11;10;22;2;nein
2019_03_18 10:22;38;1;1;timed;28;68;1;84;27;55;62;0.01;0.050000000000000003;0.40999999999999998;0.53000000000000003;9;82;0;0;0.37;0.63;0.0;0.0;0;3.26213020844898;11;10;22;2;nein
2019_03_18 10:22;38;1;1;timed;29;43;1;60;83;0;0;0.23000000000000001;0.77000000000000002;0.0;0.0;72;5;70;12;0.29999999999999999;0.40999999999999998;0.12;0.17000000000000001;0;3.1921561005519834;11;10;22;2;nein
2019_03_18 10:22;38;1;1;timed;30;115;1;50;28;61;79;0.83999999999999997;0.040000000000000001;0.059999999999999998;0.059999999999999998;1;26;97;55;0.45000000000000001;0.080000000000000002;0.40999999999999998;0.060000000000000102;0;5.613654725124434;11;10;22;2;nein
2019_03_18 10:22;38;1;1;timed;31;92;0;90;86;65;94;0.16;0.34000000000000002;0.28000000000000003;0.22;79;22;0;0;0.35999999999999999;0.64000000000000001;0.0;0.0;0;3.7625684787290083;11;10;22;2;nein
2019_03_18 10:22;38;1;1;timed;32;48;0;13;32;0;0;0.90000000000000002;0.10000000000000001;0.0;0.0;24;99;84;94;0.62;0.14999999999999999;0.20000000000000001;0.029999999999999999;1;3.572330953234996;11;10;22;2;nein
2019_03_18 10:22;38;1;1;timed;33;25;0;50;53;0;0;0.82999999999999996;0.17000000000000001;0.0;0.0;83;16;97;4;0.45000000000000001;0.29999999999999999;0.11;0.14000000000000001;0;4.753097799540228;11;10;22;2;nein
2019_03_18 10:22;38;1;1;timed;34;111;0;51;36;48;27;0.93000000000000005;0.01;0.01;0.049999999999999899;31;78;30;53;0.55000000000000004;0.16;0.029999999999999999;0.26000000000000001;0;5.5135741911562945;11;10;22;2;nein
2019_03_18 10:22;38;1;1;timed;35;66;1;89;23;27;15;0.070000000000000007;0.54000000000000004;0.17000000000000001;0.22;9;73;0;0;0.72999999999999998;0.27000000000000002;0.0;0.0;0;3.111967873649519;11;10;22;2;nein
2019_03_18 10:22;38;1;1;timed;36;87;0;10;30;63;4;0.56999999999999995;0.12;0.16;0.14999999999999999;86;2;0;0;0.42999999999999999;0.56999999999999995;0.0;0.0;0;3.3321335022910716;11;10;22;2;nein
2019_03_18 10:22;38;1;1;timed;37;112;1;70;44;98;64;0.02;0.75;0.12;0.11;33;2;63;85;0.23999999999999999;0.31;0.080000000000000002;0.37;0;4.362870473090879;11;10;22;2;nein
2019_03_18 10:22;38;1;1;timed;38;18;0;68;50;0;0;0.029999999999999999;0.96999999999999997;0.0;0.0;34;64;15;89;0.65000000000000002;0.029999999999999999;0.050000000000000003;0.27000000000000002;0;4.2727599866448145;11;10;22;2;nein
2019_03_18 10:22;38;1;1;timed;39;110;0;47;44;23;52;0.13;0.27000000000000002;0.040000000000000001;0.56000000000000005;99;2;30;22;0.28999999999999998;0.5;0.11;0.10000000000000001;0;5.333445266248418;11;10;22;2;nein
2019_03_18 10:22;38;1;1;timed;40;65;0;75;64;59;52;0.59999999999999998;0.22;0.14000000000000001;0.040000000000000001;1;99;0;0;0.35999999999999999;0.64000000000000001;0.0;0.0;0;4.192711916429289;11;10;22;2;nein
2019_03_18 10:22;38;1;1;timed;41;73;0;65;68;70;47;0.25;0.23000000000000001;0.20999999999999999;0.31;27;95;0;0;0.45000000000000001;0.55000000000000004;0.0;0.0;0;4.122763466507422;11;10;22;2;nein
2019_03_18 10:22;38;1;1;timed;42;2;0;59;32;0;0;0.080000000000000002;0.92000000000000004;0.0;0.0;33;38;85;1;0.28999999999999998;0.050000000000000003;0.070000000000000007;0.58999999999999997;1;4.713064623779246;11;10;22;2;nein
2019_03_18 10:22;38;1;1;timed;43;93;1;87;81;73;98;0.80000000000000004;0.040000000000000001;0.14999999999999999;0.0099999999999999499;5;71;0;0;0.51000000000000001;0.48999999999999999;0.0;0.0;0;3.872833625032399;11;10;22;2;nein
2019_03_18 10:22;38;1;1;timed;44;23;0;54;40;0;0;0.93000000000000005;0.070000000000000007;0.0;0.0;36;23;71;86;0.02;0.41999999999999998;0.19;0.37;1;4.272769287660594;11;10;22;2;nein
2019_03_18 10:22;38;1;1;timed;45;146;0;25;5;64;35;0.94999999999999996;0.02;0.01;0.02;47;97;12;79;0.20999999999999999;0.029999999999999999;0.02;0.73999999999999999;1;3.622458938421005;11;10;22;2;nein
2019_03_18 10:22;38;1;1;timed;46;80;0;47;39;45;10;0.13;0.76000000000000001;0.059999999999999998;0.050000000000000003;2;87;0;0;0.48999999999999999;0.51000000000000001;0.0;0.0;0;3.7525047795998034;11;10;22;2;nein
2019_03_18 10:22;38;1;1;timed;47;126;1;16;55;51;42;0.68999999999999995;0.23999999999999999;0.01;0.060000000000000102;66;4;1;5;0.46999999999999997;0.38;0.089999999999999997;0.059999999999999998;0;4.412781969114803;11;10;22;2;nein
2019_03_18 10:22;38;1;1;timed;48;118;1;62;52;65;68;0.40999999999999998;0.44;0.10000000000000001;0.0500000000000001;79;20;14;37;0.56999999999999995;0.23999999999999999;0.14000000000000001;0.050000000000000003;0;3.412325577890442;11;10;22;2;nein
2019_03_18 10:22;38;1;1;timed;49;30;1;33;30;0;0;0.71999999999999997;0.28000000000000003;0.0;0.0;9;88;1;14;0.55000000000000004;0.39000000000000001;0.01;0.049999999999999899;NA;6.434207340169451;11;10;22;2;nein
2019_03_18 10:22;38;1;1;timed;50;143;0;88;44;56;73;0.95999999999999996;0.02;0.01;0.01;20;3;87;32;0.19;0.40000000000000002;0.28000000000000003;0.13;0;3.13251926994144;11;10;22;2;nein
2019_03_18 10:22;38;1;1;timed;51;59;0;56;47;83;90;0.31;0.12;0.54000000000000004;0.029999999999999898;10;98;0;0;0.46999999999999997;0.53000000000000003;0.0;0.0;0;3.912575262055725;11;10;22;2;nein
2019_03_18 10:22;38;1;1;timed;52;13;0;52;56;0;0;0.46999999999999997;0.53000000000000003;0.0;0.0;94;71;27;2;0.089999999999999997;0.31;0.57999999999999996;0.020000000000000101;0;5.073395919547693;11;10;22;2;nein
2019_03_18 10:22;38;1;1;timed;53;37;0;14;98;0;0;0.93000000000000005;0.070000000000000007;0.0;0.0;41;2;87;66;0.17999999999999999;0.48999999999999999;0.32000000000000001;0.010000000000000101;0;4.352806453237463;11;10;22;2;nein
2019_03_18 10:22;38;1;1;timed;54;114;1;57;39;79;97;0.77000000000000002;0.02;0.13;0.080000000000000002;92;36;6;1;0.54000000000000004;0.12;0.13;0.20999999999999999;0;2.861841107219334;11;10;22;2;nein
2019_03_18 10:22;38;1;1;timed;55;90;0;27;44;50;72;0.68000000000000005;0.28999999999999998;0.02;0.0099999999999999707;6;96;0;0;0.46999999999999997;0.53000000000000003;0.0;0.0;0;5.213387753898132;11;10;22;2;nein
2019_03_18 10:22;38;1;1;timed;56;32;0;19;81;0;0;0.93000000000000005;0.070000000000000007;0.0;0.0;1;65;41;68;0.45000000000000001;0.050000000000000003;0.059999999999999998;0.44;0;5.313453534529799;11;10;22;2;nein
2019_03_18 10:22;38;1;1;timed;57;148;1;37;63;55;10;0.72999999999999998;0.070000000000000007;0.029999999999999999;0.17000000000000001;80;14;23;70;0.46999999999999997;0.10000000000000001;0.23000000000000001;0.20000000000000001;0;5.093568219263034;11;10;22;2;nein
2019_03_18 10:22;38;1;1;timed;58;6;1;9;51;0;0;0.14999999999999999;0.84999999999999998;0.0;0.0;6;40;50;73;0.42999999999999999;0.26000000000000001;0.059999999999999998;0.25;0;4.953222304861811;11;10;22;2;nein
2019_03_18 10:22;38;1;1;timed;59;16;1;64;53;0;0;0.65000000000000002;0.34999999999999998;0.0;0.0;29;17;81;46;0.10000000000000001;0.01;0.44;0.45000000000000001;0;2.761814775722087;11;10;22;2;nein
2019_03_18 10:22;38;1;1;timed;60;11;1;17;36;0;0;0.14000000000000001;0.85999999999999999;0.0;0.0;19;41;34;95;0.88;0.02;0.050000000000000003;0.050000000000000003;1;2.992056611755288;11;10;22;2;nein
2019_03_18 10:22;38;1;1;timed;61;105;0;49;74;63;58;0.84999999999999998;0.080000000000000002;0.02;0.050000000000000003;97;5;86;8;0.25;0.52000000000000002;0.070000000000000007;0.16;NA;6.414121636119489;11;10;22;2;nein
2019_03_18 10:22;38;1;1;timed;62;38;1;40;70;0;0;0.53000000000000003;0.46999999999999997;0.0;0.0;97;90;6;96;0.56999999999999995;0.070000000000000007;0.27000000000000002;0.089999999999999997;1;2.9123898831885526;11;10;22;2;nein
2019_03_18 10:22;38;1;1;timed;63;138;1;8;20;43;51;0.38;0.5;0.02;0.10000000000000001;72;82;70;1;0.39000000000000001;0.050000000000000003;0.070000000000000007;0.48999999999999999;0;3.382200870511042;11;10;22;2;nein
2019_03_18 10:22;38;1;1;timed;64;120;0;64;40;48;51;0.19;0.02;0.070000000000000007;0.71999999999999997;97;9;79;94;0.23000000000000001;0.54000000000000004;0.01;0.22;1;4.563074518136091;11;10;22;2;nein
2019_03_18 10:22;38;1;1;timed;65;104;0;55;85;93;3;0.87;0.02;0.089999999999999997;0.02;1;2;90;8;0.35999999999999999;0.070000000000000007;0.40000000000000002;0.17000000000000001;0;2.651803643368112;11;10;22;2;nein
2019_03_18 10:22;38;1;1;timed;66;75;0;67;80;36;81;0.81999999999999995;0.080000000000000002;0.059999999999999998;0.040000000000000001;3;97;0;0;0.32000000000000001;0.68000000000000005;0.0;0.0;0;3.632462982758625;11;10;22;2;nein
2019_03_18 10:22;38;1;1;timed;67;91;1;74;81;86;48;0.93000000000000005;0.02;0.01;0.039999999999999897;7;64;0;0;0.13;0.87;0.0;0.0;0;2.2315792579647677;11;10;22;2;nein
2019_03_18 10:22;38;1;1;timed;68;96;0;51;54;39;7;0.17000000000000001;0.26000000000000001;0.10000000000000001;0.46999999999999997;24;96;0;0;0.28000000000000003;0.71999999999999997;0.0;0.0;1;4.012704866901004;11;10;22;2;nein
2019_03_18 10:22;38;1;1;timed;69;69;1;54;34;64;49;0.34000000000000002;0.25;0.20999999999999999;0.20000000000000001;14;98;0;0;0.62;0.38;0.0;0.0;0;3.272224376422855;11;10;22;2;nein
2019_03_18 10:22;38;1;1;timed;70;147;0;39;43;76;28;0.14000000000000001;0.10000000000000001;0.10000000000000001;0.66000000000000003;6;31;68;85;0.27000000000000002;0.20000000000000001;0.22;0.31;0;4.412829757092368;11;10;22;2;nein
2019_03_18 10:22;38;1;1;timed;71;88;0;77;13;12;7;0.12;0.19;0.66000000000000003;0.029999999999999898;94;2;0;0;0.40999999999999998;0.58999999999999997;0.0;0.0;0;3.5124166957721172;11;10;22;2;nein
2019_03_18 10:22;38;1;1;timed;72;67;0;44;42;8;89;0.88;0.070000000000000007;0.029999999999999999;0.02;10;63;0;0;0.39000000000000001;0.60999999999999999;0.0;0.0;0;3.7223864867146403;11;10;22;2;nein
2019_03_18 10:22;38;1;1;timed;73;51;1;52;23;43;16;0.60999999999999999;0.20999999999999999;0.01;0.17000000000000001;92;7;0;0;0.14999999999999999;0.84999999999999998;0.0;0.0;0;3.3921696351335413;11;10;22;2;nein
2019_03_18 10:22;38;1;1;timed;74;72;0;63;82;51;61;0.01;0.96999999999999997;0.01;0.01;92;12;0;0;0.89000000000000001;0.11;0.0;0.0;0;4.4330379779721625;11;10;22;2;nein
2019_03_18 10:22;38;1;1;timed;75;26;1;76;41;0;0;0.57999999999999996;0.41999999999999998;0.0;0.0;61;79;84;2;0.13;0.029999999999999999;0.67000000000000004;0.17000000000000001;1;5.143441869773596;11;10;22;2;nein
2019_03_18 10:22;38;2;1;control;1;109;0;75;28;16;56;0.19;0.070000000000000007;0.059999999999999998;0.68000000000000005;3;50;98;44;0.5;0.02;0.34999999999999998;0.13;0;9.061652585249249;11;10;22;2;nein
2019_03_18 10:22;38;2;1;control;2;38;0;40;70;0;0;0.53000000000000003;0.46999999999999997;0.0;0.0;97;90;6;96;0.56999999999999995;0.070000000000000007;0.27000000000000002;0.089999999999999997;1;7.134802508965549;11;10;22;2;nein
2019_03_18 10:22;38;2;1;control;3;150;0;25;21;78;38;0.84999999999999998;0.059999999999999998;0.050000000000000003;0.040000000000000001;31;43;64;95;0.059999999999999998;0.45000000000000001;0.13;0.35999999999999999;1;8.255386330521105;11;10;22;2;nein
2019_03_18 10:22;38;2;1;control;4;45;0;97;87;0;0;0.71999999999999997;0.28000000000000003;0.0;0.0;96;11;14;4;0.25;0.029999999999999999;0.14000000000000001;0.57999999999999996;0;3.9125030990016967;11;10;22;2;nein
2019_03_18 10:22;38;2;1;control;5;110;1;47;44;23;52;0.13;0.27000000000000002;0.040000000000000001;0.56000000000000005;99;2;30;22;0.28999999999999998;0.5;0.11;0.10000000000000001;0;6.294078556379645;11;10;22;2;nein
2019_03_18 10:22;38;2;1;control;6;46;0;5;19;0;0;0.32000000000000001;0.68000000000000005;0.0;0.0;88;38;97;66;0.60999999999999999;0.20000000000000001;0.040000000000000001;0.14999999999999999;1;3.44216419885106;11;10;22;2;nein
2019_03_18 10:22;38;2;1;control;7;48;0;13;32;0;0;0.90000000000000002;0.10000000000000001;0.0;0.0;24;99;84;94;0.62;0.14999999999999999;0.20000000000000001;0.029999999999999999;1;3.4322589377152326;11;10;22;2;nein
2019_03_18 10:22;38;2;1;control;8;148;0;37;63;55;10;0.72999999999999998;0.070000000000000007;0.029999999999999999;0.17000000000000001;80;14;23;70;0.46999999999999997;0.10000000000000001;0.23000000000000001;0.20000000000000001;1;7.69513002018266;11;10;22;2;nein
2019_03_18 10:22;38;2;1;control;9;70;1;66;55;69;50;0.22;0.29999999999999999;0.29999999999999999;0.17999999999999999;2;90;0;0;0.34000000000000002;0.66000000000000003;0.0;0.0;0;4.593140853621662;11;10;22;2;nein
2019_03_18 10:22;38;2;1;control;10;101;0;30;96;61;45;0.65000000000000002;0.14000000000000001;0.11;0.10000000000000001;3;98;63;89;0.75;0.19;0.040000000000000001;0.02;0;2.9318511362798745;11;10;22;2;nein
2019_03_18 10:22;38;2;1;control;11;118;0;62;52;65;68;0.40999999999999998;0.44;0.10000000000000001;0.0500000000000001;79;20;14;37;0.56999999999999995;0.23999999999999999;0.14000000000000001;0.050000000000000003;0;7.104580622007234;11;10;22;2;nein
2019_03_18 10:22;38;2;1;control;12;31;1;10;59;0;0;0.23999999999999999;0.76000000000000001;0.0;0.0;1;79;53;73;0.23000000000000001;0.58999999999999997;0.050000000000000003;0.13;1;7.515023866727461;11;10;22;2;nein
2019_03_18 10:22;38;2;1;control;13;9;1;61;69;0;0;0.93999999999999995;0.060000000000000102;0.0;0.0;18;93;72;16;0.40999999999999998;0.34999999999999998;0.089999999999999997;0.14999999999999999;0;4.99332283280728;11;10;22;2;nein
2019_03_18 10:22;38;2;1;control;14;103;1;38;49;89;50;0.89000000000000001;0.070000000000000007;0.01;0.029999999999999999;6;64;99;27;0.70999999999999996;0.17999999999999999;0.059999999999999998;0.050000000000000003;0;5.093302017775386;11;10;22;2;nein
2019_03_18 10:22;38;2;1;control;15;95;0;93;88;68;85;0.83999999999999997;0.14000000000000001;0.01;0.01;2;82;0;0;0.41999999999999998;0.57999999999999996;0.0;0.0;0;9.446144712902424;11;10;22;2;nein
2019_03_18 10:22;38;2;1;control;16;82;0;78;66;30;27;0.28999999999999998;0.58999999999999997;0.080000000000000002;0.040000000000000001;90;6;0;0;0.82999999999999996;0.17000000000000001;0.0;0.0;0;5.993889874047454;11;10;22;2;nein
2019_03_18 10:22;38;2;1;control;17;27;1;44;26;0;0;0.35999999999999999;0.64000000000000001;0.0;0.0;63;10;3;5;0.58999999999999997;0.19;0.14999999999999999;0.070000000000000007;0;3.8328100710114086;11;10;22;2;nein
2019_03_18 10:22;38;2;1;control;18;34;1;32;48;0;0;0.28000000000000003;0.71999999999999997;0.0;0.0;97;83;7;62;0.040000000000000001;0.54000000000000004;0.35999999999999999;0.059999999999999901;1;5.08329412474086;11;10;22;2;nein
2019_03_18 10:22;38;2;1;control;19;90;1;27;44;50;72;0.68000000000000005;0.28999999999999998;0.02;0.0099999999999999707;6;96;0;0;0.46999999999999997;0.53000000000000003;0.0;0.0;0;6.584224707410613;11;10;22;2;nein
2019_03_18 10:22;38;2;1;control;20;40;1;45;49;0;0;0.68999999999999995;0.31;0.0;0.0;2;92;65;73;0.23999999999999999;0.59999999999999998;0.11;0.050000000000000003;1;7.334906167183362;11;10;22;2;nein
2019_03_18 10:22;38;2;1;control;21;65;1;75;64;59;52;0.59999999999999998;0.22;0.14000000000000001;0.040000000000000001;1;99;0;0;0.35999999999999999;0.64000000000000001;0.0;0.0;0;3.5923053658198114;11;10;22;2;nein
2019_03_18 10:22;38;2;1;control;22;77;0;24;17;99;41;0.17999999999999999;0.13;0.10000000000000001;0.58999999999999997;12;97;0;0;0.59999999999999998;0.40000000000000002;0.0;0.0;0;6.0738968915047735;11;10;22;2;nein
2019_03_18 10:22;38;2;1;control;23;80;0;47;39;45;10;0.13;0.76000000000000001;0.059999999999999998;0.050000000000000003;2;87;0;0;0.48999999999999999;0.51000000000000001;0.0;0.0;0;5.633647098291476;11;10;22;2;nein
2019_03_18 10:22;38;2;1;control;24;16;1;64;53;0;0;0.65000000000000002;0.34999999999999998;0.0;0.0;29;17;81;46;0.10000000000000001;0.01;0.44;0.45000000000000001;0;6.48439145217435;11;10;22;2;nein
2019_03_18 10:22;38;2;1;control;25;125;1;37;41;10;35;0.91000000000000003;0.040000000000000001;0.029999999999999999;0.02;7;13;91;93;0.26000000000000001;0.39000000000000001;0.16;0.19;1;6.3342217407071075;11;10;22;2;nein
2019_03_18 10:22;38;2;1;control;26;99;1;8;24;15;73;0.56000000000000005;0.35999999999999999;0.070000000000000007;0.0099999999999999499;88;12;0;0;0.52000000000000002;0.47999999999999998;0.0;0.0;1;6.914454708703488;11;10;22;2;nein
2019_03_18 10:22;38;2;1;control;27;107;1;52;48;13;63;0.68000000000000005;0.19;0.050000000000000003;0.079999999999999905;54;91;33;3;0.19;0.17999999999999999;0.33000000000000002;0.29999999999999999;0;12.538134645995342;11;10;22;2;nein
2019_03_18 10:22;38;2;1;control;28;135;0;48;60;41;51;0.14000000000000001;0.40000000000000002;0.089999999999999997;0.37;94;1;85;65;0.64000000000000001;0.29999999999999999;0.01;0.050000000000000003;0;5.023431183227331;11;10;22;2;nein
2019_03_18 10:22;38;2;1;control;29;49;1;21;30;0;0;0.53000000000000003;0.46999999999999997;0.0;0.0;93;99;89;25;0.44;0.02;0.11;0.42999999999999999;1;3.7524294092991113;11;10;22;2;nein
2019_03_18 10:22;38;2;1;control;30;60;0;64;59;57;96;0.83999999999999997;0.13;0.02;0.01;83;6;0;0;0.54000000000000004;0.46000000000000002;0.0;0.0;0;3.4723402221779907;11;10;22;2;nein
2019_03_18 10:22;38;2;1;control;31;132;1;27;70;21;19;0.64000000000000001;0.23000000000000001;0.029999999999999999;0.10000000000000001;11;85;55;6;0.39000000000000001;0.46999999999999997;0.029999999999999999;0.11;0;8.85580410649527;11;10;22;2;nein
2019_03_18 10:22;38;2;1;control;32;8;0;50;36;0;0;0.080000000000000002;0.92000000000000004;0.0;0.0;6;19;84;29;0.54000000000000004;0.070000000000000007;0.17000000000000001;0.22;0;6.834445125449747;11;10;22;2;nein
2019_03_18 10:22;38;2;1;control;33;39;0;14;33;0;0;0.78000000000000003;0.22;0.0;0.0;93;84;1;25;0.14000000000000001;0.23999999999999999;0.39000000000000001;0.23000000000000001;1;5.29343871063611;11;10;22;2;nein
2019_03_18 10:22;38;2;1;control;34;73;0;65;68;70;47;0.25;0.23000000000000001;0.20999999999999999;0.31;27;95;0;0;0.45000000000000001;0.55000000000000004;0.0;0.0;0;2.7919119007783593;11;10;22;2;nein
2019_03_18 10:22;38;2;1;control;35;10;0;45;62;0;0;0.059999999999999998;0.93999999999999995;0.0;0.0;17;99;28;67;0.58999999999999997;0.34000000000000002;0.01;0.059999999999999998;0;10.436823812140574;11;10;22;2;nein
2019_03_18 10:22;38;2;1;control;36;86;1;56;30;57;88;0.20000000000000001;0.35999999999999999;0.080000000000000002;0.35999999999999999;98;2;0;0;0.77000000000000002;0.23000000000000001;0.0;0.0;0;4.913153528660587;11;10;22;2;nein
2019_03_18 10:22;38;2;1;control;37;14;0;36;40;0;0;0.54000000000000004;0.46000000000000002;0.0;0.0;99;70;1;11;0.16;0.089999999999999997;0.080000000000000002;0.67000000000000004;0;8.065249512578703;11;10;22;2;nein
2019_03_18 10:22;38;2;1;control;38;11;0;17;36;0;0;0.14000000000000001;0.85999999999999999;0.0;0.0;19;41;34;95;0.88;0.02;0.050000000000000003;0.050000000000000003;1;4.753085612001996;11;10;22;2;nein
2019_03_18 10:22;38;2;1;control;39;72;1;63;82;51;61;0.01;0.96999999999999997;0.01;0.01;92;12;0;0;0.89000000000000001;0.11;0.0;0.0;0;6.03427969565746;11;10;22;2;nein
2019_03_18 10:22;38;2;1;control;40;61;1;43;18;39;70;0.75;0.089999999999999997;0.089999999999999997;0.070000000000000007;16;66;0;0;0.64000000000000001;0.35999999999999999;0.0;0.0;0;8.55556186314152;11;10;22;2;nein
2019_03_18 10:22;38;2;1;control;41;59;1;56;47;83;90;0.31;0.12;0.54000000000000004;0.029999999999999898;10;98;0;0;0.46999999999999997;0.53000000000000003;0.0;0.0;0;7.154653442546078;11;10;22;2;nein
2019_03_18 10:22;38;2;1;control;42;108;0;48;72;39;70;0.14000000000000001;0.66000000000000003;0.02;0.17999999999999999;81;44;98;8;0.59999999999999998;0.029999999999999999;0.050000000000000003;0.32000000000000001;1;11.147439061507612;11;10;22;2;nein
2019_03_18 10:22;38;2;1;control;43;21;0;64;28;0;0;0.080000000000000002;0.92000000000000004;0.0;0.0;50;1;88;13;0.57999999999999996;0.13;0.02;0.27000000000000002;0;5.073278534313431;11;10;22;2;nein
2019_03_18 10:22;38;2;1;control;44;50;0;15;20;0;0;0.82999999999999996;0.17000000000000001;0.0;0.0;97;18;88;87;0.56999999999999995;0.39000000000000001;0.01;0.029999999999999999;1;5.31359433266698;11;10;22;2;nein
2019_03_18 10:22;38;2;1;control;45;134;0;57;48;50;55;0.02;0.62;0.17999999999999999;0.17999999999999999;80;96;15;18;0.23999999999999999;0.35999999999999999;0.33000000000000002;0.070000000000000007;1;5.533607296358241;11;10;22;2;nein
2019_03_18 10:22;38;2;1;control;46;29;0;44;51;0;0;0.78000000000000003;0.22;0.0;0.0;74;1;68;82;0.69999999999999996;0.28000000000000003;0.01;0.01;0;3.7325752684710096;11;10;22;2;nein
2019_03_18 10:22;38;2;1;control;47;44;1;79;74;0;0;0.71999999999999997;0.28000000000000003;0.0;0.0;3;67;15;36;0.41999999999999998;0.53000000000000003;0.02;0.029999999999999999;0;3.272110198435257;11;10;22;2;nein
2019_03_18 10:22;38;2;1;control;48;13;1;52;56;0;0;0.46999999999999997;0.53000000000000003;0.0;0.0;94;71;27;2;0.089999999999999997;0.31;0.57999999999999996;0.020000000000000101;1;2.951899956990019;11;10;22;2;nein
2019_03_18 10:22;38;2;1;control;49;28;1;47;30;0;0;0.97999999999999998;0.02;0.0;0.0;55;48;77;13;0.070000000000000007;0.26000000000000001;0.42999999999999999;0.23999999999999999;0;7.755184434333387;11;10;22;2;nein
2019_03_18 10:22;38;2;1;control;50;19;1;22;53;0;0;0.13;0.87;0.0;0.0;4;93;96;65;0.46999999999999997;0.059999999999999998;0.26000000000000001;0.20999999999999999;1;4.232713340446935;11;10;22;2;nein
2019_03_18 10:22;38;2;1;control;51;105;0;49;74;63;58;0.84999999999999998;0.080000000000000002;0.02;0.050000000000000003;97;5;86;8;0.25;0.52000000000000002;0.070000000000000007;0.16;0;5.06340534564697;11;10;22;2;nein
2019_03_18 10:22;38;2;1;control;52;67;0;44;42;8;89;0.88;0.070000000000000007;0.029999999999999999;0.02;10;63;0;0;0.39000000000000001;0.60999999999999999;0.0;0.0;0;4.993392109338856;11;10;22;2;nein
2019_03_18 10:22;38;2;1;control;53;121;0;42;51;47;70;0.41999999999999998;0.17000000000000001;0.23999999999999999;0.17000000000000001;21;76;48;9;0.14999999999999999;0.34000000000000002;0.40999999999999998;0.10000000000000001;0;10.096659363764957;11;10;22;2;nein
2019_03_18 10:22;38;2;1;control;54;119;0;60;58;11;18;0.25;0.72999999999999998;0.01;0.01;96;23;42;85;0.44;0.48999999999999999;0.059999999999999998;0.010000000000000101;1;4.573288637141559;11;10;22;2;nein
2019_03_18 10:22;38;2;1;control;55;138;0;8;20;43;51;0.38;0.5;0.02;0.10000000000000001;72;82;70;1;0.39000000000000001;0.050000000000000003;0.070000000000000007;0.48999999999999999;0;7.384947235978871;11;10;22;2;nein
2019_03_18 10:22;38;2;1;control;56;33;1;27;70;0;0;0.88;0.12;0.0;0.0;93;3;77;16;0.080000000000000002;0.40000000000000002;0.5;0.02;1;7.604932617347913;11;10;22;2;nein
2019_03_18 10:22;38;2;1;control;57;124;1;37;65;15;41;0.17999999999999999;0.45000000000000001;0.02;0.34999999999999998;40;7;98;30;0.070000000000000007;0.45000000000000001;0.45000000000000001;0.029999999999999898;0;6.123957845230507;11;10;22;2;nein
2019_03_18 10:22;38;2;1;control;58;74;0;66;47;52;44;0.41999999999999998;0.26000000000000001;0.17999999999999999;0.14000000000000001;17;99;0;0;0.47999999999999998;0.52000000000000002;0.0;0.0;0;5.793884999032343;11;10;22;2;nein
2019_03_18 10:22;38;2;1;control;59;1;0;22;51;0;0;0.26000000000000001;0.73999999999999999;0.0;0.0;14;11;92;31;0.29999999999999999;0.40999999999999998;0.14999999999999999;0.14000000000000001;0;9.196144953445582;11;10;22;2;nein
2019_03_18 10:22;38;2;1;control;60;7;1;49;29;0;0;0.95999999999999996;0.040000000000000001;0.0;0.0;23;99;64;25;0.68999999999999995;0.12;0.059999999999999998;0.13;0;7.054709858018214;11;10;22;2;nein
2019_03_18 10:22;38;2;1;control;61;130;1;37;79;23;95;0.94999999999999996;0.029999999999999999;0.01;0.01;94;4;58;49;0.46000000000000002;0.5;0.029999999999999999;0.01;0;7.454836351834274;11;10;22;2;nein
2019_03_18 10:22;38;2;1;control;62;122;1;35;58;25;31;0.81999999999999995;0.070000000000000007;0.080000000000000002;0.029999999999999999;18;64;68;89;0.63;0.17000000000000001;0.11;0.089999999999999997;1;10.567045731170765;11;10;22;2;nein
2019_03_18 10:22;38;2;1;control;63;66;1;89;23;27;15;0.070000000000000007;0.54000000000000004;0.17000000000000001;0.22;9;73;0;0;0.72999999999999998;0.27000000000000002;0.0;0.0;0;2.9520407551272;11;10;22;2;nein
2019_03_18 10:22;38;2;1;control;64;112;1;70;44;98;64;0.02;0.75;0.12;0.11;33;2;63;85;0.23999999999999999;0.31;0.080000000000000002;0.37;1;1.7412941690008665;11;10;22;2;nein
2019_03_18 10:22;38;2;1;control;65;127;0;89;26;62;79;0.02;0.28999999999999998;0.53000000000000003;0.16;96;6;60;13;0.53000000000000003;0.25;0.17000000000000001;0.050000000000000003;0;6.334254133900686;11;10;22;2;nein
2019_03_18 10:22;38;2;1;control;66;17;0;81;52;0;0;0.059999999999999998;0.93999999999999995;0.0;0.0;34;3;69;41;0.01;0.22;0.75;0.02;0;2.991933774201243;11;10;22;2;nein
2019_03_18 10:22;38;2;1;control;67;126;1;16;55;51;42;0.68999999999999995;0.23999999999999999;0.01;0.060000000000000102;66;4;1;5;0.46999999999999997;0.38;0.089999999999999997;0.059999999999999998;0;5.733720897042076;11;10;22;2;nein
2019_03_18 10:22;38;2;1;control;68;47;1;2;40;0;0;0.45000000000000001;0.55000000000000004;0.0;0.0;93;89;11;56;0.58999999999999997;0.070000000000000007;0.28000000000000003;0.059999999999999998;1;7.795061417173201;11;10;22;2;nein
2019_03_18 10:22;38;2;1;control;69;63;1;56;78;42;36;0.93000000000000005;0.040000000000000001;0.01;0.0199999999999999;2;72;0;0;0.32000000000000001;0.68000000000000005;0.0;0.0;0;4.212733796267457;11;10;22;2;nein
2019_03_18 10:22;38;2;1;control;70;129;0;12;29;81;36;0.17999999999999999;0.79000000000000004;0.01;0.02;5;19;95;92;0.47999999999999998;0.26000000000000001;0.13;0.13;1;9.015860477064962;11;10;22;2;nein
2019_03_18 10:22;38;2;1;control;71;98;0;27;10;31;79;0.23000000000000001;0.67000000000000004;0.070000000000000007;0.029999999999999999;25;99;0;0;0.38;0.62;0.0;0.0;1;3.112607077944631;11;10;22;2;nein
2019_03_18 10:22;38;2;1;control;72;142;1;98;65;64;84;0.88;0.070000000000000007;0.01;0.040000000000000001;5;68;60;16;0.46000000000000002;0.080000000000000002;0.27000000000000002;0.19;0;2.8518325727345655;11;10;22;2;nein
2019_03_18 10:22;38;2;1;control;73;54;0;44;79;78;52;0.79000000000000004;0.19;0.01;0.0099999999999999603;96;1;0;0;0.28000000000000003;0.71999999999999997;0.0;0.0;0;4.122621385472485;11;10;22;2;nein
2019_03_18 10:22;38;2;1;control;74;51;0;52;23;43;16;0.60999999999999999;0.20999999999999999;0.01;0.17000000000000001;92;7;0;0;0.14999999999999999;0.84999999999999998;0.0;0.0;0;3.632449191597516;11;10;22;2;nein
2019_03_18 10:22;38;2;1;control;75;52;0;71;51;10;54;0.22;0.12;0.19;0.46999999999999997;91;1;0;0;0.29999999999999999;0.69999999999999996;0.0;0.0;0;3.1120047569884264;11;10;22;2;nein
2019_03_18 10:22;38;3;1;timed;1;82;1;78;66;30;27;0.28999999999999998;0.58999999999999997;0.080000000000000002;0.040000000000000001;90;6;0;0;0.82999999999999996;0.17000000000000001;0.0;0.0;0;2.9215388755201275;11;10;22;2;nein
2019_03_18 10:22;38;3;1;timed;2;79;1;52;46;29;22;0.17999999999999999;0.51000000000000001;0.23999999999999999;0.070000000000000104;93;14;0;0;0.45000000000000001;0.55000000000000004;0.0;0.0;0;2.261639820407254;11;10;22;2;nein
2019_03_18 10:22;38;3;1;timed;3;17;0;81;52;0;0;0.059999999999999998;0.93999999999999995;0.0;0.0;34;3;69;41;0.01;0.22;0.75;0.02;0;2.2114204286872337;11;10;22;2;nein
2019_03_18 10:22;38;3;1;timed;4;131;1;83;41;81;88;0.23999999999999999;0.58999999999999997;0.10000000000000001;0.070000000000000007;82;97;4;17;0.26000000000000001;0.46999999999999997;0.11;0.16;0;3.6123086436264202;11;10;22;2;nein
2019_03_18 10:22;38;3;1;timed;5;50;0;15;20;0;0;0.82999999999999996;0.17000000000000001;0.0;0.0;97;18;88;87;0.56999999999999995;0.39000000000000001;0.01;0.029999999999999999;1;3.542232866005179;11;10;22;2;nein
2019_03_18 10:22;38;3;1;timed;6;20;1;44;40;0;0;0.91000000000000003;0.089999999999999997;0.0;0.0;29;5;80;99;0.25;0.40000000000000002;0.26000000000000001;0.089999999999999997;0;2.551599630396595;11;10;22;2;nein
2019_03_18 10:22;38;3;1;timed;7;150;0;25;21;78;38;0.84999999999999998;0.059999999999999998;0.050000000000000003;0.040000000000000001;31;43;64;95;0.059999999999999998;0.45000000000000001;0.13;0.35999999999999999;1;4.062620853070257;11;10;22;2;nein
2019_03_18 10:22;38;3;1;timed;8;97;0;17;33;32;74;0.94999999999999996;0.01;0.029999999999999999;0.01;76;23;0;0;0.33000000000000002;0.67000000000000004;0.0;0.0;0;3.992568167626814;11;10;22;2;nein
2019_03_18 10:22;38;3;1;timed;9;108;0;48;72;39;70;0.14000000000000001;0.66000000000000003;0.02;0.17999999999999999;81;44;98;8;0.59999999999999998;0.029999999999999999;0.050000000000000003;0.32000000000000001;1;3.61232018971441;11;10;22;2;nein
2019_03_18 10:22;38;3;1;timed;10;57;0;52;35;23;47;0.22;0.68000000000000005;0.040000000000000001;0.059999999999999998;71;7;0;0;0.28999999999999998;0.70999999999999996;0.0;0.0;0;3.032061243019598;11;10;22;2;nein
2019_03_18 10:22;38;3;1;timed;11;52;1;71;51;10;54;0.22;0.12;0.19;0.46999999999999997;91;1;0;0;0.29999999999999999;0.69999999999999996;0.0;0.0;0;4.7130421730507805;11;10;22;2;nein
2019_03_18 10:22;38;3;1;timed;12;133;0;59;88;60;36;0.67000000000000004;0.070000000000000007;0.12;0.14000000000000001;7;91;66;61;0.25;0.68999999999999995;0.01;0.0500000000000001;1;4.302979307805799;11;10;22;2;nein
2019_03_18 10:22;38;3;1;timed;13;124;0;37;65;15;41;0.17999999999999999;0.45000000000000001;0.02;0.34999999999999998;40;7;98;30;0.070000000000000007;0.45000000000000001;0.45000000000000001;0.029999999999999898;NA;6.414182253084618;11;10;22;2;nein
2019_03_18 10:22;38;3;1;timed;14;71;0;68;55;36;51;0.20000000000000001;0.75;0.02;0.029999999999999999;38;81;0;0;0.52000000000000002;0.47999999999999998;0.0;0.0;1;2.5918637279301038;11;10;22;2;nein
2019_03_18 10:22;38;3;1;timed;15;135;0;48;60;41;51;0.14000000000000001;0.40000000000000002;0.089999999999999997;0.37;94;1;85;65;0.64000000000000001;0.29999999999999999;0.01;0.050000000000000003;0;2.2915794696436933;11;10;22;2;nein
2019_03_18 10:22;38;3;1;timed;16;19;1;22;53;0;0;0.13;0.87;0.0;0.0;4;93;96;65;0.46999999999999997;0.059999999999999998;0.26000000000000001;0.20999999999999999;1;3.682365177766769;11;10;22;2;nein
2019_03_18 10:22;38;3;1;timed;17;121;1;42;51;47;70;0.41999999999999998;0.17000000000000001;0.23999999999999999;0.17000000000000001;21;76;48;9;0.14999999999999999;0.34000000000000002;0.40999999999999998;0.10000000000000001;0;3.572226396988299;11;10;22;2;nein
2019_03_18 10:22;38;3;1;timed;18;130;1;37;79;23;95;0.94999999999999996;0.029999999999999999;0.01;0.01;94;4;58;49;0.46000000000000002;0.5;0.029999999999999999;0.01;0;2.611679061072209;11;10;22;2;nein
2019_03_18 10:22;38;3;1;timed;19;102;1;40;56;53;17;0.28000000000000003;0.26000000000000001;0.14999999999999999;0.31;1;76;29;62;0.68000000000000005;0.23000000000000001;0.050000000000000003;0.039999999999999897;0;3.252068112942652;11;10;22;2;nein
2019_03_18 10:22;38;3;1;timed;20;47;1;2;40;0;0;0.45000000000000001;0.55000000000000004;0.0;0.0;93;89;11;56;0.58999999999999997;0.070000000000000007;0.28000000000000003;0.059999999999999998;1;2.9518852036553653;11;10;22;2;nein
2019_03_18 10:22;38;3;1;timed;21;8;1;50;36;0;0;0.080000000000000002;0.92000000000000004;0.0;0.0;6;19;84;29;0.54000000000000004;0.070000000000000007;0.17000000000000001;0.22;0;3.2222051169055703;11;10;22;2;nein
2019_03_18 10:22;38;3;1;timed;22;83;0;17;12;7;41;0.65000000000000002;0.19;0.089999999999999997;0.070000000000000007;6;84;0;0;0.72999999999999998;0.27000000000000002;0.0;0.0;1;3.152176806537682;11;10;22;2;nein
2019_03_18 10:22;38;3;1;timed;23;94;1;84;86;93;39;0.78000000000000003;0.20000000000000001;0.01;0.0099999999999999603;9;83;0;0;0.46999999999999997;0.53000000000000003;0.0;0.0;0;1.9912301042450054;11;10;22;2;nein
2019_03_18 10:22;38;3;1;timed;24;116;0;53;65;43;99;0.56999999999999995;0.37;0.050000000000000003;0.010000000000000101;57;72;11;87;0.67000000000000004;0.13;0.14999999999999999;0.050000000000000003;0;4.25290039349693;11;10;22;2;nein
2019_03_18 10:22;38;3;1;timed;25;77;0;24;17;99;41;0.17999999999999999;0.13;0.10000000000000001;0.58999999999999997;12;97;0;0;0.59999999999999998;0.40000000000000002;0.0;0.0;0;4.332806061953306;11;10;22;2;nein
2019_03_18 10:22;38;3;1;timed;26;125;1;37;41;10;35;0.91000000000000003;0.040000000000000001;0.029999999999999999;0.02;7;13;91;93;0.26000000000000001;0.39000000000000001;0.16;0.19;0;2.8119427609071863;11;10;22;2;nein
2019_03_18 10:22;38;3;1;timed;27;134;0;57;48;50;55;0.02;0.62;0.17999999999999999;0.17999999999999999;80;96;15;18;0.23999999999999999;0.35999999999999999;0.33000000000000002;0.070000000000000007;1;4.402826033479869;11;10;22;2;nein
2019_03_18 10:22;38;3;1;timed;28;128;1;70;49;27;54;0.27000000000000002;0.53000000000000003;0.02;0.17999999999999999;72;97;6;20;0.29999999999999999;0.39000000000000001;0.22;0.0899999999999999;0;3.932642043349915;11;10;22;2;nein
2019_03_18 10:22;38;3;1;timed;29;36;0;70;17;0;0;0.33000000000000002;0.67000000000000004;0.0;0.0;84;1;12;88;0.22;0.27000000000000002;0.14000000000000001;0.37;0;4.552940259575735;11;10;22;2;nein
2019_03_18 10:22;38;3;1;timed;30;136;0;29;67;14;75;0.46000000000000002;0.29999999999999999;0.20999999999999999;0.0300000000000001;70;86;1;85;0.31;0.39000000000000001;0.27000000000000002;0.029999999999999898;0;3.031975930253793;11;10;22;2;nein
2019_03_18 10:22;38;3;1;timed;31;44;1;79;74;0;0;0.71999999999999997;0.28000000000000003;0.0;0.0;3;67;15;36;0.41999999999999998;0.53000000000000003;0.02;0.029999999999999999;0;1.8713634230816751;11;10;22;2;nein
2019_03_18 10:22;38;3;1;timed;32;78;0;74;36;34;3;0.14999999999999999;0.64000000000000001;0.13;0.080000000000000002;1;83;0;0;0.41999999999999998;0.57999999999999996;0.0;0.0;0;2.8319704137893495;11;10;22;2;nein
2019_03_18 10:22;38;3;1;timed;33;140;1;36;32;26;27;0.39000000000000001;0.14999999999999999;0.19;0.27000000000000002;44;3;99;25;0.29999999999999999;0.34000000000000002;0.34000000000000002;0.0199999999999999;0;3.9326612868308075;11;10;22;2;nein
2019_03_18 10:22;38;3;1;timed;34;54;1;44;79;78;52;0.79000000000000004;0.19;0.01;0.0099999999999999603;96;1;0;0;0.28000000000000003;0.71999999999999997;0.0;0.0;0;3.202049174149579;11;10;22;2;nein
2019_03_18 10:22;38;3;1;timed;35;139;1;44;31;16;8;0.79000000000000004;0.070000000000000007;0.13;0.0099999999999999499;92;58;2;88;0.55000000000000004;0.070000000000000007;0.34000000000000002;0.039999999999999897;0;4.362799913661547;11;10;22;2;nein
2019_03_18 10:22;38;3;1;timed;36;60;0;64;59;57;96;0.83999999999999997;0.13;0.02;0.01;83;6;0;0;0.54000000000000004;0.46000000000000002;0.0;0.0;0;2.231437818379163;11;10;22;2;nein
2019_03_18 10:22;38;3;1;timed;37;55;1;74;55;47;48;0.60999999999999999;0.31;0.070000000000000007;0.01;97;6;0;0;0.42999999999999999;0.56999999999999995;0.0;0.0;0;2.6317060725050396;11;10;22;2;nein
2019_03_18 10:22;38;3;1;timed;38;89;1;26;41;13;56;0.059999999999999998;0.40999999999999998;0.050000000000000003;0.47999999999999998;5;97;0;0;0.37;0.63;0.0;0.0;0;3.1221422227954463;11;10;22;2;nein
2019_03_18 10:22;38;3;1;timed;39;127;1;89;26;62;79;0.02;0.28999999999999998;0.53000000000000003;0.16;96;6;60;13;0.53000000000000003;0.25;0.17000000000000001;0.050000000000000003;0;3.792435002737875;11;10;22;2;nein
2019_03_18 10:22;38;3;1;timed;40;4;1;40;43;0;0;0.58999999999999997;0.40999999999999998;0.0;0.0;2;33;88;81;0.69999999999999996;0.14000000000000001;0.13;0.029999999999999999;0;2.7117445209796642;11;10;22;2;nein
2019_03_18 10:22;38;3;1;timed;41;106;1;85;69;22;61;0.10000000000000001;0.58999999999999997;0.17999999999999999;0.13;20;79;91;84;0.55000000000000004;0.14999999999999999;0.26000000000000001;0.039999999999999897;1;3.292119249285861;11;10;22;2;nein
2019_03_18 10:22;38;3;1;timed;42;12;0;53;68;0;0;0.31;0.68999999999999995;0.0;0.0;69;54;97;29;0.25;0.20999999999999999;0.20000000000000001;0.34000000000000002;0;2.2714437325421386;11;10;22;2;nein
2019_03_18 10:22;38;3;1;timed;43;63;1;56;78;42;36;0.93000000000000005;0.040000000000000001;0.01;0.0199999999999999;2;72;0;0;0.32000000000000001;0.68000000000000005;0.0;0.0;0;3.922679693219834;11;10;22;2;nein
2019_03_18 10:22;38;3;1;timed;44;39;0;14;33;0;0;0.78000000000000003;0.22;0.0;0.0;93;84;1;25;0.14000000000000001;0.23999999999999999;0.39000000000000001;0.23000000000000001;1;4.432873125484548;11;10;22;2;nein
2019_03_18 10:22;38;3;1;timed;45;74;0;66;47;52;44;0.41999999999999998;0.26000000000000001;0.17999999999999999;0.14000000000000001;17;99;0;0;0.47999999999999998;0.52000000000000002;0.0;0.0;0;2.351631638719482;11;10;22;2;nein
2019_03_18 10:22;38;3;1;timed;46;84;0;43;10;5;45;0.78000000000000003;0.13;0.059999999999999998;0.029999999999999999;87;1;0;0;0.57999999999999996;0.41999999999999998;0.0;0.0;0;2.5517134876590717;11;10;22;2;nein
2019_03_18 10:22;38;3;1;timed;47;132;0;27;70;21;19;0.64000000000000001;0.23000000000000001;0.029999999999999999;0.10000000000000001;11;85;55;6;0.39000000000000001;0.46999999999999997;0.029999999999999999;0.11;1;3.7323995113438286;11;10;22;2;nein
2019_03_18 10:22;38;3;1;timed;48;113;1;85;65;39;64;0.44;0.34000000000000002;0.13;0.089999999999999997;87;2;4;35;0.67000000000000004;0.17000000000000001;0.11;0.049999999999999899;0;2.6618160265479673;11;10;22;2;nein
2019_03_18 10:22;38;3;1;timed;49;99;0;8;24;15;73;0.56000000000000005;0.35999999999999999;0.070000000000000007;0.0099999999999999499;88;12;0;0;0.52000000000000002;0.47999999999999998;0.0;0.0;1;2.3514866711639115;11;10;22;2;nein
2019_03_18 10:22;38;3;1;timed;50;58;0;37;58;76;34;0.20999999999999999;0.57999999999999996;0.19;0.020000000000000101;86;5;0;0;0.47999999999999998;0.52000000000000002;0.0;0.0;0;1.8613192881584837;11;10;22;2;nein
2019_03_18 10:22;38;3;1;timed;51;33;1;27;70;0;0;0.88;0.12;0.0;0.0;93;3;77;16;0.080000000000000002;0.40000000000000002;0.5;0.02;0;3.1119688358239728;11;10;22;2;nein
2019_03_18 10:22;38;3;1;timed;52;145;1;91;89;90;74;0.57999999999999996;0.29999999999999999;0.11;0.010000000000000101;2;75;84;39;0.32000000000000001;0.27000000000000002;0.39000000000000001;0.0199999999999999;0;2.111279919203298;11;10;22;2;nein
2019_03_18 10:22;38;3;1;timed;53;85;0;31;22;82;50;0.11;0.69999999999999996;0.01;0.17999999999999999;3;99;0;0;0.62;0.38;0.0;0.0;0;2.15154946905659;11;10;22;2;nein
2019_03_18 10:22;38;3;1;timed;54;95;0;93;88;68;85;0.83999999999999997;0.14000000000000001;0.01;0.01;2;82;0;0;0.41999999999999998;0.57999999999999996;0.0;0.0;0;2.631666623368801;11;10;22;2;nein
2019_03_18 10:22;38;3;1;timed;55;49;0;21;30;0;0;0.53000000000000003;0.46999999999999997;0.0;0.0;93;99;89;25;0.44;0.02;0.11;0.42999999999999999;1;2.1915351775642193;11;10;22;2;nein
2019_03_18 10:22;38;3;1;timed;56;100;0;27;14;59;52;0.02;0.95999999999999996;0.01;0.01;17;98;0;0;0.48999999999999999;0.51000000000000001;0.0;0.0;0;1.1508759472199017;11;10;22;2;nein
2019_03_18 10:22;38;3;1;timed;57;144;0;99;93;90;71;0.65000000000000002;0.32000000000000001;0.01;0.02;97;14;48;73;0.23000000000000001;0.46000000000000002;0.13;0.17999999999999999;0;3.0320952398369627;11;10;22;2;nein
2019_03_18 10:22;38;3;1;timed;58;15;1;77;81;0;0;0.28000000000000003;0.71999999999999997;0.0;0.0;98;14;87;18;0.55000000000000004;0.23000000000000001;0.16;0.059999999999999901;0;2.1915326117668883;11;10;22;2;nein
2019_03_18 10:22;38;3;1;timed;59;129;0;12;29;81;36;0.17999999999999999;0.79000000000000004;0.01;0.02;5;19;95;92;0.47999999999999998;0.26000000000000001;0.13;0.13;0;4.933305622720582;11;10;22;2;nein
2019_03_18 10:22;38;3;1;timed;60;103;0;38;49;89;50;0.89000000000000001;0.070000000000000007;0.01;0.029999999999999999;6;64;99;27;0.70999999999999996;0.17999999999999999;0.059999999999999998;0.050000000000000003;0;2.5317095684040396;11;10;22;2;nein
2019_03_18 10:22;38;3;1;timed;61;101;1;30;96;61;45;0.65000000000000002;0.14000000000000001;0.11;0.10000000000000001;3;98;63;89;0.75;0.19;0.040000000000000001;0.02;1;3.902514128723851;11;10;22;2;nein
2019_03_18 10:22;38;3;1;timed;62;64;1;48;39;34;19;0.46000000000000002;0.5;0.02;0.02;13;92;0;0;0.68999999999999995;0.31;0.0;0.0;0;2.671766189138907;11;10;22;2;nein
2019_03_18 10:22;38;3;1;timed;63;14;1;36;40;0;0;0.54000000000000004;0.46000000000000002;0.0;0.0;99;70;1;11;0.16;0.089999999999999997;0.080000000000000002;0.67000000000000004;0;4.032595570342892;11;10;22;2;nein
2019_03_18 10:22;38;3;1;timed;64;86;0;56;30;57;88;0.20000000000000001;0.35999999999999999;0.080000000000000002;0.35999999999999999;98;2;0;0;0.77000000000000002;0.23000000000000001;0.0;0.0;0;2.9118603667366187;11;10;22;2;nein
2019_03_18 10:22;38;3;1;timed;65;24;1;35;27;0;0;0.070000000000000007;0.93000000000000005;0.0;0.0;62;3;81;95;0.35999999999999999;0.55000000000000004;0.01;0.080000000000000002;1;3.9526716205800767;11;10;22;2;nein
2019_03_18 10:22;38;3;1;timed;66;56;0;28;84;37;41;0.68000000000000005;0.28000000000000003;0.02;0.0199999999999999;6;95;0;0;0.72999999999999998;0.27000000000000002;0.0;0.0;0;3.3321655747595287;11;10;22;2;nein
2019_03_18 10:22;38;3;1;timed;67;34;1;32;48;0;0;0.28000000000000003;0.71999999999999997;0.0;0.0;97;83;7;62;0.040000000000000001;0.54000000000000004;0.35999999999999999;0.059999999999999901;1;2.7517546045637573;11;10;22;2;nein
2019_03_18 10:22;38;3;1;timed;68;76;0;39;62;9;28;0.01;0.51000000000000001;0.26000000000000001;0.22;77;7;0;0;0.57999999999999996;0.41999999999999998;0.0;0.0;0;2.471404026826349;11;10;22;2;nein
2019_03_18 10:22;38;3;1;timed;69;62;0;12;45;16;50;0.20999999999999999;0.76000000000000001;0.02;0.01;92;15;0;0;0.20999999999999999;0.79000000000000004;0.0;0.0;1;4.0325936459948934;11;10;22;2;nein
2019_03_18 10:22;38;3;1;timed;70;22;0;32;55;0;0;0.39000000000000001;0.60999999999999999;0.0;0.0;93;72;59;22;0.20000000000000001;0.11;0.14000000000000001;0.55000000000000004;1;3.552278925277278;11;10;22;2;nein
2019_03_18 10:22;38;3;1;timed;71;98;0;27;10;31;79;0.23000000000000001;0.67000000000000004;0.070000000000000007;0.029999999999999999;25;99;0;0;0.38;0.62;0.0;0.0;1;5.93386432511943;11;10;22;2;nein
2019_03_18 10:22;38;3;1;timed;72;42;0;70;48;0;0;0.79000000000000004;0.20999999999999999;0.0;0.0;51;8;12;67;0.19;0.26000000000000001;0.28999999999999998;0.26000000000000001;0;3.4522112202967037;11;10;22;2;nein
2019_03_18 10:22;38;3;1;timed;73;41;1;99;40;0;0;0.89000000000000001;0.11;0.0;0.0;1;67;52;46;0.51000000000000001;0.38;0.029999999999999999;0.080000000000000002;0;2.8318097307228527;11;10;22;2;nein
2019_03_18 10:22;38;3;1;timed;74;137;1;71;22;28;17;0.25;0.46000000000000002;0.050000000000000003;0.23999999999999999;3;98;92;69;0.42999999999999999;0.23999999999999999;0.20000000000000001;0.13;0;3.772446157541708;11;10;22;2;nein
2019_03_18 10:22;38;3;1;timed;75;107;0;52;48;13;63;0.68000000000000005;0.19;0.050000000000000003;0.079999999999999905;54;91;33;3;0.19;0.17999999999999999;0.33000000000000002;0.29999999999999999;0;4.502923886580902;11;10;22;2;nein
2019_03_18 10:22;38;4;1;control;1;69;0;54;34;64;49;0.34000000000000002;0.25;0.20999999999999999;0.20000000000000001;14;98;0;0;0.62;0.38;0.0;0.0;0;4.719903436212007;11;10;22;2;nein
2019_03_18 10:22;38;4;1;control;2;104;0;55;85;93;3;0.87;0.02;0.089999999999999997;0.02;1;2;90;8;0.35999999999999999;0.070000000000000007;0.40000000000000002;0.17000000000000001;0;4.733226981027656;11;10;22;2;nein
2019_03_18 10:22;38;4;1;control;3;42;1;70;48;0;0;0.79000000000000004;0.20999999999999999;0.0;0.0;51;8;12;67;0.19;0.26000000000000001;0.28999999999999998;0.26000000000000001;0;4.112712917090903;11;10;22;2;nein
2019_03_18 10:22;38;4;1;control;4;117;1;65;85;92;41;0.23000000000000001;0.17999999999999999;0.54000000000000004;0.050000000000000003;99;93;10;13;0.64000000000000001;0.16;0.01;0.19;0;4.7830948584942234;11;10;22;2;nein
2019_03_18 10:22;38;4;1;control;5;113;1;85;65;39;64;0.44;0.34000000000000002;0.13;0.089999999999999997;87;2;4;35;0.67000000000000004;0.17000000000000001;0.11;0.049999999999999899;0;3.25211205222422;11;10;22;2;nein
2019_03_18 10:22;38;4;1;control;6;23;1;54;40;0;0;0.93000000000000005;0.070000000000000007;0.0;0.0;36;23;71;86;0.02;0.41999999999999998;0.19;0.37;0;6.074064951239052;11;10;22;2;nein
2019_03_18 10:22;38;4;1;control;7;71;0;68;55;36;51;0.20000000000000001;0.75;0.02;0.029999999999999999;38;81;0;0;0.52000000000000002;0.47999999999999998;0.0;0.0;0;3.2721188580026137;11;10;22;2;nein
2019_03_18 10:22;38;4;1;control;8;2;1;59;32;0;0;0.080000000000000002;0.92000000000000004;0.0;0.0;33;38;85;1;0.28999999999999998;0.050000000000000003;0.070000000000000007;0.58999999999999997;0;4.392801783485993;11;10;22;2;nein
2019_03_18 10:22;38;4;1;control;9;58;0;37;58;76;34;0.20999999999999999;0.57999999999999996;0.19;0.020000000000000101;86;5;0;0;0.47999999999999998;0.52000000000000002;0.0;0.0;0;2.1313386823794644;11;10;22;2;nein
2019_03_18 10:22;38;4;1;control;10;78;0;74;36;34;3;0.14999999999999999;0.64000000000000001;0.13;0.080000000000000002;1;83;0;0;0.41999999999999998;0.57999999999999996;0.0;0.0;0;4.552937693777494;11;10;22;2;nein
2019_03_18 10:22;38;4;1;control;11;120;0;64;40;48;51;0.19;0.02;0.070000000000000007;0.71999999999999997;97;9;79;94;0.23000000000000001;0.54000000000000004;0.01;0.22;1;4.002584720226878;11;10;22;2;nein
2019_03_18 10:22;38;4;1;control;12;3;1;53;40;0;0;0.31;0.68999999999999995;0.0;0.0;96;24;7;88;0.11;0.27000000000000002;0.58999999999999997;0.029999999999999999;0;6.594452617578099;11;10;22;2;nein
2019_03_18 10:22;38;4;1;control;13;32;1;19;81;0;0;0.93000000000000005;0.070000000000000007;0.0;0.0;1;65;41;68;0.45000000000000001;0.050000000000000003;0.059999999999999998;0.44;0;8.32555415612751;11;10;22;2;nein
2019_03_18 10:22;38;4;1;control;14;15;1;77;81;0;0;0.28000000000000003;0.71999999999999997;0.0;0.0;98;14;87;18;0.55000000000000004;0.23000000000000001;0.16;0.059999999999999901;0;3.352281106205737;11;10;22;2;nein
2019_03_18 10:22;38;4;1;control;15;55;0;74;55;47;48;0.60999999999999999;0.31;0.070000000000000007;0.01;97;6;0;0;0.42999999999999999;0.56999999999999995;0.0;0.0;0;4.392856306682006;11;10;22;2;nein
2019_03_18 10:22;38;4;1;control;16;106;0;85;69;22;61;0.10000000000000001;0.58999999999999997;0.17999999999999999;0.13;20;79;91;84;0.55000000000000004;0.14999999999999999;0.26000000000000001;0.039999999999999897;0;4.893580984105938;11;10;22;2;nein
2019_03_18 10:22;38;4;1;control;17;87;0;10;30;63;4;0.56999999999999995;0.12;0.16;0.14999999999999999;86;2;0;0;0.42999999999999999;0.56999999999999995;0.0;0.0;0;11.527671003185787;11;10;22;2;nein
2019_03_18 10:22;38;4;1;control;18;136;1;29;67;14;75;0.46000000000000002;0.29999999999999999;0.20999999999999999;0.0300000000000001;70;86;1;85;0.31;0.39000000000000001;0.27000000000000002;0.029999999999999898;0;5.633668586845488;11;10;22;2;nein
2019_03_18 10:22;38;4;1;control;19;35;1;33;37;0;0;0.88;0.12;0.0;0.0;63;4;79;98;0.16;0.46000000000000002;0.17000000000000001;0.20999999999999999;1;4.753065085622438;11;10;22;2;nein
2019_03_18 10:22;38;4;1;control;20;4;1;40;43;0;0;0.58999999999999997;0.40999999999999998;0.0;0.0;2;33;88;81;0.69999999999999996;0.14000000000000001;0.13;0.029999999999999999;0;4.793097619934088;11;10;22;2;nein
2019_03_18 10:22;38;4;1;control;21;93;0;87;81;73;98;0.80000000000000004;0.040000000000000001;0.14999999999999999;0.0099999999999999499;5;71;0;0;0.51000000000000001;0.48999999999999999;0.0;0.0;0;4.392846364216894;11;10;22;2;nein
2019_03_18 10:22;38;4;1;control;22;140;1;36;32;26;27;0.39000000000000001;0.14999999999999999;0.19;0.27000000000000002;44;3;99;25;0.29999999999999999;0.34000000000000002;0.34000000000000002;0.0199999999999999;0;9.356061808778577;11;10;22;2;nein
2019_03_18 10:22;38;4;1;control;23;97;1;17;33;32;74;0.94999999999999996;0.01;0.029999999999999999;0.01;76;23;0;0;0.33000000000000002;0.67000000000000004;0.0;0.0;1;4.192727311215094;11;10;22;2;nein
2019_03_18 10:22;38;4;1;control;24;94;1;84;86;93;39;0.78000000000000003;0.20000000000000001;0.01;0.0099999999999999603;9;83;0;0;0.46999999999999997;0.53000000000000003;0.0;0.0;0;5.393594935629153;11;10;22;2;nein
2019_03_18 10:22;38;4;1;control;25;116;0;53;65;43;99;0.56999999999999995;0.37;0.050000000000000003;0.010000000000000101;57;72;11;87;0.67000000000000004;0.13;0.14999999999999999;0.050000000000000003;0;11.69755373661883;11;10;22;2;nein
2019_03_18 10:22;38;4;1;control;26;147;1;39;43;76;28;0.14000000000000001;0.10000000000000001;0.10000000000000001;0.66000000000000003;6;31;68;85;0.27000000000000002;0.20000000000000001;0.22;0.31;1;9.496174235608123;11;10;22;2;nein
2019_03_18 10:22;38;4;1;control;27;43;1;60;83;0;0;0.23000000000000001;0.77000000000000002;0.0;0.0;72;5;70;12;0.29999999999999999;0.40999999999999998;0.12;0.17000000000000001;0;2.9719016311737505;11;10;22;2;nein
2019_03_18 10:22;38;4;1;control;28;96;1;51;54;39;7;0.17000000000000001;0.26000000000000001;0.10000000000000001;0.46999999999999997;24;96;0;0;0.28000000000000003;0.71999999999999997;0.0;0.0;1;3.8526151409632803;11;10;22;2;nein
2019_03_18 10:22;38;4;1;control;29;133;0;59;88;60;36;0.67000000000000004;0.070000000000000007;0.12;0.14000000000000001;7;91;66;61;0.25;0.68999999999999995;0.01;0.0500000000000001;0;6.29409363043942;11;10;22;2;nein
2019_03_18 10:22;38;4;1;control;30;41;1;99;40;0;0;0.89000000000000001;0.11;0.0;0.0;1;67;52;46;0.51000000000000001;0.38;0.029999999999999999;0.080000000000000002;0;2.791803495834756;11;10;22;2;nein
2019_03_18 10:22;38;4;1;control;31;18;1;68;50;0;0;0.029999999999999999;0.96999999999999997;0.0;0.0;34;64;15;89;0.65000000000000002;0.029999999999999999;0.050000000000000003;0.27000000000000002;0;10.366800954091559;11;10;22;2;nein
2019_03_18 10:22;38;4;1;control;32;143;0;88;44;56;73;0.95999999999999996;0.02;0.01;0.01;20;3;87;32;0.19;0.40000000000000002;0.28000000000000003;0.13;0;2.9219003322386925;11;10;22;2;nein
2019_03_18 10:22;38;4;1;control;33;30;1;33;30;0;0;0.71999999999999997;0.28000000000000003;0.0;0.0;9;88;1;14;0.55000000000000004;0.39000000000000001;0.01;0.049999999999999899;0;5.913964962111095;11;10;22;2;nein
2019_03_18 10:22;38;4;1;control;34;131;1;83;41;81;88;0.23999999999999999;0.58999999999999997;0.10000000000000001;0.070000000000000007;82;97;4;17;0.26000000000000001;0.46999999999999997;0.11;0.16;0;3.4923851941939574;11;10;22;2;nein
2019_03_18 10:22;38;4;1;control;35;139;0;44;31;16;8;0.79000000000000004;0.070000000000000007;0.13;0.0099999999999999499;92;58;2;88;0.55000000000000004;0.070000000000000007;0.34000000000000002;0.039999999999999897;1;9.70628290033892;11;10;22;2;nein
2019_03_18 10:22;38;4;1;control;36;56;1;28;84;37;41;0.68000000000000005;0.28000000000000003;0.02;0.0199999999999999;6;95;0;0;0.72999999999999998;0.27000000000000002;0.0;0.0;0;3.112207454988493;11;10;22;2;nein
2019_03_18 10:22;38;4;1;control;37;37;0;14;98;0;0;0.93000000000000005;0.070000000000000007;0.0;0.0;41;2;87;66;0.17999999999999999;0.48999999999999999;0.32000000000000001;0.010000000000000101;0;8.035233210143815;11;10;22;2;nein
2019_03_18 10:22;38;4;1;control;38;22;1;32;55;0;0;0.39000000000000001;0.60999999999999999;0.0;0.0;93;72;59;22;0.20000000000000001;0.11;0.14000000000000001;0.55000000000000004;1;4.032612889475786;11;10;22;2;nein
2019_03_18 10:22;38;4;1;control;39;68;1;84;27;55;62;0.01;0.050000000000000003;0.40999999999999998;0.53000000000000003;9;82;0;0;0.37;0.63;0.0;0.0;0;2.7517741687697708;11;10;22;2;nein
2019_03_18 10:22;38;4;1;control;40;111;1;51;36;48;27;0.93000000000000005;0.01;0.01;0.049999999999999899;31;78;30;53;0.55000000000000004;0.16;0.029999999999999999;0.26000000000000001;1;5.553621478803507;11;10;22;2;nein
2019_03_18 10:22;38;4;1;control;41;81;0;67;38;52;65;0.27000000000000002;0.35999999999999999;0.01;0.35999999999999999;2;77;0;0;0.14000000000000001;0.85999999999999999;0.0;0.0;0;5.353586776392149;11;10;22;2;nein
2019_03_18 10:22;38;4;1;control;42;12;0;53;68;0;0;0.31;0.68999999999999995;0.0;0.0;69;54;97;29;0.25;0.20999999999999999;0.20000000000000001;0.34000000000000002;0;5.993895647092359;11;10;22;2;nein
2019_03_18 10:22;38;4;1;control;43;62;0;12;45;16;50;0.20999999999999999;0.76000000000000001;0.02;0.01;92;15;0;0;0.20999999999999999;0.79000000000000004;0.0;0.0;0;4.793096016310301;11;10;22;2;nein
2019_03_18 10:22;38;4;1;control;44;6;1;9;51;0;0;0.14999999999999999;0.84999999999999998;0.0;0.0;6;40;50;73;0.42999999999999999;0.26000000000000001;0.059999999999999998;0.25;1;3.3321540286706295;11;10;22;2;nein
2019_03_18 10:22;38;4;1;control;45;92;0;90;86;65;94;0.16;0.34000000000000002;0.28000000000000003;0.22;79;22;0;0;0.35999999999999999;0.64000000000000001;0.0;0.0;0;2.6316512285839053;11;10;22;2;nein
2019_03_18 10:22;38;4;1;control;46;79;0;52;46;29;22;0.17999999999999999;0.51000000000000001;0.23999999999999999;0.070000000000000104;93;14;0;0;0.45000000000000001;0.55000000000000004;0.0;0.0;0;3.47228152956086;11;10;22;2;nein
2019_03_18 10:22;38;4;1;control;47;36;1;70;17;0;0;0.33000000000000002;0.67000000000000004;0.0;0.0;84;1;12;88;0.22;0.27000000000000002;0.14000000000000001;0.37;1;5.433692577051261;11;10;22;2;nein
2019_03_18 10:22;38;4;1;control;48;102;0;40;56;53;17;0.28000000000000003;0.26000000000000001;0.14999999999999999;0.31;1;76;29;62;0.68000000000000005;0.23000000000000001;0.050000000000000003;0.039999999999999897;0;7.214663275964995;11;10;22;2;nein
2019_03_18 10:22;38;4;1;control;49;123;0;26;24;51;92;0.72999999999999998;0.16;0.070000000000000007;0.040000000000000001;6;90;82;49;0.64000000000000001;0.25;0.050000000000000003;0.059999999999999998;1;8.265521230530794;11;10;22;2;nein
2019_03_18 10:22;38;4;1;control;50;137;0;71;22;28;17;0.25;0.46000000000000002;0.050000000000000003;0.23999999999999999;3;98;92;69;0.42999999999999999;0.23999999999999999;0.20000000000000001;0.13;0;6.254211195279822;11;10;22;2;nein
2019_03_18 10:22;38;4;1;control;51;145;0;91;89;90;74;0.57999999999999996;0.29999999999999999;0.11;0.010000000000000101;2;75;84;39;0.32000000000000001;0.27000000000000002;0.39000000000000001;0.0199999999999999;0;2.901850870078306;11;10;22;2;nein
2019_03_18 10:22;38;4;1;control;52;76;0;39;62;9;28;0.01;0.51000000000000001;0.26000000000000001;0.22;77;7;0;0;0.57999999999999996;0.41999999999999998;0.0;0.0;0;4.432879219253664;11;10;22;2;nein
2019_03_18 10:22;38;4;1;control;53;88;1;77;13;12;7;0.12;0.19;0.66000000000000003;0.029999999999999898;94;2;0;0;0.40999999999999998;0.58999999999999997;0.0;0.0;0;6.094067266871207;11;10;22;2;nein
2019_03_18 10:22;38;4;1;control;54;115;0;50;28;61;79;0.83999999999999997;0.040000000000000001;0.059999999999999998;0.059999999999999998;1;26;97;55;0.45000000000000001;0.080000000000000002;0.40999999999999998;0.060000000000000102;0;5.693680986061736;11;10;22;2;nein
2019_03_18 10:22;38;4;1;control;55;146;1;25;5;64;35;0.94999999999999996;0.02;0.01;0.02;47;97;12;79;0.20999999999999999;0.029999999999999999;0.02;0.73999999999999999;1;6.134128666404649;11;10;22;2;nein
2019_03_18 10:22;38;4;1;control;56;20;0;44;40;0;0;0.91000000000000003;0.089999999999999997;0.0;0.0;29;5;80;99;0.25;0.40000000000000002;0.26000000000000001;0.089999999999999997;0;3.552288226293058;11;10;22;2;nein
2019_03_18 10:22;38;4;1;control;57;89;1;26;41;13;56;0.059999999999999998;0.40999999999999998;0.050000000000000003;0.47999999999999998;5;97;0;0;0.37;0.63;0.0;0.0;0;5.033211682461115;11;10;22;2;nein
2019_03_18 10:22;38;4;1;control;58;26;0;76;41;0;0;0.57999999999999996;0.41999999999999998;0.0;0.0;61;79;84;2;0.13;0.029999999999999999;0.67000000000000004;0.17000000000000001;1;6.173997310403138;11;10;22;2;nein
2019_03_18 10:22;38;4;1;control;59;149;1;14;89;73;53;0.93999999999999995;0.01;0.01;0.040000000000000001;97;45;6;13;0.34000000000000002;0.01;0.40999999999999998;0.23999999999999999;0;6.174162804339176;11;10;22;2;nein
2019_03_18 10:22;38;4;1;control;60;5;1;70;5;0;0;0.98999999999999999;0.01;0.0;0.0;92;87;47;1;0.44;0.02;0.16;0.38;0;4.352953986592183;11;10;22;2;nein
2019_03_18 10:22;38;4;1;control;61;91;0;74;81;86;48;0.93000000000000005;0.02;0.01;0.039999999999999897;7;64;0;0;0.13;0.87;0.0;0.0;0;3.952683487394097;11;10;22;2;nein
2019_03_18 10:22;38;4;1;control;62;24;0;35;27;0;0;0.070000000000000007;0.93000000000000005;0.0;0.0;62;3;81;95;0.35999999999999999;0.55000000000000004;0.01;0.080000000000000002;0;3.172050511571797;11;10;22;2;nein
2019_03_18 10:22;38;4;1;control;63;141;1;93;28;60;91;0.81999999999999995;0.10000000000000001;0.01;0.070000000000000007;14;85;7;89;0.45000000000000001;0.070000000000000007;0.23999999999999999;0.23999999999999999;0;5.933806594676753;11;10;22;2;nein
2019_03_18 10:22;38;4;1;control;64;128;0;70;49;27;54;0.27000000000000002;0.53000000000000003;0.02;0.17999999999999999;72;97;6;20;0.29999999999999999;0.39000000000000001;0.22;0.0899999999999999;0;4.693037291621295;11;10;22;2;nein
2019_03_18 10:22;38;4;1;control;65;100;0;27;14;59;52;0.02;0.95999999999999996;0.01;0.01;17;98;0;0;0.48999999999999999;0.51000000000000001;0.0;0.0;1;7.164784814583982;11;10;22;2;nein
2019_03_18 10:22;38;4;1;control;66;84;0;43;10;5;45;0.78000000000000003;0.13;0.059999999999999998;0.029999999999999999;87;1;0;0;0.57999999999999996;0.41999999999999998;0.0;0.0;0;4.072610785521647;11;10;22;2;nein
2019_03_18 10:22;38;4;1;control;67;85;1;31;22;82;50;0.11;0.69999999999999996;0.01;0.17999999999999999;3;99;0;0;0.62;0.38;0.0;0.0;0;2.5716179822629783;11;10;22;2;nein
2019_03_18 10:22;38;4;1;control;68;114;0;57;39;79;97;0.77000000000000002;0.02;0.13;0.080000000000000002;92;36;6;1;0.54000000000000004;0.12;0.13;0.20999999999999999;0;5.523611270137735;11;10;22;2;nein
2019_03_18 10:22;38;4;1;control;69;83;0;17;12;7;41;0.65000000000000002;0.19;0.089999999999999997;0.070000000000000007;6;84;0;0;0.72999999999999998;0.27000000000000002;0.0;0.0;0;3.0319364811175546;11;10;22;2;nein
2019_03_18 10:22;38;4;1;control;70;53;0;26;70;50;80;0.29999999999999999;0.59999999999999998;0.040000000000000001;0.059999999999999998;89;1;0;0;0.40999999999999998;0.58999999999999997;0.0;0.0;0;2.9518431887217957;11;10;22;2;nein
2019_03_18 10:22;38;4;1;control;71;57;1;52;35;23;47;0.22;0.68000000000000005;0.040000000000000001;0.059999999999999998;71;7;0;0;0.28999999999999998;0.70999999999999996;0.0;0.0;0;4.402862275368534;11;10;22;2;nein
2019_03_18 10:22;38;4;1;control;72;75;0;67;80;36;81;0.81999999999999995;0.080000000000000002;0.059999999999999998;0.040000000000000001;3;97;0;0;0.32000000000000001;0.68000000000000005;0.0;0.0;0;3.272725669103238;11;10;22;2;nein
2019_03_18 10:22;38;4;1;control;73;64;1;48;39;34;19;0.46000000000000002;0.5;0.02;0.02;13;92;0;0;0.68999999999999995;0.31;0.0;0.0;0;4.152818255905913;11;10;22;2;nein
2019_03_18 10:22;38;4;1;control;74;144;1;99;93;90;71;0.65000000000000002;0.32000000000000001;0.01;0.02;97;14;48;73;0.23000000000000001;0.46000000000000002;0.13;0.17999999999999999;0;6.9345359226072105;11;10;22;2;nein
2019_03_18 10:22;38;4;1;control;75;25;0;50;53;0;0;0.82999999999999996;0.17000000000000001;0.0;0.0;83;16;97;4;0.45000000000000001;0.29999999999999999;0.11;0.14000000000000001;1;5.9940435011722;11;10;22;2;nein
