date;id;block;order;cond;trial;gameid;leftright;oa1;oa2;oa3;oa4;pa1;pa2;pa3;pa4;ob1;ob2;ob3;ob4;pb1;pb2;pb3;pb4;choice;rt;paytrial;payout;alter;geschlecht;comment
2019_04_04 13:47;58;0;1;practice;1;46;0;79;57;98;81;0.67000000000000004;0.070000000000000007;0.20999999999999999;0.050000000000000003;1;76;0;0;0.56000000000000005;0.44;0.0;0.0;0;12.901902463086344;13;96;22;2;
2019_04_04 13:47;58;0;1;practice;2;61;1;51;48;56;88;0.91000000000000003;0.02;0.01;0.059999999999999998;78;21;14;82;0.55000000000000004;0.29999999999999999;0.070000000000000007;0.080000000000000002;0;14.49942205764171;13;96;22;2;
2019_04_04 13:47;58;0;1;practice;3;19;0;25;73;0;0;0.69999999999999996;0.29999999999999999;0.0;0.0;87;84;1;86;0.040000000000000001;0.59999999999999998;0.28000000000000003;0.080000000000000002;1;10.616236010876264;13;96;22;2;
2019_04_04 13:47;58;0;1;practice;4;21;0;59;69;0;0;0.34000000000000002;0.66000000000000003;0.0;0.0;64;18;5;24;0.14999999999999999;0.040000000000000001;0.51000000000000001;0.29999999999999999;0;9.18307655202534;13;96;22;2;
2019_04_04 13:47;58;0;1;practice;5;23;0;99;93;0;0;0.57999999999999996;0.41999999999999998;0.0;0.0;64;10;80;81;0.13;0.55000000000000004;0.02;0.29999999999999999;0;5.399917189391317;13;96;22;2;
2019_04_04 13:47;58;0;1;practice;6;47;0;91;99;90;78;0.93000000000000005;0.040000000000000001;0.02;0.0099999999999999499;10;87;0;0;0.23000000000000001;0.77000000000000002;0.0;0.0;0;6.433231942187831;13;96;22;2;
2019_04_04 13:47;58;0;1;practice;7;72;1;86;85;97;43;0.51000000000000001;0.14999999999999999;0.33000000000000002;0.0099999999999999499;72;29;10;90;0.01;0.11;0.65000000000000002;0.23000000000000001;0;10.866423152588823;13;96;22;2;
2019_04_04 13:47;58;0;1;practice;8;42;1;23;45;91;22;0.72999999999999998;0.02;0.20000000000000001;0.050000000000000003;2;86;0;0;0.40999999999999998;0.58999999999999997;0.0;0.0;0;22.465952395766635;13;96;22;2;
2019_04_04 13:47;58;0;1;practice;9;57;1;39;68;59;91;0.73999999999999999;0.040000000000000001;0.14999999999999999;0.070000000000000007;9;22;40;84;0.29999999999999999;0.32000000000000001;0.040000000000000001;0.34000000000000002;0;16.999540083606007;13;96;22;2;
2019_04_04 13:47;58;0;1;practice;10;63;1;24;82;6;96;0.91000000000000003;0.070000000000000007;0.01;0.0099999999999999603;73;10;71;22;0.31;0.51000000000000001;0.050000000000000003;0.13;0;18.3661328985188;13;96;22;2;
2019_04_04 13:47;58;0;1;practice;11;17;1;27;61;0;0;0.68999999999999995;0.31;0.0;0.0;3;91;69;43;0.29999999999999999;0.33000000000000002;0.27000000000000002;0.099999999999999895;1;23.849095144963485;13;96;22;2;
2019_04_04 13:47;58;0;1;practice;12;22;0;84;87;0;0;0.17000000000000001;0.82999999999999996;0.0;0.0;3;24;41;83;0.68000000000000005;0.11;0.10000000000000001;0.11;0;4.916419015265774;13;96;22;2;
2019_04_04 13:47;58;0;1;practice;13;27;0;68;43;98;36;0.54000000000000004;0.44;0.01;0.0099999999999999603;97;13;0;0;0.27000000000000002;0.72999999999999998;0.0;0.0;0;11.74953350878991;13;96;22;2;
2019_04_04 13:47;58;0;1;practice;14;66;0;44;18;63;36;0.47999999999999998;0.10000000000000001;0.029999999999999999;0.39000000000000001;13;93;61;53;0.52000000000000002;0.45000000000000001;0.02;0.0099999999999999707;0;25.949009255416513;13;96;22;2;
2019_04_04 13:47;58;0;1;practice;15;18;1;47;36;0;0;0.089999999999999997;0.91000000000000003;0.0;0.0;2;44;81;9;0.20000000000000001;0.25;0.51000000000000001;0.040000000000000001;1;20.58297321516193;13;96;22;2;
2019_04_04 13:47;58;0;1;practice;16;58;1;44;50;85;42;0.38;0.57999999999999996;0.02;0.02;37;88;19;12;0.20000000000000001;0.29999999999999999;0.46000000000000002;0.040000000000000001;0;11.266237710706946;13;96;22;2;
2019_04_04 13:47;58;0;1;practice;17;36;0;56;89;86;77;0.66000000000000003;0.080000000000000002;0.14999999999999999;0.11;29;91;0;0;0.40999999999999998;0.58999999999999997;0.0;0.0;0;9.333092363655851;13;96;22;2;
2019_04_04 13:47;58;0;1;practice;18;67;0;74;31;10;77;0.11;0.070000000000000007;0.77000000000000002;0.050000000000000003;2;23;8;97;0.56999999999999995;0.01;0.059999999999999998;0.35999999999999999;1;32.16572416947247;13;96;22;2;
2019_04_04 13:47;58;0;1;practice;19;64;0;44;60;96;45;0.53000000000000003;0.10000000000000001;0.029999999999999999;0.34000000000000002;88;20;43;31;0.47999999999999998;0.38;0.050000000000000003;0.089999999999999997;0;38.348711881301824;13;96;22;2;
2019_04_04 13:47;58;0;1;practice;20;24;1;19;38;0;0;0.89000000000000001;0.11;0.0;0.0;45;76;95;57;0.29999999999999999;0.22;0.40000000000000002;0.080000000000000002;1;7.533016801380882;13;96;22;2;
2019_04_04 13:47;58;0;1;practice;21;53;0;47;24;95;38;0.57999999999999996;0.28000000000000003;0.02;0.12;8;22;93;96;0.54000000000000004;0.34000000000000002;0.10000000000000001;0.0199999999999999;0;14.699537325390565;13;96;22;2;
2019_04_04 13:47;58;0;1;practice;22;11;1;10;44;0;0;0.48999999999999999;0.51000000000000001;0.0;0.0;88;12;54;50;0.17000000000000001;0.75;0.02;0.059999999999999998;1;18.382804065994605;13;96;22;2;
2019_04_04 13:47;58;0;1;practice;23;68;0;39;58;40;8;0.48999999999999999;0.44;0.02;0.050000000000000003;92;83;51;2;0.57999999999999996;0.13;0.02;0.27000000000000002;0;24.699083823451247;13;96;22;2;
2019_04_04 13:47;58;0;1;practice;24;39;1;53;65;48;75;0.92000000000000004;0.029999999999999999;0.01;0.040000000000000001;16;83;0;0;0.31;0.68999999999999995;0.0;0.0;0;13.649449415290519;13;96;22;2;
2019_04_04 13:47;58;0;1;practice;25;41;0;19;54;51;8;0.76000000000000001;0.070000000000000007;0.16;0.0099999999999999794;2;77;0;0;0.54000000000000004;0.46000000000000002;0.0;0.0;0;12.332991015273365;13;96;22;2;
2019_04_04 13:47;58;0;1;practice;26;45;0;37;40;75;23;0.54000000000000004;0.38;0.059999999999999998;0.02;1;90;0;0;0.28000000000000003;0.71999999999999997;0.0;0.0;1;24.51571605518734;13;96;22;2;
2019_04_04 13:47;58;0;1;practice;27;6;1;42;59;0;0;0.35999999999999999;0.64000000000000001;0.0;0.0;77;19;6;7;0.44;0.14999999999999999;0.17999999999999999;0.23000000000000001;0;8.649762761397142;13;96;22;2;
2019_04_04 13:47;58;0;1;practice;28;35;1;84;95;4;35;0.89000000000000001;0.050000000000000003;0.01;0.050000000000000003;5;98;0;0;0.19;0.81000000000000005;0.0;0.0;0;7.966469721529165;13;96;22;2;
2019_04_04 13:47;58;0;1;practice;29;59;1;13;27;48;51;0.56999999999999995;0.13;0.13;0.17000000000000001;8;37;97;1;0.65000000000000002;0.16;0.14999999999999999;0.040000000000000001;0;11.782852751704922;13;96;22;2;
2019_04_04 13:47;58;0;1;practice;30;7;0;13;31;0;0;0.51000000000000001;0.48999999999999999;0.0;0.0;8;79;42;18;0.85999999999999999;0.089999999999999997;0.02;0.029999999999999999;0;14.23273661800431;13;96;22;2;
2019_04_04 13:47;58;0;1;practice;31;13;0;15;25;0;0;0.29999999999999999;0.69999999999999996;0.0;0.0;3;43;35;73;0.44;0.40000000000000002;0.01;0.14999999999999999;1;12.132852976210643;13;96;22;2;
2019_04_04 13:47;58;0;1;practice;32;30;1;54;78;85;25;0.20999999999999999;0.60999999999999999;0.089999999999999997;0.090000000000000094;87;20;0;0;0.58999999999999997;0.40999999999999998;0.0;0.0;0;9.183091946716559;13;96;22;2;
2019_04_04 13:47;58;0;1;practice;33;56;0;47;52;64;10;0.77000000000000002;0.040000000000000001;0.11;0.080000000000000002;1;5;12;99;0.14000000000000001;0.28999999999999998;0.27000000000000002;0.29999999999999999;0;9.832934888795762;13;96;22;2;
2019_04_04 13:47;58;0;1;practice;34;1;1;67;36;0;0;0.14999999999999999;0.84999999999999998;0.0;0.0;1;4;81;77;0.25;0.54000000000000004;0.14000000000000001;0.070000000000000007;0;6.916404582742871;13;96;22;2;
2019_04_04 13:47;58;0;1;practice;35;70;0;21;42;14;63;0.96999999999999997;0.01;0.01;0.01;70;2;6;76;0.23999999999999999;0.42999999999999999;0.01;0.32000000000000001;1;18.73264585347215;13;96;22;2;
2019_04_04 13:47;58;0;1;practice;36;10;0;34;59;0;0;0.16;0.83999999999999997;0.0;0.0;21;61;96;7;0.19;0.01;0.5;0.29999999999999999;1;11.98285544577584;13;96;22;2;
2019_04_04 13:47;58;0;1;practice;37;4;1;40;59;0;0;0.19;0.81000000000000005;0.0;0.0;10;88;13;45;0.56000000000000005;0.28999999999999998;0.01;0.14000000000000001;0;5.28309553881104;13;96;22;2;
2019_04_04 13:47;58;0;1;practice;38;50;0;17;12;21;14;0.55000000000000004;0.34000000000000002;0.059999999999999998;0.049999999999999899;13;93;0;0;0.28999999999999998;0.70999999999999996;0.0;0.0;1;13.866167857296205;13;96;22;2;
2019_04_04 13:47;58;0;1;practice;39;29;1;66;40;92;49;0.46999999999999997;0.10000000000000001;0.34000000000000002;0.089999999999999997;8;94;0;0;0.44;0.56000000000000005;0.0;0.0;0;11.04953819134198;13;96;22;2;
2019_04_04 13:47;58;0;1;practice;40;3;0;20;70;0;0;0.13;0.87;0.0;0.0;95;19;80;73;0.31;0.57999999999999996;0.029999999999999999;0.080000000000000002;0;28.29905855050015;13;96;22;2;
2019_04_04 13:47;58;0;1;practice;41;15;1;24;59;0;0;0.56999999999999995;0.42999999999999999;0.0;0.0;9;8;80;22;0.31;0.10000000000000001;0.55000000000000004;0.039999999999999897;1;21.399451499988118;13;96;22;2;
2019_04_04 13:47;58;0;1;practice;42;60;0;39;93;27;78;0.85999999999999999;0.02;0.11;0.01;22;5;62;95;0.059999999999999998;0.56999999999999995;0.14000000000000001;0.23000000000000001;0;32.948795012633354;13;96;22;2;
2019_04_04 13:47;58;0;1;practice;43;26;0;24;46;74;59;0.29999999999999999;0.11;0.25;0.34000000000000002;91;6;0;0;0.28999999999999998;0.70999999999999996;0.0;0.0;0;10.066428733164457;13;96;22;2;
2019_04_04 13:47;58;0;1;practice;44;25;0;7;18;0;0;0.20999999999999999;0.79000000000000004;0.0;0.0;92;45;33;13;0.41999999999999998;0.17999999999999999;0.22;0.17999999999999999;1;11.399516927425111;13;96;22;2;
2019_04_04 13:47;58;0;1;practice;45;37;1;50;66;99;12;0.26000000000000001;0.71999999999999997;0.01;0.01;22;90;0;0;0.37;0.63;0.0;0.0;0;11.082853906306582;13;96;22;2;
2019_04_04 13:47;58;0;1;practice;46;74;1;36;46;10;12;0.11;0.19;0.65000000000000002;0.049999999999999899;92;24;79;19;0.51000000000000001;0.40999999999999998;0.02;0.059999999999999998;1;9.54971426812017;13;96;22;2;
2019_04_04 13:47;58;0;1;practice;47;28;0;37;83;75;8;0.83999999999999997;0.070000000000000007;0.01;0.080000000000000002;94;2;0;0;0.19;0.81000000000000005;0.0;0.0;0;7.583024530798639;13;96;22;2;
2019_04_04 13:47;58;0;1;practice;48;9;1;57;44;0;0;0.14999999999999999;0.84999999999999998;0.0;0.0;38;35;64;95;0.34000000000000002;0.45000000000000001;0.089999999999999997;0.12;0;29.398862011611527;13;96;22;2;
2019_04_04 13:47;58;0;1;practice;49;73;0;99;88;95;28;0.83999999999999997;0.14000000000000001;0.01;0.01;90;93;10;74;0.080000000000000002;0.46000000000000002;0.34999999999999998;0.11;0;13.716270713075573;13;96;22;2;
2019_04_04 13:47;58;0;1;practice;50;16;0;50;42;0;0;0.32000000000000001;0.68000000000000005;0.0;0.0;97;2;56;31;0.35999999999999999;0.16;0.16;0.32000000000000001;1;10.69955945525885;13;96;22;2;
2019_04_04 13:47;58;0;1;practice;51;34;0;57;23;66;79;0.56000000000000005;0.23000000000000001;0.13;0.079999999999999905;85;9;0;0;0.56000000000000005;0.44;0.0;0.0;0;8.433380757534223;13;96;22;2;
2019_04_04 13:47;58;0;1;practice;52;40;1;29;65;30;41;0.70999999999999996;0.01;0.14999999999999999;0.13;2;59;0;0;0.32000000000000001;0.68000000000000005;0.0;0.0;0;4.166461831750212;13;96;22;2;
2019_04_04 13:47;58;0;1;practice;53;32;0;21;86;16;78;0.45000000000000001;0.41999999999999998;0.050000000000000003;0.080000000000000099;95;9;0;0;0.42999999999999999;0.56999999999999995;0.0;0.0;0;5.399863628695357;13;96;22;2;
2019_04_04 13:47;58;0;1;practice;54;31;1;72;59;40;92;0.59999999999999998;0.34999999999999998;0.02;0.029999999999999999;97;29;0;0;0.38;0.62;0.0;0.0;0;8.099682869365324;13;96;22;2;
2019_04_04 13:47;58;0;1;practice;55;48;0;20;25;24;35;0.32000000000000001;0.13;0.48999999999999999;0.059999999999999901;44;76;0;0;0.29999999999999999;0.69999999999999996;0.0;0.0;1;6.766382356657914;13;96;22;2;
2019_04_04 13:47;58;0;1;practice;56;52;1;17;61;57;59;0.070000000000000007;0.050000000000000003;0.33000000000000002;0.55000000000000004;12;93;94;62;0.71999999999999997;0.16;0.080000000000000002;0.040000000000000001;0;11.066356891273244;13;96;22;2;
2019_04_04 13:47;58;0;1;practice;57;14;1;92;56;0;0;0.11;0.89000000000000001;0.0;0.0;97;31;51;4;0.58999999999999997;0.22;0.080000000000000002;0.11;0;22.649261151048222;13;96;22;2;
2019_04_04 13:47;58;0;1;practice;58;33;0;54;82;55;71;0.56000000000000005;0.20999999999999999;0.02;0.20999999999999999;13;99;0;0;0.5;0.5;0.0;0.0;0;9.749611444413176;13;96;22;2;
2019_04_04 13:47;58;0;1;practice;59;38;0;51;89;10;60;0.57999999999999996;0.029999999999999999;0.080000000000000002;0.31;8;84;0;0;0.33000000000000002;0.67000000000000004;0.0;0.0;0;10.032940469371397;13;96;22;2;
2019_04_04 13:47;58;0;1;practice;60;8;1;20;44;0;0;0.26000000000000001;0.73999999999999999;0.0;0.0;99;3;69;24;0.20999999999999999;0.60999999999999999;0.12;0.060000000000000102;0;11.782857562545814;13;96;22;2;
2019_04_04 13:47;58;0;1;practice;61;20;0;32;11;0;0;0.40999999999999998;0.58999999999999997;0.0;0.0;1;86;42;65;0.45000000000000001;0.38;0.050000000000000003;0.12;1;11.732780877741334;13;96;22;2;
2019_04_04 13:47;58;0;1;practice;62;65;0;35;15;77;1;0.62;0.33000000000000002;0.029999999999999999;0.02;68;3;25;96;0.38;0.28000000000000003;0.28000000000000003;0.059999999999999901;0;23.949117018253446;13;96;22;2;
2019_04_04 13:47;58;0;1;practice;63;5;0;23;58;0;0;0.71999999999999997;0.28000000000000003;0.0;0.0;94;12;52;3;0.11;0.84999999999999998;0.029999999999999999;0.01;0;19.165941298760345;13;96;22;2;
2019_04_04 13:47;58;0;1;practice;64;55;1;53;11;80;74;0.31;0.37;0.28000000000000003;0.039999999999999897;6;93;98;96;0.69999999999999996;0.22;0.050000000000000003;0.029999999999999999;1;18.4326770918658;13;96;22;2;
2019_04_04 13:47;58;0;1;practice;65;43;1;11;17;21;44;0.16;0.46000000000000002;0.25;0.13;2;66;0;0;0.44;0.56000000000000005;0.0;0.0;0;26.415719198270153;13;96;22;2;
2019_04_04 13:47;58;0;1;practice;66;51;0;38;13;51;84;0.91000000000000003;0.070000000000000007;0.01;0.0099999999999999603;4;89;35;16;0.80000000000000004;0.089999999999999997;0.059999999999999998;0.050000000000000003;0;12.766143738946994;13;96;22;2;
2019_04_04 13:47;58;0;1;practice;67;44;1;69;48;22;63;0.39000000000000001;0.40999999999999998;0.19;0.01;1;94;0;0;0.22;0.78000000000000003;0.0;0.0;1;12.166193707548473;13;96;22;2;
2019_04_04 13:47;58;0;1;practice;68;12;0;45;86;0;0;0.97999999999999998;0.02;0.0;0.0;6;23;95;81;0.14999999999999999;0.40999999999999998;0.050000000000000003;0.39000000000000001;0;13.599576068696024;13;96;22;2;
2019_04_04 13:47;58;0;1;practice;69;54;0;69;80;22;55;0.27000000000000002;0.31;0.059999999999999998;0.35999999999999999;52;2;49;90;0.059999999999999998;0.33000000000000002;0.20000000000000001;0.40999999999999998;0;31.098836482082334;13;96;22;2;
2019_04_04 13:47;58;0;1;practice;70;71;1;94;87;26;75;0.71999999999999997;0.23999999999999999;0.02;0.02;90;27;12;83;0.16;0.73999999999999999;0.02;0.080000000000000002;0;10.282893483491534;13;96;22;2;
2019_04_04 13:47;58;0;1;practice;71;2;0;41;60;0;0;0.97999999999999998;0.02;0.0;0.0;10;14;97;6;0.54000000000000004;0.17000000000000001;0.12;0.17000000000000001;0;7.399669591443853;13;96;22;2;
2019_04_04 13:47;58;0;1;practice;72;75;0;21;86;27;62;0.88;0.040000000000000001;0.070000000000000007;0.0099999999999999794;13;3;49;87;0.28999999999999998;0.39000000000000001;0.070000000000000007;0.25;0;8.932988513636246;13;96;22;2;
2019_04_04 13:47;58;0;1;practice;73;69;0;38;74;27;73;0.22;0.19;0.45000000000000001;0.14000000000000001;1;97;79;84;0.28000000000000003;0.45000000000000001;0.17000000000000001;0.10000000000000001;1;9.966406218428801;13;96;22;2;
2019_04_04 13:47;58;0;1;practice;74;49;0;14;31;42;22;0.77000000000000002;0.089999999999999997;0.02;0.12;87;28;0;0;0.68000000000000005;0.32000000000000001;0.0;0.0;1;6.549841915766592;13;96;22;2;
2019_04_04 13:47;58;0;1;practice;75;62;0;65;52;74;55;0.16;0.12;0.14999999999999999;0.56999999999999995;72;86;2;68;0.12;0.53000000000000003;0.22;0.13;0;9.782933253109604;13;96;22;2;
2019_04_04 13:47;58;1;1;timed;1;40;1;45;49;0;0;0.68999999999999995;0.31;0.0;0.0;2;92;65;73;0.23999999999999999;0.59999999999999998;0.11;0.050000000000000003;0;2.0225185842782594;13;96;22;2;
2019_04_04 13:47;58;1;1;timed;2;65;0;75;64;59;52;0.59999999999999998;0.22;0.14000000000000001;0.040000000000000001;1;99;0;0;0.35999999999999999;0.64000000000000001;0.0;0.0;1;6.333062857164805;13;96;22;2;
2019_04_04 13:47;58;1;1;timed;3;129;1;12;29;81;36;0.17999999999999999;0.79000000000000004;0.01;0.02;5;19;95;92;0.47999999999999998;0.26000000000000001;0.13;0.13;1;7.666372991554454;13;96;22;2;
2019_04_04 13:47;58;1;1;timed;4;9;1;61;69;0;0;0.93999999999999995;0.060000000000000102;0.0;0.0;18;93;72;16;0.40999999999999998;0.34999999999999998;0.089999999999999997;0.14999999999999999;0;5.749989255788478;13;96;22;2;
2019_04_04 13:47;58;1;1;timed;5;78;0;74;36;34;3;0.14999999999999999;0.64000000000000001;0.13;0.080000000000000002;1;83;0;0;0.41999999999999998;0.57999999999999996;0.0;0.0;0;3.949818438863076;13;96;22;2;
2019_04_04 13:47;58;1;1;timed;6;81;0;67;38;52;65;0.27000000000000002;0.35999999999999999;0.01;0.35999999999999999;2;77;0;0;0.14000000000000001;0.85999999999999999;0.0;0.0;1;8.249693549432322;13;96;22;2;
2019_04_04 13:47;58;1;1;timed;7;48;0;13;32;0;0;0.90000000000000002;0.10000000000000001;0.0;0.0;24;99;84;94;0.62;0.14999999999999999;0.20000000000000001;0.029999999999999999;1;4.399835084372626;13;96;22;2;
2019_04_04 13:47;58;1;1;timed;8;1;1;22;51;0;0;0.26000000000000001;0.73999999999999999;0.0;0.0;14;11;92;31;0.29999999999999999;0.40999999999999998;0.14999999999999999;0.14000000000000001;0;6.999748553379959;13;96;22;2;
2019_04_04 13:47;58;1;1;timed;9;64;0;48;39;34;19;0.46000000000000002;0.5;0.02;0.02;13;92;0;0;0.68999999999999995;0.31;0.0;0.0;0;6.016392459423514;13;96;22;2;
2019_04_04 13:47;58;1;1;timed;10;74;1;66;47;52;44;0.41999999999999998;0.26000000000000001;0.17999999999999999;0.14000000000000001;17;99;0;0;0.47999999999999998;0.52000000000000002;0.0;0.0;0;6.916362888788171;13;96;22;2;
2019_04_04 13:47;58;1;1;timed;11;46;0;5;19;0;0;0.32000000000000001;0.68000000000000005;0.0;0.0;88;38;97;66;0.60999999999999999;0.20000000000000001;0.040000000000000001;0.14999999999999999;1;2.66651410955501;13;96;22;2;
2019_04_04 13:47;58;1;1;timed;12;128;1;70;49;27;54;0.27000000000000002;0.53000000000000003;0.02;0.17999999999999999;72;97;6;20;0.29999999999999999;0.39000000000000001;0.22;0.0899999999999999;0;8.432976005449746;13;96;22;2;
2019_04_04 13:47;58;1;1;timed;13;123;1;26;24;51;92;0.72999999999999998;0.16;0.070000000000000007;0.040000000000000001;6;90;82;49;0.64000000000000001;0.25;0.050000000000000003;0.059999999999999998;0;6.049695666202297;13;96;22;2;
2019_04_04 13:47;58;1;1;timed;14;61;0;43;18;39;70;0.75;0.089999999999999997;0.089999999999999997;0.070000000000000007;16;66;0;0;0.64000000000000001;0.35999999999999999;0.0;0.0;0;6.716523763309397;13;96;22;2;
2019_04_04 13:47;58;1;1;timed;15;6;1;9;51;0;0;0.14999999999999999;0.84999999999999998;0.0;0.0;6;40;50;73;0.42999999999999999;0.26000000000000001;0.059999999999999998;0.25;0;8.816322413579655;13;96;22;2;
2019_04_04 13:47;58;1;1;timed;16;55;1;74;55;47;48;0.60999999999999999;0.31;0.070000000000000007;0.01;97;6;0;0;0.42999999999999999;0.56999999999999995;0.0;0.0;0;4.6331522105169824;13;96;22;2;
2019_04_04 13:47;58;1;1;timed;17;17;0;81;52;0;0;0.059999999999999998;0.93999999999999995;0.0;0.0;34;3;69;41;0.01;0.22;0.75;0.02;0;3.3165318455221495;13;96;22;2;
2019_04_04 13:47;58;1;1;timed;18;19;0;22;53;0;0;0.13;0.87;0.0;0.0;4;93;96;65;0.46999999999999997;0.059999999999999998;0.26000000000000001;0.20999999999999999;0;3.9999518915906265;13;96;22;2;
2019_04_04 13:47;58;1;1;timed;19;67;1;44;42;8;89;0.88;0.070000000000000007;0.029999999999999999;0.02;10;63;0;0;0.39000000000000001;0.60999999999999999;0.0;0.0;0;6.899859138577085;13;96;22;2;
2019_04_04 13:47;58;1;1;timed;20;82;1;78;66;30;27;0.28999999999999998;0.58999999999999997;0.080000000000000002;0.040000000000000001;90;6;0;0;0.82999999999999996;0.17000000000000001;0.0;0.0;1;5.9997398938667175;13;96;22;2;
2019_04_04 13:47;58;1;1;timed;21;124;0;37;65;15;41;0.17999999999999999;0.45000000000000001;0.02;0.34999999999999998;40;7;98;30;0.070000000000000007;0.45000000000000001;0.45000000000000001;0.029999999999999898;NA;9.332961829505166;13;96;22;2;
2019_04_04 13:47;58;1;1;timed;22;16;0;64;53;0;0;0.65000000000000002;0.34999999999999998;0.0;0.0;29;17;81;46;0.10000000000000001;0.01;0.44;0.45000000000000001;0;5.099811799902454;13;96;22;2;
2019_04_04 13:47;58;1;1;timed;23;105;0;49;74;63;58;0.84999999999999998;0.080000000000000002;0.02;0.050000000000000003;97;5;86;8;0.25;0.52000000000000002;0.070000000000000007;0.16;0;4.1664913382410305;13;96;22;2;
2019_04_04 13:47;58;1;1;timed;24;100;1;27;14;59;52;0.02;0.95999999999999996;0.01;0.01;17;98;0;0;0.48999999999999999;0.51000000000000001;0.0;0.0;1;5.183100606230255;13;96;22;2;
2019_04_04 13:47;58;1;1;timed;25;69;0;54;34;64;49;0.34000000000000002;0.25;0.20999999999999999;0.20000000000000001;14;98;0;0;0.62;0.38;0.0;0.0;0;3.60001225160795;13;96;22;2;
2019_04_04 13:47;58;1;1;timed;26;141;0;93;28;60;91;0.81999999999999995;0.10000000000000001;0.01;0.070000000000000007;14;85;7;89;0.45000000000000001;0.070000000000000007;0.23999999999999999;0.23999999999999999;0;3.6998439363196667;13;96;22;2;
2019_04_04 13:47;58;1;1;timed;27;36;1;70;17;0;0;0.33000000000000002;0.67000000000000004;0.0;0.0;84;1;12;88;0.22;0.27000000000000002;0.14000000000000001;0.37;0;5.2664019207441015;13;96;22;2;
2019_04_04 13:47;58;1;1;timed;28;132;1;27;70;21;19;0.64000000000000001;0.23000000000000001;0.029999999999999999;0.10000000000000001;11;85;55;6;0.39000000000000001;0.46999999999999997;0.029999999999999999;0.11;0;6.799899485497008;13;96;22;2;
2019_04_04 13:47;58;1;1;timed;29;62;0;12;45;16;50;0.20999999999999999;0.76000000000000001;0.02;0.01;92;15;0;0;0.20999999999999999;0.79000000000000004;0.0;0.0;0;4.366603078040498;13;96;22;2;
2019_04_04 13:47;58;1;1;timed;30;83;0;17;12;7;41;0.65000000000000002;0.19;0.089999999999999997;0.070000000000000007;6;84;0;0;0.72999999999999998;0.27000000000000002;0.0;0.0;0;3.966604745798122;13;96;22;2;
2019_04_04 13:47;58;1;1;timed;31;25;0;50;53;0;0;0.82999999999999996;0.17000000000000001;0.0;0.0;83;16;97;4;0.45000000000000001;0.29999999999999999;0.11;0.14000000000000001;1;7.249574561299141;13;96;22;2;
2019_04_04 13:47;58;1;1;timed;32;63;1;56;78;42;36;0.93000000000000005;0.040000000000000001;0.01;0.0199999999999999;2;72;0;0;0.32000000000000001;0.68000000000000005;0.0;0.0;0;3.716505802836309;13;96;22;2;
2019_04_04 13:47;58;1;1;timed;33;130;1;37;79;23;95;0.94999999999999996;0.029999999999999999;0.01;0.01;94;4;58;49;0.46000000000000002;0.5;0.029999999999999999;0.01;0;4.599921807798637;13;96;22;2;
2019_04_04 13:47;58;1;1;timed;34;22;1;32;55;0;0;0.39000000000000001;0.60999999999999999;0.0;0.0;93;72;59;22;0.20000000000000001;0.11;0.14000000000000001;0.55000000000000004;0;6.233185950548432;13;96;22;2;
2019_04_04 13:47;58;1;1;timed;35;106;1;85;69;22;61;0.10000000000000001;0.58999999999999997;0.17999999999999999;0.13;20;79;91;84;0.55000000000000004;0.14999999999999999;0.26000000000000001;0.039999999999999897;0;5.383075718146301;13;96;22;2;
2019_04_04 13:47;58;1;1;timed;36;115;1;50;28;61;79;0.83999999999999997;0.040000000000000001;0.059999999999999998;0.059999999999999998;1;26;97;55;0.45000000000000001;0.080000000000000002;0.40999999999999998;0.060000000000000102;0;3.3998139166724286;13;96;22;2;
2019_04_04 13:47;58;1;1;timed;37;23;1;54;40;0;0;0.93000000000000005;0.070000000000000007;0.0;0.0;36;23;71;86;0.02;0.41999999999999998;0.19;0.37;0;7.766630596050163;13;96;22;2;
2019_04_04 13:47;58;1;1;timed;38;60;0;64;59;57;96;0.83999999999999997;0.13;0.02;0.01;83;6;0;0;0.54000000000000004;0.46000000000000002;0.0;0.0;0;5.466382805669582;13;96;22;2;
2019_04_04 13:47;58;1;1;timed;39;66;0;89;23;27;15;0.070000000000000007;0.54000000000000004;0.17000000000000001;0.22;9;73;0;0;0.72999999999999998;0.27000000000000002;0.0;0.0;0;2.816506187703453;13;96;22;2;
2019_04_04 13:47;58;1;1;timed;40;114;1;57;39;79;97;0.77000000000000002;0.02;0.13;0.080000000000000002;92;36;6;1;0.54000000000000004;0.12;0.13;0.20999999999999999;0;7.833017635260148;13;96;22;2;
2019_04_04 13:47;58;1;1;timed;41;50;1;15;20;0;0;0.82999999999999996;0.17000000000000001;0.0;0.0;97;18;88;87;0.56999999999999995;0.39000000000000001;0.01;0.029999999999999999;1;4.016393742314449;13;96;22;2;
2019_04_04 13:47;58;1;1;timed;42;54;0;44;79;78;52;0.79000000000000004;0.19;0.01;0.0099999999999999603;96;1;0;0;0.28000000000000003;0.71999999999999997;0.0;0.0;0;4.433130914527737;13;96;22;2;
2019_04_04 13:47;58;1;1;timed;43;119;0;60;58;11;18;0.25;0.72999999999999998;0.01;0.01;96;23;42;85;0.44;0.48999999999999999;0.059999999999999998;0.010000000000000101;0;6.13290717835207;13;96;22;2;
2019_04_04 13:47;58;1;1;timed;44;88;1;77;13;12;7;0.12;0.19;0.66000000000000003;0.029999999999999898;94;2;0;0;0.40999999999999998;0.58999999999999997;0.0;0.0;1;6.43301898229538;13;96;22;2;
2019_04_04 13:47;58;1;1;timed;45;51;0;52;23;43;16;0.60999999999999999;0.20999999999999999;0.01;0.17000000000000001;92;7;0;0;0.14999999999999999;0.84999999999999998;0.0;0.0;0;4.999760740844067;13;96;22;2;
2019_04_04 13:47;58;1;1;timed;46;136;0;29;67;14;75;0.46000000000000002;0.29999999999999999;0.20999999999999999;0.0300000000000001;70;86;1;85;0.31;0.39000000000000001;0.27000000000000002;0.029999999999999898;1;6.56640724474164;13;96;22;2;
2019_04_04 13:47;58;1;1;timed;47;8;1;50;36;0;0;0.080000000000000002;0.92000000000000004;0.0;0.0;6;19;84;29;0.54000000000000004;0.070000000000000007;0.17000000000000001;0.22;0;5.483129022263711;13;96;22;2;
2019_04_04 13:47;58;1;1;timed;48;138;1;8;20;43;51;0.38;0.5;0.02;0.10000000000000001;72;82;70;1;0.39000000000000001;0.050000000000000003;0.070000000000000007;0.48999999999999999;0;7.966461382738089;13;96;22;2;
2019_04_04 13:47;58;1;1;timed;49;139;1;44;31;16;8;0.79000000000000004;0.070000000000000007;0.13;0.0099999999999999499;92;58;2;88;0.55000000000000004;0.070000000000000007;0.34000000000000002;0.039999999999999897;1;6.499697879189171;13;96;22;2;
2019_04_04 13:47;58;1;1;timed;50;116;0;53;65;43;99;0.56999999999999995;0.37;0.050000000000000003;0.010000000000000101;57;72;11;87;0.67000000000000004;0.13;0.14999999999999999;0.050000000000000003;0;6.3500140155829286;13;96;22;2;
2019_04_04 13:47;58;1;1;timed;51;96;1;51;54;39;7;0.17000000000000001;0.26000000000000001;0.10000000000000001;0.46999999999999997;24;96;0;0;0.28000000000000003;0.71999999999999997;0.0;0.0;1;3.1831859184762834;13;96;22;2;
2019_04_04 13:47;58;1;1;timed;52;91;1;74;81;86;48;0.93000000000000005;0.02;0.01;0.039999999999999897;7;64;0;0;0.13;0.87;0.0;0.0;0;4.616442235591421;13;96;22;2;
2019_04_04 13:47;58;1;1;timed;53;68;1;84;27;55;62;0.01;0.050000000000000003;0.40999999999999998;0.53000000000000003;9;82;0;0;0.37;0.63;0.0;0.0;0;4.799772800018673;13;96;22;2;
2019_04_04 13:47;58;1;1;timed;54;144;1;99;93;90;71;0.65000000000000002;0.32000000000000001;0.01;0.02;97;14;48;73;0.23000000000000001;0.46000000000000002;0.13;0.17999999999999999;0;6.033201216950147;13;96;22;2;
2019_04_04 13:47;58;1;1;timed;55;80;1;47;39;45;10;0.13;0.76000000000000001;0.059999999999999998;0.050000000000000003;2;87;0;0;0.48999999999999999;0.51000000000000001;0.0;0.0;0;8.599748938247103;13;96;22;2;
2019_04_04 13:47;58;1;1;timed;56;104;1;55;85;93;3;0.87;0.02;0.089999999999999997;0.02;1;2;90;8;0.35999999999999999;0.070000000000000007;0.40000000000000002;0.17000000000000001;0;5.333205578779598;13;96;22;2;
2019_04_04 13:47;58;1;1;timed;57;107;0;52;48;13;63;0.68000000000000005;0.19;0.050000000000000003;0.079999999999999905;54;91;33;3;0.19;0.17999999999999999;0.33000000000000002;0.29999999999999999;0;7.199717892287481;13;96;22;2;
2019_04_04 13:47;58;1;1;timed;58;131;0;83;41;81;88;0.23999999999999999;0.58999999999999997;0.10000000000000001;0.070000000000000007;82;97;4;17;0.26000000000000001;0.46999999999999997;0.11;0.16;0;8.766341624871075;13;96;22;2;
2019_04_04 13:47;58;1;1;timed;59;11;1;17;36;0;0;0.14000000000000001;0.85999999999999999;0.0;0.0;19;41;34;95;0.88;0.02;0.050000000000000003;0.050000000000000003;1;7.683040631079621;13;96;22;2;
2019_04_04 13:47;58;1;1;timed;60;57;1;52;35;23;47;0.22;0.68000000000000005;0.040000000000000001;0.059999999999999998;71;7;0;0;0.28999999999999998;0.70999999999999996;0.0;0.0;0;4.666458303800482;13;96;22;2;
2019_04_04 13:47;58;1;1;timed;61;44;1;79;74;0;0;0.71999999999999997;0.28000000000000003;0.0;0.0;3;67;15;36;0.41999999999999998;0.53000000000000003;0.02;0.029999999999999999;0;3.433100125146211;13;96;22;2;
2019_04_04 13:47;58;1;1;timed;62;110;1;47;44;23;52;0.13;0.27000000000000002;0.040000000000000001;0.56000000000000005;99;2;30;22;0.28999999999999998;0.5;0.11;0.10000000000000001;0;8.882977897713772;13;96;22;2;
2019_04_04 13:47;58;1;1;timed;63;29;0;44;51;0;0;0.78000000000000003;0.22;0.0;0.0;74;1;68;82;0.69999999999999996;0.28000000000000003;0.01;0.01;0;5.583067186921653;13;96;22;2;
2019_04_04 13:47;58;1;1;timed;64;118;1;62;52;65;68;0.40999999999999998;0.44;0.10000000000000001;0.0500000000000001;79;20;14;37;0.56999999999999995;0.23999999999999999;0.14000000000000001;0.050000000000000003;0;5.466427706851846;13;96;22;2;
2019_04_04 13:47;58;1;1;timed;65;142;1;98;65;64;84;0.88;0.070000000000000007;0.01;0.040000000000000001;5;68;60;16;0.46000000000000002;0.080000000000000002;0.27000000000000002;0.19;0;2.6832205565310687;13;96;22;2;
2019_04_04 13:47;58;1;1;timed;66;4;1;40;43;0;0;0.58999999999999997;0.40999999999999998;0.0;0.0;2;33;88;81;0.69999999999999996;0.14000000000000001;0.13;0.029999999999999999;0;5.933078957445559;13;96;22;2;
2019_04_04 13:47;58;1;1;timed;67;52;1;71;51;10;54;0.22;0.12;0.19;0.46999999999999997;91;1;0;0;0.29999999999999999;0.69999999999999996;0.0;0.0;0;3.733096789629599;13;96;22;2;
2019_04_04 13:47;58;1;1;timed;68;134;0;57;48;50;55;0.02;0.62;0.17999999999999999;0.17999999999999999;80;96;15;18;0.23999999999999999;0.35999999999999999;0.33000000000000002;0.070000000000000007;0;4.0999522764577705;13;96;22;2;
2019_04_04 13:47;58;1;1;timed;69;77;1;24;17;99;41;0.17999999999999999;0.13;0.10000000000000001;0.58999999999999997;12;97;0;0;0.59999999999999998;0.40000000000000002;0.0;0.0;0;5.7830682773787885;13;96;22;2;
2019_04_04 13:47;58;1;1;timed;70;98;1;27;10;31;79;0.23000000000000001;0.67000000000000004;0.070000000000000007;0.029999999999999999;25;99;0;0;0.38;0.62;0.0;0.0;1;6.483222352578196;13;96;22;2;
2019_04_04 13:47;58;1;1;timed;71;135;1;48;60;41;51;0.14000000000000001;0.40000000000000002;0.089999999999999997;0.37;94;1;85;65;0.64000000000000001;0.29999999999999999;0.01;0.050000000000000003;1;6.933017057959205;13;96;22;2;
2019_04_04 13:47;58;1;1;timed;72;145;1;91;89;90;74;0.57999999999999996;0.29999999999999999;0.11;0.010000000000000101;2;75;84;39;0.32000000000000001;0.27000000000000002;0.39000000000000001;0.0199999999999999;0;4.13311661029411;13;96;22;2;
2019_04_04 13:47;58;1;1;timed;73;20;0;44;40;0;0;0.91000000000000003;0.089999999999999997;0.0;0.0;29;5;80;99;0.25;0.40000000000000002;0.26000000000000001;0.089999999999999997;0;2.916531268221206;13;96;22;2;
2019_04_04 13:47;58;1;1;timed;74;120;0;64;40;48;51;0.19;0.02;0.070000000000000007;0.71999999999999997;97;9;79;94;0.23000000000000001;0.54000000000000004;0.01;0.22;0;5.349783415941147;13;96;22;2;
2019_04_04 13:47;58;1;1;timed;75;89;0;26;41;13;56;0.059999999999999998;0.40999999999999998;0.050000000000000003;0.47999999999999998;5;97;0;0;0.37;0.63;0.0;0.0;1;6.499643997770363;13;96;22;2;
2019_04_04 13:47;58;2;1;control;1;101;1;30;96;61;45;0.65000000000000002;0.14000000000000001;0.11;0.10000000000000001;3;98;63;89;0.75;0.19;0.040000000000000001;0.02;0;5.037899804936387;13;96;22;2;
2019_04_04 13:47;58;2;1;control;2;73;1;65;68;70;47;0.25;0.23000000000000001;0.20999999999999999;0.31;27;95;0;0;0.45000000000000001;0.55000000000000004;0.0;0.0;0;6.033046949317395;13;96;22;2;
2019_04_04 13:47;58;2;1;control;3;78;0;74;36;34;3;0.14999999999999999;0.64000000000000001;0.13;0.080000000000000002;1;83;0;0;0.41999999999999998;0.57999999999999996;0.0;0.0;0;4.533172672627643;13;96;22;2;
2019_04_04 13:47;58;2;1;control;4;27;1;44;26;0;0;0.35999999999999999;0.64000000000000001;0.0;0.0;63;10;3;5;0.58999999999999997;0.19;0.14999999999999999;0.070000000000000007;0;6.666571518923774;13;96;22;2;
2019_04_04 13:47;58;2;1;control;5;91;1;74;81;86;48;0.93000000000000005;0.02;0.01;0.039999999999999897;7;64;0;0;0.13;0.87;0.0;0.0;0;5.299897240437076;13;96;22;2;
2019_04_04 13:47;58;2;1;control;6;29;1;44;51;0;0;0.78000000000000003;0.22;0.0;0.0;74;1;68;82;0.69999999999999996;0.28000000000000003;0.01;0.01;0;5.466423537456194;13;96;22;2;
2019_04_04 13:47;58;2;1;control;7;87;1;10;30;63;4;0.56999999999999995;0.12;0.16;0.14999999999999999;86;2;0;0;0.42999999999999999;0.56999999999999995;0.0;0.0;1;13.466163752045304;13;96;22;2;
2019_04_04 13:47;58;2;1;control;8;97;1;17;33;32;74;0.94999999999999996;0.01;0.029999999999999999;0.01;76;23;0;0;0.33000000000000002;0.67000000000000004;0.0;0.0;1;7.649646339046285;13;96;22;2;
2019_04_04 13:47;58;2;1;control;9;40;0;45;49;0;0;0.68999999999999995;0.31;0.0;0.0;2;92;65;73;0.23999999999999999;0.59999999999999998;0.11;0.050000000000000003;1;4.866591532022085;13;96;22;2;
2019_04_04 13:47;58;2;1;control;10;42;1;70;48;0;0;0.79000000000000004;0.20999999999999999;0.0;0.0;51;8;12;67;0.19;0.26000000000000001;0.28999999999999998;0.26000000000000001;0;8.983115551909123;13;96;22;2;
2019_04_04 13:47;58;2;1;control;11;60;0;64;59;57;96;0.83999999999999997;0.13;0.02;0.01;83;6;0;0;0.54000000000000004;0.46000000000000002;0.0;0.0;0;15.382778728898757;13;96;22;2;
2019_04_04 13:47;58;2;1;control;12;93;0;87;81;73;98;0.80000000000000004;0.040000000000000001;0.14999999999999999;0.0099999999999999499;5;71;0;0;0.51000000000000001;0.48999999999999999;0.0;0.0;0;4.699824692956099;13;96;22;2;
2019_04_04 13:47;58;2;1;control;13;57;1;52;35;23;47;0.22;0.68000000000000005;0.040000000000000001;0.059999999999999998;71;7;0;0;0.28999999999999998;0.70999999999999996;0.0;0.0;0;4.399777354281014;13;96;22;2;
2019_04_04 13:47;58;2;1;control;14;26;0;76;41;0;0;0.57999999999999996;0.41999999999999998;0.0;0.0;61;79;84;2;0.13;0.029999999999999999;0.67000000000000004;0.17000000000000001;1;6.383191499051918;13;96;22;2;
2019_04_04 13:47;58;2;1;control;15;88;0;77;13;12;7;0.12;0.19;0.66000000000000003;0.029999999999999898;94;2;0;0;0.40999999999999998;0.58999999999999997;0.0;0.0;1;8.116310739272194;13;96;22;2;
2019_04_04 13:47;58;2;1;control;16;138;1;8;20;43;51;0.38;0.5;0.02;0.10000000000000001;72;82;70;1;0.39000000000000001;0.050000000000000003;0.070000000000000007;0.48999999999999999;1;12.59949717090467;13;96;22;2;
2019_04_04 13:47;58;2;1;control;17;10;1;45;62;0;0;0.059999999999999998;0.93999999999999995;0.0;0.0;17;99;28;67;0.58999999999999997;0.34000000000000002;0.01;0.059999999999999998;0;5.599743165238124;13;96;22;2;
2019_04_04 13:47;58;2;1;control;18;36;1;70;17;0;0;0.33000000000000002;0.67000000000000004;0.0;0.0;84;1;12;88;0.22;0.27000000000000002;0.14000000000000001;0.37;1;11.682867761528541;13;96;22;2;
2019_04_04 13:47;58;2;1;control;19;109;0;75;28;16;56;0.19;0.070000000000000007;0.059999999999999998;0.68000000000000005;3;50;98;44;0.5;0.02;0.34999999999999998;0.13;0;5.999880049699186;13;96;22;2;
2019_04_04 13:47;58;2;1;control;20;74;1;66;47;52;44;0.41999999999999998;0.26000000000000001;0.17999999999999999;0.14000000000000001;17;99;0;0;0.47999999999999998;0.52000000000000002;0.0;0.0;1;11.08288212990692;13;96;22;2;
2019_04_04 13:47;58;2;1;control;21;55;0;74;55;47;48;0.60999999999999999;0.31;0.070000000000000007;0.01;97;6;0;0;0.42999999999999999;0.56999999999999995;0.0;0.0;0;3.5831573100085734;13;96;22;2;
2019_04_04 13:47;58;2;1;control;22;133;1;59;88;60;36;0.67000000000000004;0.070000000000000007;0.12;0.14000000000000001;7;91;66;61;0.25;0.68999999999999995;0.01;0.0500000000000001;1;12.749480268817024;13;96;22;2;
2019_04_04 13:47;58;2;1;control;23;28;1;47;30;0;0;0.97999999999999998;0.02;0.0;0.0;55;48;77;13;0.070000000000000007;0.26000000000000001;0.42999999999999999;0.23999999999999999;1;11.499666448361495;13;96;22;2;
2019_04_04 13:47;58;2;1;control;24;1;0;22;51;0;0;0.26000000000000001;0.73999999999999999;0.0;0.0;14;11;92;31;0.29999999999999999;0.40999999999999998;0.14999999999999999;0.14000000000000001;0;5.933097238641494;13;96;22;2;
2019_04_04 13:47;58;2;1;control;25;85;1;31;22;82;50;0.11;0.69999999999999996;0.01;0.17999999999999999;3;99;0;0;0.62;0.38;0.0;0.0;0;7.666425910804264;13;96;22;2;
2019_04_04 13:47;58;2;1;control;26;21;1;64;28;0;0;0.080000000000000002;0.92000000000000004;0.0;0.0;50;1;88;13;0.57999999999999996;0.13;0.02;0.27000000000000002;1;12.999481391346308;13;96;22;2;
2019_04_04 13:47;58;2;1;control;27;23;1;54;40;0;0;0.93000000000000005;0.070000000000000007;0.0;0.0;36;23;71;86;0.02;0.41999999999999998;0.19;0.37;1;11.482885914435428;13;96;22;2;
2019_04_04 13:47;58;2;1;control;28;139;0;44;31;16;8;0.79000000000000004;0.070000000000000007;0.13;0.0099999999999999499;92;58;2;88;0.55000000000000004;0.070000000000000007;0.34000000000000002;0.039999999999999897;1;10.333018597428236;13;96;22;2;
2019_04_04 13:47;58;2;1;control;29;70;0;66;55;69;50;0.22;0.29999999999999999;0.29999999999999999;0.17999999999999999;2;90;0;0;0.34000000000000002;0.66000000000000003;0.0;0.0;0;4.399977805986964;13;96;22;2;
2019_04_04 13:47;58;2;1;control;30;135;1;48;60;41;51;0.14000000000000001;0.40000000000000002;0.089999999999999997;0.37;94;1;85;65;0.64000000000000001;0.29999999999999999;0.01;0.050000000000000003;0;6.2665523397045035;13;96;22;2;
2019_04_04 13:47;58;2;1;control;31;82;0;78;66;30;27;0.28999999999999998;0.58999999999999997;0.080000000000000002;0.040000000000000001;90;6;0;0;0.82999999999999996;0.17000000000000001;0.0;0.0;1;4.066442203518818;13;96;22;2;
2019_04_04 13:47;58;2;1;control;32;107;1;52;48;13;63;0.68000000000000005;0.19;0.050000000000000003;0.079999999999999905;54;91;33;3;0.19;0.17999999999999999;0.33000000000000002;0.29999999999999999;1;9.999582098283554;13;96;22;2;
2019_04_04 13:47;58;2;1;control;33;72;0;63;82;51;61;0.01;0.96999999999999997;0.01;0.01;92;12;0;0;0.89000000000000001;0.11;0.0;0.0;0;8.949768085394226;13;96;22;2;
2019_04_04 13:47;58;2;1;control;34;38;1;40;70;0;0;0.53000000000000003;0.46999999999999997;0.0;0.0;97;90;6;96;0.56999999999999995;0.070000000000000007;0.27000000000000002;0.089999999999999997;1;7.099654645764986;13;96;22;2;
2019_04_04 13:47;58;2;1;control;35;114;1;57;39;79;97;0.77000000000000002;0.02;0.13;0.080000000000000002;92;36;6;1;0.54000000000000004;0.12;0.13;0.20999999999999999;0;12.066149062944078;13;96;22;2;
2019_04_04 13:47;58;2;1;control;36;46;1;5;19;0;0;0.32000000000000001;0.68000000000000005;0.0;0.0;88;38;97;66;0.60999999999999999;0.20000000000000001;0.040000000000000001;0.14999999999999999;1;5.533100830736203;13;96;22;2;
2019_04_04 13:47;58;2;1;control;37;136;0;29;67;14;75;0.46000000000000002;0.29999999999999999;0.20999999999999999;0.0300000000000001;70;86;1;85;0.31;0.39000000000000001;0.27000000000000002;0.029999999999999898;1;17.349259034278475;13;96;22;2;
2019_04_04 13:47;58;2;1;control;38;53;0;26;70;50;80;0.29999999999999999;0.59999999999999998;0.040000000000000001;0.059999999999999998;89;1;0;0;0.40999999999999998;0.58999999999999997;0.0;0.0;0;6.399669270721461;13;96;22;2;
2019_04_04 13:47;58;2;1;control;39;77;0;24;17;99;41;0.17999999999999999;0.13;0.10000000000000001;0.58999999999999997;12;97;0;0;0.59999999999999998;0.40000000000000002;0.0;0.0;0;8.26630057236207;13;96;22;2;
2019_04_04 13:47;58;2;1;control;40;5;1;70;5;0;0;0.98999999999999999;0.01;0.0;0.0;92;87;47;1;0.44;0.02;0.16;0.38;0;8.366467733048466;13;96;22;2;
2019_04_04 13:47;58;2;1;control;41;126;0;16;55;51;42;0.68999999999999995;0.23999999999999999;0.01;0.060000000000000102;66;4;1;5;0.46999999999999997;0.38;0.089999999999999997;0.059999999999999998;0;5.499889992103817;13;96;22;2;
2019_04_04 13:47;58;2;1;control;42;17;0;81;52;0;0;0.059999999999999998;0.93999999999999995;0.0;0.0;34;3;69;41;0.01;0.22;0.75;0.02;0;7.733054454229205;13;96;22;2;
2019_04_04 13:47;58;2;1;control;43;86;1;56;30;57;88;0.20000000000000001;0.35999999999999999;0.080000000000000002;0.35999999999999999;98;2;0;0;0.77000000000000002;0.23000000000000001;0.0;0.0;0;8.59965849443779;13;96;22;2;
2019_04_04 13:47;58;2;1;control;44;4;1;40;43;0;0;0.58999999999999997;0.40999999999999998;0.0;0.0;2;33;88;81;0.69999999999999996;0.14000000000000001;0.13;0.029999999999999999;0;4.499818150212377;13;96;22;2;
2019_04_04 13:47;58;2;1;control;45;22;0;32;55;0;0;0.39000000000000001;0.60999999999999999;0.0;0.0;93;72;59;22;0.20000000000000001;0.11;0.14000000000000001;0.55000000000000004;1;6.233014363888287;13;96;22;2;
2019_04_04 13:47;58;2;1;control;46;131;1;83;41;81;88;0.23999999999999999;0.58999999999999997;0.10000000000000001;0.070000000000000007;82;97;4;17;0.26000000000000001;0.46999999999999997;0.11;0.16;0;7.516495411419783;13;96;22;2;
2019_04_04 13:47;58;2;1;control;47;67;1;44;42;8;89;0.88;0.070000000000000007;0.029999999999999999;0.02;10;63;0;0;0.39000000000000001;0.60999999999999999;0.0;0.0;0;6.3330275776647795;13;96;22;2;
2019_04_04 13:47;58;2;1;control;48;124;0;37;65;15;41;0.17999999999999999;0.45000000000000001;0.02;0.34999999999999998;40;7;98;30;0.070000000000000007;0.45000000000000001;0.45000000000000001;0.029999999999999898;1;21.499194344503394;13;96;22;2;
2019_04_04 13:47;58;2;1;control;49;125;1;37;41;10;35;0.91000000000000003;0.040000000000000001;0.029999999999999999;0.02;7;13;91;93;0.26000000000000001;0.39000000000000001;0.16;0.19;0;10.31650586698106;13;96;22;2;
2019_04_04 13:47;58;2;1;control;50;41;1;99;40;0;0;0.89000000000000001;0.11;0.0;0.0;1;67;52;46;0.51000000000000001;0.38;0.029999999999999999;0.080000000000000002;0;5.833098136665285;13;96;22;2;
2019_04_04 13:47;58;2;1;control;51;63;1;56;78;42;36;0.93000000000000005;0.040000000000000001;0.01;0.0199999999999999;2;72;0;0;0.32000000000000001;0.68000000000000005;0.0;0.0;0;5.999747911934719;13;96;22;2;
2019_04_04 13:47;58;2;1;control;52;117;1;65;85;92;41;0.23000000000000001;0.17999999999999999;0.54000000000000004;0.050000000000000003;99;93;10;13;0.64000000000000001;0.16;0.01;0.19;0;13.082817664638242;13;96;22;2;
2019_04_04 13:47;58;2;1;control;53;24;1;35;27;0;0;0.070000000000000007;0.93000000000000005;0.0;0.0;62;3;81;95;0.35999999999999999;0.55000000000000004;0.01;0.080000000000000002;1;8.332980431423493;13;96;22;2;
2019_04_04 13:47;58;2;1;control;54;32;0;19;81;0;0;0.93000000000000005;0.070000000000000007;0.0;0.0;1;65;41;68;0.45000000000000001;0.050000000000000003;0.059999999999999998;0.44;1;11.849508556561887;13;96;22;2;
2019_04_04 13:47;58;2;1;control;55;108;0;48;72;39;70;0.14000000000000001;0.66000000000000003;0.02;0.17999999999999999;81;44;98;8;0.59999999999999998;0.029999999999999999;0.050000000000000003;0.32000000000000001;1;12.732948295005826;13;96;22;2;
2019_04_04 13:47;58;2;1;control;56;137;0;71;22;28;17;0.25;0.46000000000000002;0.050000000000000003;0.23999999999999999;3;98;92;69;0.42999999999999999;0.23999999999999999;0.20000000000000001;0.13;1;14.649563913304974;13;96;22;2;
2019_04_04 13:47;58;2;1;control;57;145;0;91;89;90;74;0.57999999999999996;0.29999999999999999;0.11;0.010000000000000101;2;75;84;39;0.32000000000000001;0.27000000000000002;0.39000000000000001;0.0199999999999999;0;8.699648616177456;13;96;22;2;
2019_04_04 13:47;58;2;1;control;58;123;0;26;24;51;92;0.72999999999999998;0.16;0.070000000000000007;0.040000000000000001;6;90;82;49;0.64000000000000001;0.25;0.050000000000000003;0.059999999999999998;0;9.216304068239424;13;96;22;2;
2019_04_04 13:47;58;2;1;control;59;56;1;28;84;37;41;0.68000000000000005;0.28000000000000003;0.02;0.0199999999999999;6;95;0;0;0.72999999999999998;0.27000000000000002;0.0;0.0;0;3.483195411869019;13;96;22;2;
2019_04_04 13:47;58;2;1;control;60;16;1;64;53;0;0;0.65000000000000002;0.34999999999999998;0.0;0.0;29;17;81;46;0.10000000000000001;0.01;0.44;0.45000000000000001;0;3.099960615249074;13;96;22;2;
2019_04_04 13:47;58;2;1;control;61;80;0;47;39;45;10;0.13;0.76000000000000001;0.059999999999999998;0.050000000000000003;2;87;0;0;0.48999999999999999;0.51000000000000001;0.0;0.0;0;6.8497234407905125;13;96;22;2;
2019_04_04 13:47;58;2;1;control;62;122;0;35;58;25;31;0.81999999999999995;0.070000000000000007;0.080000000000000002;0.029999999999999999;18;64;68;89;0.63;0.17000000000000001;0.11;0.089999999999999997;1;8.632978699520663;13;96;22;2;
2019_04_04 13:47;58;2;1;control;63;11;0;17;36;0;0;0.14000000000000001;0.85999999999999999;0.0;0.0;19;41;34;95;0.88;0.02;0.050000000000000003;0.050000000000000003;0;9.832940982527816;13;96;22;2;
2019_04_04 13:47;58;2;1;control;64;104;1;55;85;93;3;0.87;0.02;0.089999999999999997;0.02;1;2;90;8;0.35999999999999999;0.070000000000000007;0.40000000000000002;0.17000000000000001;0;7.299685884158862;13;96;22;2;
2019_04_04 13:47;58;2;1;control;65;99;1;8;24;15;73;0.56000000000000005;0.35999999999999999;0.070000000000000007;0.0099999999999999499;88;12;0;0;0.52000000000000002;0.47999999999999998;0.0;0.0;0;15.416085142904194;13;96;22;2;
2019_04_04 13:47;58;2;1;control;66;128;1;70;49;27;54;0.27000000000000002;0.53000000000000003;0.02;0.17999999999999999;72;97;6;20;0.29999999999999999;0.39000000000000001;0.22;0.0899999999999999;0;6.133102177771434;13;96;22;2;
2019_04_04 13:47;58;2;1;control;67;144;1;99;93;90;71;0.65000000000000002;0.32000000000000001;0.01;0.02;97;14;48;73;0.23000000000000001;0.46000000000000002;0.13;0.17999999999999999;0;5.433032131927575;13;96;22;2;
2019_04_04 13:47;58;2;1;control;68;143;1;88;44;56;73;0.95999999999999996;0.02;0.01;0.01;20;3;87;32;0.19;0.40000000000000002;0.28000000000000003;0.13;0;6.066424563769033;13;96;22;2;
2019_04_04 13:47;58;2;1;control;69;79;0;52;46;29;22;0.17999999999999999;0.51000000000000001;0.23999999999999999;0.070000000000000104;93;14;0;0;0.45000000000000001;0.55000000000000004;0.0;0.0;0;6.14990740734811;13;96;22;2;
2019_04_04 13:47;58;2;1;control;70;61;0;43;18;39;70;0.75;0.089999999999999997;0.089999999999999997;0.070000000000000007;16;66;0;0;0.64000000000000001;0.35999999999999999;0.0;0.0;1;14.59941891455901;13;96;22;2;
2019_04_04 13:47;58;2;1;control;71;37;1;14;98;0;0;0.93000000000000005;0.070000000000000007;0.0;0.0;41;2;87;66;0.17999999999999999;0.48999999999999999;0.32000000000000001;0.010000000000000101;0;3.383138579801198;13;96;22;2;
2019_04_04 13:47;58;2;1;control;72;14;0;36;40;0;0;0.54000000000000004;0.46000000000000002;0.0;0.0;99;70;1;11;0.16;0.089999999999999997;0.080000000000000002;0.67000000000000004;0;8.932954517026701;13;96;22;2;
2019_04_04 13:47;58;2;1;control;73;43;1;60;83;0;0;0.23000000000000001;0.77000000000000002;0.0;0.0;72;5;70;12;0.29999999999999999;0.40999999999999998;0.12;0.17000000000000001;0;3.2332116083666733;13;96;22;2;
2019_04_04 13:47;58;2;1;control;74;132;1;27;70;21;19;0.64000000000000001;0.23000000000000001;0.029999999999999999;0.10000000000000001;11;85;55;6;0.39000000000000001;0.46999999999999997;0.029999999999999999;0.11;0;7.766475686972171;13;96;22;2;
2019_04_04 13:47;58;2;1;control;75;19;0;22;53;0;0;0.13;0.87;0.0;0.0;4;93;96;65;0.46999999999999997;0.059999999999999998;0.26000000000000001;0.20999999999999999;1;4.483323059514987;13;96;22;2;
2019_04_04 13:47;58;3;1;timed;1;87;0;10;30;63;4;0.56999999999999995;0.12;0.16;0.14999999999999999;86;2;0;0;0.42999999999999999;0.56999999999999995;0.0;0.0;0;3.2060040577839573;13;96;22;2;
2019_04_04 13:47;58;3;1;timed;2;33;1;27;70;0;0;0.88;0.12;0.0;0.0;93;3;77;16;0.080000000000000002;0.40000000000000002;0.5;0.02;0;2.7996294369586394;13;96;22;2;
2019_04_04 13:47;58;3;1;timed;3;18;0;68;50;0;0;0.029999999999999999;0.96999999999999997;0.0;0.0;34;64;15;89;0.65000000000000002;0.029999999999999999;0.050000000000000003;0.27000000000000002;0;2.2665488117545465;13;96;22;2;
2019_04_04 13:47;58;3;1;timed;4;10;0;45;62;0;0;0.059999999999999998;0.93999999999999995;0.0;0.0;17;99;28;67;0.58999999999999997;0.34000000000000002;0.01;0.059999999999999998;0;3.750022290229481;13;96;22;2;
2019_04_04 13:47;58;3;1;timed;5;13;1;52;56;0;0;0.46999999999999997;0.53000000000000003;0.0;0.0;94;71;27;2;0.089999999999999997;0.31;0.57999999999999996;0.020000000000000101;0;2.949854680531189;13;96;22;2;
2019_04_04 13:47;58;3;1;timed;6;34;0;32;48;0;0;0.28000000000000003;0.71999999999999997;0.0;0.0;97;83;7;62;0.040000000000000001;0.54000000000000004;0.35999999999999999;0.059999999999999901;0;4.033134506622446;13;96;22;2;
2019_04_04 13:47;58;3;1;timed;7;97;1;17;33;32;74;0.94999999999999996;0.01;0.029999999999999999;0.01;76;23;0;0;0.33000000000000002;0.67000000000000004;0.0;0.0;1;4.516641981706925;13;96;22;2;
2019_04_04 13:47;58;3;1;timed;8;79;0;52;46;29;22;0.17999999999999999;0.51000000000000001;0.23999999999999999;0.070000000000000104;93;14;0;0;0.45000000000000001;0.55000000000000004;0.0;0.0;0;4.68307911780721;13;96;22;2;
2019_04_04 13:47;58;3;1;timed;9;95;0;93;88;68;85;0.83999999999999997;0.14000000000000001;0.01;0.01;2;82;0;0;0.41999999999999998;0.57999999999999996;0.0;0.0;0;2.833403464703224;13;96;22;2;
2019_04_04 13:47;58;3;1;timed;10;75;1;67;80;36;81;0.81999999999999995;0.080000000000000002;0.059999999999999998;0.040000000000000001;3;97;0;0;0.32000000000000001;0.68000000000000005;0.0;0.0;1;8.566489029037712;13;96;22;2;
2019_04_04 13:47;58;3;1;timed;11;72;1;63;82;51;61;0.01;0.96999999999999997;0.01;0.01;92;12;0;0;0.89000000000000001;0.11;0.0;0.0;1;5.566416866423879;13;96;22;2;
2019_04_04 13:47;58;3;1;timed;12;31;1;10;59;0;0;0.23999999999999999;0.76000000000000001;0.0;0.0;1;79;53;73;0.23000000000000001;0.58999999999999997;0.050000000000000003;0.13;1;3.8166758500274227;13;96;22;2;
2019_04_04 13:47;58;3;1;timed;13;86;0;56;30;57;88;0.20000000000000001;0.35999999999999999;0.080000000000000002;0.35999999999999999;98;2;0;0;0.77000000000000002;0.23000000000000001;0.0;0.0;1;4.9831928460871495;13;96;22;2;
2019_04_04 13:47;58;3;1;timed;14;15;0;77;81;0;0;0.28000000000000003;0.71999999999999997;0.0;0.0;98;14;87;18;0.55000000000000004;0.23000000000000001;0.16;0.059999999999999901;0;3.9831498692410605;13;96;22;2;
2019_04_04 13:47;58;3;1;timed;15;71;0;68;55;36;51;0.20000000000000001;0.75;0.02;0.029999999999999999;38;81;0;0;0.52000000000000002;0.47999999999999998;0.0;0.0;0;4.7997894776003704;13;96;22;2;
2019_04_04 13:47;58;3;1;timed;16;149;0;14;89;73;53;0.93999999999999995;0.01;0.01;0.040000000000000001;97;45;6;13;0.34000000000000002;0.01;0.40999999999999998;0.23999999999999999;1;5.433212698823809;13;96;22;2;
2019_04_04 13:47;58;3;1;timed;17;103;1;38;49;89;50;0.89000000000000001;0.070000000000000007;0.01;0.029999999999999999;6;64;99;27;0.70999999999999996;0.17999999999999999;0.059999999999999998;0.050000000000000003;0;5.2664686310718025;13;96;22;2;
2019_04_04 13:47;58;3;1;timed;18;59;0;56;47;83;90;0.31;0.12;0.54000000000000004;0.029999999999999898;10;98;0;0;0.46999999999999997;0.53000000000000003;0.0;0.0;0;3.63324137143627;13;96;22;2;
2019_04_04 13:47;58;3;1;timed;19;137;0;71;22;28;17;0.25;0.46000000000000002;0.050000000000000003;0.23999999999999999;3;98;92;69;0.42999999999999999;0.23999999999999999;0.20000000000000001;0.13;1;4.63331962778193;13;96;22;2;
2019_04_04 13:47;58;3;1;timed;20;146;1;25;5;64;35;0.94999999999999996;0.02;0.01;0.02;47;97;12;79;0.20999999999999999;0.029999999999999999;0.02;0.73999999999999999;1;8.69964669184128;13;96;22;2;
2019_04_04 13:47;58;3;1;timed;21;27;1;44;26;0;0;0.35999999999999999;0.64000000000000001;0.0;0.0;63;10;3;5;0.58999999999999997;0.19;0.14999999999999999;0.070000000000000007;0;3.0999692747627705;13;96;22;2;
2019_04_04 13:47;58;3;1;timed;22;3;0;53;40;0;0;0.31;0.68999999999999995;0.0;0.0;96;24;7;88;0.11;0.27000000000000002;0.58999999999999997;0.029999999999999999;1;5.699863179683689;13;96;22;2;
2019_04_04 13:47;58;3;1;timed;23;30;0;33;30;0;0;0.71999999999999997;0.28000000000000003;0.0;0.0;9;88;1;14;0.55000000000000004;0.39000000000000001;0.01;0.049999999999999899;1;5.016467508542519;13;96;22;2;
2019_04_04 13:47;58;3;1;timed;24;53;0;26;70;50;80;0.29999999999999999;0.59999999999999998;0.040000000000000001;0.059999999999999998;89;1;0;0;0.40999999999999998;0.58999999999999997;0.0;0.0;0;4.833054518373501;13;96;22;2;
2019_04_04 13:47;58;3;1;timed;25;73;1;65;68;70;47;0.25;0.23000000000000001;0.20999999999999999;0.31;27;95;0;0;0.45000000000000001;0.55000000000000004;0.0;0.0;1;5.183292719144902;13;96;22;2;
2019_04_04 13:47;58;3;1;timed;26;37;1;14;98;0;0;0.93000000000000005;0.070000000000000007;0.0;0.0;41;2;87;66;0.17999999999999999;0.48999999999999999;0.32000000000000001;0.010000000000000101;1;4.533216932363757;13;96;22;2;
2019_04_04 13:47;58;3;1;timed;27;125;1;37;41;10;35;0.91000000000000003;0.040000000000000001;0.029999999999999999;0.02;7;13;91;93;0.26000000000000001;0.39000000000000001;0.16;0.19;0;6.216335819789492;13;96;22;2;
2019_04_04 13:47;58;3;1;timed;28;56;0;28;84;37;41;0.68000000000000005;0.28000000000000003;0.02;0.0199999999999999;6;95;0;0;0.72999999999999998;0.27000000000000002;0.0;0.0;0;4.283126969638488;13;96;22;2;
2019_04_04 13:47;58;3;1;timed;29;35;1;33;37;0;0;0.88;0.12;0.0;0.0;63;4;79;98;0.16;0.46000000000000002;0.17000000000000001;0.20999999999999999;1;4.3831494843739165;13;96;22;2;
2019_04_04 13:47;58;3;1;timed;30;148;1;37;63;55;10;0.72999999999999998;0.070000000000000007;0.029999999999999999;0.17000000000000001;80;14;23;70;0.46999999999999997;0.10000000000000001;0.23000000000000001;0.20000000000000001;1;7.816315036956894;13;96;22;2;
2019_04_04 13:47;58;3;1;timed;31;32;1;19;81;0;0;0.93000000000000005;0.070000000000000007;0.0;0.0;1;65;41;68;0.45000000000000001;0.050000000000000003;0.059999999999999998;0.44;0;5.48322876703287;13;96;22;2;
2019_04_04 13:47;58;3;1;timed;32;28;1;47;30;0;0;0.97999999999999998;0.02;0.0;0.0;55;48;77;13;0.070000000000000007;0.26000000000000001;0.42999999999999999;0.23999999999999999;1;6.0164216451921675;13;96;22;2;
2019_04_04 13:47;58;3;1;timed;33;43;1;60;83;0;0;0.23000000000000001;0.77000000000000002;0.0;0.0;72;5;70;12;0.29999999999999999;0.40999999999999998;0.12;0.17000000000000001;0;3.8831796323106573;13;96;22;2;
2019_04_04 13:47;58;3;1;timed;34;21;0;64;28;0;0;0.080000000000000002;0.92000000000000004;0.0;0.0;50;1;88;13;0.57999999999999996;0.13;0.02;0.27000000000000002;0;8.432989155081941;13;96;22;2;
2019_04_04 13:47;58;3;1;timed;35;117;0;65;85;92;41;0.23000000000000001;0.17999999999999999;0.54000000000000004;0.050000000000000003;99;93;10;13;0.64000000000000001;0.16;0.01;0.19;1;5.516397911710101;13;96;22;2;
2019_04_04 13:47;58;3;1;timed;36;122;0;35;58;25;31;0.81999999999999995;0.070000000000000007;0.080000000000000002;0.029999999999999999;18;64;68;89;0.63;0.17000000000000001;0.11;0.089999999999999997;1;8.633212827112857;13;96;22;2;
2019_04_04 13:47;58;3;1;timed;37;101;0;30;96;61;45;0.65000000000000002;0.14000000000000001;0.11;0.10000000000000001;3;98;63;89;0.75;0.19;0.040000000000000001;0.02;0;7.399680816739419;13;96;22;2;
2019_04_04 13:47;58;3;1;timed;38;113;0;85;65;39;64;0.44;0.34000000000000002;0.13;0.089999999999999997;87;2;4;35;0.67000000000000004;0.17000000000000001;0.11;0.049999999999999899;0;2.8331735065062276;13;96;22;2;
2019_04_04 13:47;58;3;1;timed;39;94;0;84;86;93;39;0.78000000000000003;0.20000000000000001;0.01;0.0099999999999999603;9;83;0;0;0.46999999999999997;0.53000000000000003;0.0;0.0;0;3.433295766010815;13;96;22;2;
2019_04_04 13:47;58;3;1;timed;40;109;0;75;28;16;56;0.19;0.070000000000000007;0.059999999999999998;0.68000000000000005;3;50;98;44;0.5;0.02;0.34999999999999998;0.13;0;6.833235085270189;13;96;22;2;
2019_04_04 13:47;58;3;1;timed;41;85;1;31;22;82;50;0.11;0.69999999999999996;0.01;0.17999999999999999;3;99;0;0;0.62;0.38;0.0;0.0;0;3.683101247675495;13;96;22;2;
2019_04_04 13:47;58;3;1;timed;42;14;1;36;40;0;0;0.54000000000000004;0.46000000000000002;0.0;0.0;99;70;1;11;0.16;0.089999999999999997;0.080000000000000002;0.67000000000000004;1;6.466543487757008;13;96;22;2;
2019_04_04 13:47;58;3;1;timed;43;41;0;99;40;0;0;0.89000000000000001;0.11;0.0;0.0;1;67;52;46;0.51000000000000001;0.38;0.029999999999999999;0.080000000000000002;0;3.466532903906682;13;96;22;2;
2019_04_04 13:47;58;3;1;timed;44;133;1;59;88;60;36;0.67000000000000004;0.070000000000000007;0.12;0.14000000000000001;7;91;66;61;0.25;0.68999999999999995;0.01;0.0500000000000001;0;3.399852724122411;13;96;22;2;
2019_04_04 13:47;58;3;1;timed;45;121;0;42;51;47;70;0.41999999999999998;0.17000000000000001;0.23999999999999999;0.17000000000000001;21;76;48;9;0.14999999999999999;0.34000000000000002;0.40999999999999998;0.10000000000000001;1;8.599643741192267;13;96;22;2;
2019_04_04 13:47;58;3;1;timed;46;90;1;27;44;50;72;0.68000000000000005;0.28999999999999998;0.02;0.0099999999999999707;6;96;0;0;0.46999999999999997;0.53000000000000003;0.0;0.0;0;2.7831587211885562;13;96;22;2;
2019_04_04 13:47;58;3;1;timed;47;12;0;53;68;0;0;0.31;0.68999999999999995;0.0;0.0;69;54;97;29;0.25;0.20999999999999999;0.20000000000000001;0.34000000000000002;1;3.0998384198887834;13;96;22;2;
2019_04_04 13:47;58;3;1;timed;48;108;1;48;72;39;70;0.14000000000000001;0.66000000000000003;0.02;0.17999999999999999;81;44;98;8;0.59999999999999998;0.029999999999999999;0.050000000000000003;0.32000000000000001;0;3.9498046477856406;13;96;22;2;
2019_04_04 13:47;58;3;1;timed;49;102;1;40;56;53;17;0.28000000000000003;0.26000000000000001;0.14999999999999999;0.31;1;76;29;62;0.68000000000000005;0.23000000000000001;0.050000000000000003;0.039999999999999897;0;3.199863179683689;13;96;22;2;
2019_04_04 13:47;58;3;1;timed;50;126;0;16;55;51;42;0.68999999999999995;0.23999999999999999;0.01;0.060000000000000102;66;4;1;5;0.46999999999999997;0.38;0.089999999999999997;0.059999999999999998;0;4.733207118248629;13;96;22;2;
2019_04_04 13:47;58;3;1;timed;51;7;0;49;29;0;0;0.95999999999999996;0.040000000000000001;0.0;0.0;23;99;64;25;0.68999999999999995;0.12;0.059999999999999998;0.13;1;7.9329808162906374;13;96;22;2;
2019_04_04 13:47;58;3;1;timed;52;42;1;70;48;0;0;0.79000000000000004;0.20999999999999999;0.0;0.0;51;8;12;67;0.19;0.26000000000000001;0.28999999999999998;0.26000000000000001;0;4.333204616611056;13;96;22;2;
2019_04_04 13:47;58;3;1;timed;53;143;0;88;44;56;73;0.95999999999999996;0.02;0.01;0.01;20;3;87;32;0.19;0.40000000000000002;0.28000000000000003;0.13;0;2.9999714556770414;13;96;22;2;
2019_04_04 13:47;58;3;1;timed;54;2;1;59;32;0;0;0.080000000000000002;0.92000000000000004;0.0;0.0;33;38;85;1;0.28999999999999998;0.050000000000000003;0.070000000000000007;0.58999999999999997;0;2.683293039867749;13;96;22;2;
2019_04_04 13:47;58;3;1;timed;55;49;0;21;30;0;0;0.53000000000000003;0.46999999999999997;0.0;0.0;93;99;89;25;0.44;0.02;0.11;0.42999999999999999;1;3.450011193222963;13;96;22;2;
2019_04_04 13:47;58;3;1;timed;56;112;1;70;44;98;64;0.02;0.75;0.12;0.11;33;2;63;85;0.23999999999999999;0.31;0.080000000000000002;0.37;0;8.349627865417006;13;96;22;2;
2019_04_04 13:47;58;3;1;timed;57;47;1;2;40;0;0;0.45000000000000001;0.55000000000000004;0.0;0.0;93;89;11;56;0.58999999999999997;0.070000000000000007;0.28000000000000003;0.059999999999999998;1;4.366538933494212;13;96;22;2;
2019_04_04 13:47;58;3;1;timed;58;93;0;87;81;73;98;0.80000000000000004;0.040000000000000001;0.14999999999999999;0.0099999999999999499;5;71;0;0;0.51000000000000001;0.48999999999999999;0.0;0.0;0;3.316464814471601;13;96;22;2;
2019_04_04 13:47;58;3;1;timed;59;5;0;70;5;0;0;0.98999999999999999;0.01;0.0;0.0;92;87;47;1;0.44;0.02;0.16;0.38;0;3.583318633541694;13;96;22;2;
2019_04_04 13:47;58;3;1;timed;60;140;0;36;32;26;27;0.39000000000000001;0.14999999999999999;0.19;0.27000000000000002;44;3;99;25;0.29999999999999999;0.34000000000000002;0.34000000000000002;0.0199999999999999;0;6.399724755753596;13;96;22;2;
2019_04_04 13:47;58;3;1;timed;61;58;1;37;58;76;34;0.20999999999999999;0.57999999999999996;0.19;0.020000000000000101;86;5;0;0;0.47999999999999998;0.52000000000000002;0.0;0.0;0;4.816416064616533;13;96;22;2;
2019_04_04 13:47;58;3;1;timed;62;39;0;14;33;0;0;0.78000000000000003;0.22;0.0;0.0;93;84;1;25;0.14000000000000001;0.23999999999999999;0.39000000000000001;0.23000000000000001;NA;9.332941944695904;13;96;22;2;
2019_04_04 13:47;58;3;1;timed;63;99;0;8;24;15;73;0.56000000000000005;0.35999999999999999;0.070000000000000007;0.0099999999999999499;88;12;0;0;0.52000000000000002;0.47999999999999998;0.0;0.0;1;5.549712023061602;13;96;22;2;
2019_04_04 13:47;58;3;1;timed;64;147;1;39;43;76;28;0.14000000000000001;0.10000000000000001;0.10000000000000001;0.66000000000000003;6;31;68;85;0.27000000000000002;0.20000000000000001;0.22;0.31;0;4.866425076925225;13;96;22;2;
2019_04_04 13:47;58;3;1;timed;65;84;0;43;10;5;45;0.78000000000000003;0.13;0.059999999999999998;0.029999999999999999;87;1;0;0;0.57999999999999996;0.41999999999999998;0.0;0.0;1;6.33322802937073;13;96;22;2;
2019_04_04 13:47;58;3;1;timed;66;38;0;40;70;0;0;0.53000000000000003;0.46999999999999997;0.0;0.0;97;90;6;96;0.56999999999999995;0.070000000000000007;0.27000000000000002;0.089999999999999997;1;4.93321943400133;13;96;22;2;
2019_04_04 13:47;58;3;1;timed;67;45;0;97;87;0;0;0.71999999999999997;0.28000000000000003;0.0;0.0;96;11;14;4;0.25;0.029999999999999999;0.14000000000000001;0.57999999999999996;0;2.7498641739239247;13;96;22;2;
2019_04_04 13:47;58;3;1;timed;68;76;1;39;62;9;28;0.01;0.51000000000000001;0.26000000000000001;0.22;77;7;0;0;0.57999999999999996;0.41999999999999998;0.0;0.0;1;9.049794448802459;13;96;22;2;
2019_04_04 13:47;58;3;1;timed;69;150;1;25;21;78;38;0.84999999999999998;0.059999999999999998;0.050000000000000003;0.040000000000000001;31;43;64;95;0.059999999999999998;0.45000000000000001;0.13;0.35999999999999999;1;4.399953110337265;13;96;22;2;
2019_04_04 13:47;58;3;1;timed;70;127;0;89;26;62;79;0.02;0.28999999999999998;0.53000000000000003;0.16;96;6;60;13;0.53000000000000003;0.25;0.17000000000000001;0.050000000000000003;0;4.666438418990765;13;96;22;2;
2019_04_04 13:47;58;3;1;timed;71;111;1;51;36;48;27;0.93000000000000005;0.01;0.01;0.049999999999999899;31;78;30;53;0.55000000000000004;0.16;0.029999999999999999;0.26000000000000001;1;4.933294483120335;13;96;22;2;
2019_04_04 13:47;58;3;1;timed;72;70;1;66;55;69;50;0.22;0.29999999999999999;0.29999999999999999;0.17999999999999999;2;90;0;0;0.34000000000000002;0.66000000000000003;0.0;0.0;0;4.116896058253587;13;96;22;2;
2019_04_04 13:47;58;3;1;timed;73;26;1;76;41;0;0;0.57999999999999996;0.41999999999999998;0.0;0.0;61;79;84;2;0.13;0.029999999999999999;0.67000000000000004;0.17000000000000001;0;2.9498707166676468;13;96;22;2;
2019_04_04 13:47;58;3;1;timed;74;92;0;90;86;65;94;0.16;0.34000000000000002;0.28000000000000003;0.22;79;22;0;0;0.35999999999999999;0.64000000000000001;0.0;0.0;0;2.6998535580014504;13;96;22;2;
2019_04_04 13:47;58;3;1;timed;75;24;0;35;27;0;0;0.070000000000000007;0.93000000000000005;0.0;0.0;62;3;81;95;0.35999999999999999;0.55000000000000004;0.01;0.080000000000000002;0;3.466490889229135;13;96;22;2;
2019_04_04 13:47;58;4;1;control;1;12;0;53;68;0;0;0.31;0.68999999999999995;0.0;0.0;69;54;97;29;0.25;0.20999999999999999;0.20000000000000001;0.34000000000000002;0;4.603893958802473;13;96;22;2;
2019_04_04 13:47;58;4;1;control;2;148;0;37;63;55;10;0.72999999999999998;0.070000000000000007;0.029999999999999999;0.17000000000000001;80;14;23;70;0.46999999999999997;0.10000000000000001;0.23000000000000001;0.20000000000000001;0;2.316509074208625;13;96;22;2;
2019_04_04 13:47;58;4;1;control;3;6;1;9;51;0;0;0.14999999999999999;0.84999999999999998;0.0;0.0;6;40;50;73;0.42999999999999999;0.26000000000000001;0.059999999999999998;0.25;1;4.166474981382635;13;96;22;2;
2019_04_04 13:47;58;4;1;control;4;127;1;89;26;62;79;0.02;0.28999999999999998;0.53000000000000003;0.16;96;6;60;13;0.53000000000000003;0.25;0.17000000000000001;0.050000000000000003;0;2.2833046500300043;13;96;22;2;
2019_04_04 13:47;58;4;1;control;5;92;0;90;86;65;94;0.16;0.34000000000000002;0.28000000000000003;0.22;79;22;0;0;0.35999999999999999;0.64000000000000001;0.0;0.0;0;3.7332959584446144;13;96;22;2;
2019_04_04 13:47;58;4;1;control;6;103;0;38;49;89;50;0.89000000000000001;0.070000000000000007;0.01;0.029999999999999999;6;64;99;27;0.70999999999999996;0.17999999999999999;0.059999999999999998;0.050000000000000003;0;3.1331945459178314;13;96;22;2;
2019_04_04 13:47;58;4;1;control;7;121;1;42;51;47;70;0.41999999999999998;0.17000000000000001;0.23999999999999999;0.17000000000000001;21;76;48;9;0.14999999999999999;0.34000000000000002;0.40999999999999998;0.10000000000000001;0;2.6831804661896967;13;96;22;2;
2019_04_04 13:47;58;4;1;control;8;35;1;33;37;0;0;0.88;0.12;0.0;0.0;63;4;79;98;0.16;0.46000000000000002;0.17000000000000001;0.20999999999999999;1;10.782874881572752;13;96;22;2;
2019_04_04 13:47;58;4;1;control;9;15;0;77;81;0;0;0.28000000000000003;0.71999999999999997;0.0;0.0;98;14;87;18;0.55000000000000004;0.23000000000000001;0.16;0.059999999999999901;0;4.5331983304458845;13;96;22;2;
2019_04_04 13:47;58;4;1;control;10;33;0;27;70;0;0;0.88;0.12;0.0;0.0;93;3;77;16;0.080000000000000002;0.40000000000000002;0.5;0.02;1;7.916336910247082;13;96;22;2;
2019_04_04 13:47;58;4;1;control;11;47;0;2;40;0;0;0.45000000000000001;0.55000000000000004;0.0;0.0;93;89;11;56;0.58999999999999997;0.070000000000000007;0.28000000000000003;0.059999999999999998;1;3.7831686635927326;13;96;22;2;
2019_04_04 13:47;58;4;1;control;12;68;0;84;27;55;62;0.01;0.050000000000000003;0.40999999999999998;0.53000000000000003;9;82;0;0;0.37;0.63;0.0;0.0;0;3.899700380826289;13;96;22;2;
2019_04_04 13:47;58;4;1;control;13;96;1;51;54;39;7;0.17000000000000001;0.26000000000000001;0.10000000000000001;0.46999999999999997;24;96;0;0;0.28000000000000003;0.71999999999999997;0.0;0.0;1;5.999778701316245;13;96;22;2;
2019_04_04 13:47;58;4;1;control;14;94;0;84;86;93;39;0.78000000000000003;0.20000000000000001;0.01;0.0099999999999999603;9;83;0;0;0.46999999999999997;0.53000000000000003;0.0;0.0;0;4.066404999683073;13;96;22;2;
2019_04_04 13:47;58;4;1;control;15;39;0;14;33;0;0;0.78000000000000003;0.22;0.0;0.0;93;84;1;25;0.14000000000000001;0.23999999999999999;0.39000000000000001;0.23000000000000001;1;1.9499316539868232;13;96;22;2;
2019_04_04 13:47;58;4;1;control;16;44;0;79;74;0;0;0.71999999999999997;0.28000000000000003;0.0;0.0;3;67;15;36;0.41999999999999998;0.53000000000000003;0.02;0.029999999999999999;0;2.9665399598070508;13;96;22;2;
2019_04_04 13:47;58;4;1;control;17;118;0;62;52;65;68;0.40999999999999998;0.44;0.10000000000000001;0.0500000000000001;79;20;14;37;0.56999999999999995;0.23999999999999999;0.14000000000000001;0.050000000000000003;0;2.449838323671429;13;96;22;2;
2019_04_04 13:47;58;4;1;control;18;102;1;40;56;53;17;0.28000000000000003;0.26000000000000001;0.14999999999999999;0.31;1;76;29;62;0.68000000000000005;0.23000000000000001;0.050000000000000003;0.039999999999999897;0;5.866489542194358;13;96;22;2;
2019_04_04 13:47;58;4;1;control;19;134;0;57;48;50;55;0.02;0.62;0.17999999999999999;0.17999999999999999;80;96;15;18;0.23999999999999999;0.35999999999999999;0.33000000000000002;0.070000000000000007;0;4.716460260208805;13;96;22;2;
2019_04_04 13:47;58;4;1;control;20;62;0;12;45;16;50;0.20999999999999999;0.76000000000000001;0.02;0.01;92;15;0;0;0.20999999999999999;0.79000000000000004;0.0;0.0;0;7.133012054684514;13;96;22;2;
2019_04_04 13:47;58;4;1;control;21;76;0;39;62;9;28;0.01;0.51000000000000001;0.26000000000000001;0.22;77;7;0;0;0.57999999999999996;0.41999999999999998;0.0;0.0;0;6.616443518481901;13;96;22;2;
2019_04_04 13:47;58;4;1;control;22;54;0;44;79;78;52;0.79000000000000004;0.19;0.01;0.0099999999999999603;96;1;0;0;0.28000000000000003;0.71999999999999997;0.0;0.0;0;2.816758596491127;13;96;22;2;
2019_04_04 13:47;58;4;1;control;23;20;1;44;40;0;0;0.91000000000000003;0.089999999999999997;0.0;0.0;29;5;80;99;0.25;0.40000000000000002;0.26000000000000001;0.089999999999999997;1;4.19996581095711;13;96;22;2;
2019_04_04 13:47;58;4;1;control;24;98;0;27;10;31;79;0.23000000000000001;0.67000000000000004;0.070000000000000007;0.029999999999999999;25;99;0;0;0.38;0.62;0.0;0.0;1;3.383175142192158;13;96;22;2;
2019_04_04 13:47;58;4;1;control;25;95;0;93;88;68;85;0.83999999999999997;0.14000000000000001;0.01;0.01;2;82;0;0;0.41999999999999998;0.57999999999999996;0.0;0.0;0;3.916471293070572;13;96;22;2;
2019_04_04 13:47;58;4;1;control;26;50;0;15;20;0;0;0.82999999999999996;0.17000000000000001;0.0;0.0;97;18;88;87;0.56999999999999995;0.39000000000000001;0.01;0.029999999999999999;1;2.9664729287560476;13;96;22;2;
2019_04_04 13:47;58;4;1;control;27;106;0;85;69;22;61;0.10000000000000001;0.58999999999999997;0.17999999999999999;0.13;20;79;91;84;0.55000000000000004;0.14999999999999999;0.26000000000000001;0.039999999999999897;0;7.016496052864568;13;96;22;2;
2019_04_04 13:47;58;4;1;control;28;75;1;67;80;36;81;0.81999999999999995;0.080000000000000002;0.059999999999999998;0.040000000000000001;3;97;0;0;0.32000000000000001;0.68000000000000005;0.0;0.0;0;3.33326459176169;13;96;22;2;
2019_04_04 13:47;58;4;1;control;29;130;0;37;79;23;95;0.94999999999999996;0.029999999999999999;0.01;0.01;94;4;58;49;0.46000000000000002;0.5;0.029999999999999999;0.01;0;15.932844188408126;13;96;22;2;
2019_04_04 13:47;58;4;1;control;30;49;1;21;30;0;0;0.53000000000000003;0.46999999999999997;0.0;0.0;93;99;89;25;0.44;0.02;0.11;0.42999999999999999;1;4.933141819100456;13;96;22;2;
2019_04_04 13:47;58;4;1;control;31;90;1;27;44;50;72;0.68000000000000005;0.28999999999999998;0.02;0.0099999999999999707;6;96;0;0;0.46999999999999997;0.53000000000000003;0.0;0.0;0;3.3332424618938603;13;96;22;2;
2019_04_04 13:47;58;4;1;control;32;48;0;13;32;0;0;0.90000000000000002;0.10000000000000001;0.0;0.0;24;99;84;94;0.62;0.14999999999999999;0.20000000000000001;0.029999999999999999;1;2.6833215841907077;13;96;22;2;
2019_04_04 13:47;58;4;1;control;33;116;1;53;65;43;99;0.56999999999999995;0.37;0.050000000000000003;0.010000000000000101;57;72;11;87;0.67000000000000004;0.13;0.14999999999999999;0.050000000000000003;0;4.833107437623767;13;96;22;2;
2019_04_04 13:47;58;4;1;control;34;84;0;43;10;5;45;0.78000000000000003;0.13;0.059999999999999998;0.029999999999999999;87;1;0;0;0.57999999999999996;0.41999999999999998;0.0;0.0;1;4.833477230931749;13;96;22;2;
2019_04_04 13:47;58;4;1;control;35;119;0;60;58;11;18;0.25;0.72999999999999998;0.01;0.01;96;23;42;85;0.44;0.48999999999999999;0.059999999999999998;0.010000000000000101;1;5.799883128637703;13;96;22;2;
2019_04_04 13:47;58;4;1;control;36;89;1;26;41;13;56;0.059999999999999998;0.40999999999999998;0.050000000000000003;0.47999999999999998;5;97;0;0;0.37;0.63;0.0;0.0;1;5.133261897690318;13;96;22;2;
2019_04_04 13:47;58;4;1;control;37;81;0;67;38;52;65;0.27000000000000002;0.35999999999999999;0.01;0.35999999999999999;2;77;0;0;0.14000000000000001;0.85999999999999999;0.0;0.0;0;5.716420811313583;13;96;22;2;
2019_04_04 13:47;58;4;1;control;38;141;0;93;28;60;91;0.81999999999999995;0.10000000000000001;0.01;0.070000000000000007;14;85;7;89;0.45000000000000001;0.070000000000000007;0.23999999999999999;0.23999999999999999;0;4.7165115758452885;13;96;22;2;
2019_04_04 13:47;58;4;1;control;39;2;1;59;32;0;0;0.080000000000000002;0.92000000000000004;0.0;0.0;33;38;85;1;0.28999999999999998;0.050000000000000003;0.070000000000000007;0.58999999999999997;0;6.233070490366117;13;96;22;2;
2019_04_04 13:47;58;4;1;control;40;18;1;68;50;0;0;0.029999999999999999;0.96999999999999997;0.0;0.0;34;64;15;89;0.65000000000000002;0.029999999999999999;0.050000000000000003;0.27000000000000002;0;2.699988261548242;13;96;22;2;
2019_04_04 13:47;58;4;1;control;41;71;1;68;55;36;51;0.20000000000000001;0.75;0.02;0.029999999999999999;38;81;0;0;0.52000000000000002;0.47999999999999998;0.0;0.0;1;5.699750285282789;13;96;22;2;
2019_04_04 13:47;58;4;1;control;42;120;0;64;40;48;51;0.19;0.02;0.070000000000000007;0.71999999999999997;97;9;79;94;0.23000000000000001;0.54000000000000004;0.01;0.22;0;5.5664351476198135;13;96;22;2;
2019_04_04 13:47;58;4;1;control;43;110;0;47;44;23;52;0.13;0.27000000000000002;0.040000000000000001;0.56000000000000005;99;2;30;22;0.28999999999999998;0.5;0.11;0.10000000000000001;0;3.1666606798426074;13;96;22;2;
2019_04_04 13:47;58;4;1;control;44;8;1;50;36;0;0;0.080000000000000002;0.92000000000000004;0.0;0.0;6;19;84;29;0.54000000000000004;0.070000000000000007;0.17000000000000001;0.22;0;3.833157149647377;13;96;22;2;
2019_04_04 13:47;58;4;1;control;45;58;0;37;58;76;34;0.20999999999999999;0.57999999999999996;0.19;0.020000000000000101;86;5;0;0;0.47999999999999998;0.52000000000000002;0.0;0.0;0;5.899828990640344;13;96;22;2;
2019_04_04 13:47;58;4;1;control;46;64;1;48;39;34;19;0.46000000000000002;0.5;0.02;0.02;13;92;0;0;0.68999999999999995;0.31;0.0;0.0;0;3.849751985113471;13;96;22;2;
2019_04_04 13:47;58;4;1;control;47;129;0;12;29;81;36;0.17999999999999999;0.79000000000000004;0.01;0.02;5;19;95;92;0.47999999999999998;0.26000000000000001;0.13;0.13;0;8.299657981280689;13;96;22;2;
2019_04_04 13:47;58;4;1;control;48;30;1;33;30;0;0;0.71999999999999997;0.28000000000000003;0.0;0.0;9;88;1;14;0.55000000000000004;0.39000000000000001;0.01;0.049999999999999899;0;5.466445025878784;13;96;22;2;
2019_04_04 13:47;58;4;1;control;49;150;0;25;21;78;38;0.84999999999999998;0.059999999999999998;0.050000000000000003;0.040000000000000001;31;43;64;95;0.059999999999999998;0.45000000000000001;0.13;0.35999999999999999;1;3.116496437733076;13;96;22;2;
2019_04_04 13:47;58;4;1;control;50;7;0;49;29;0;0;0.95999999999999996;0.040000000000000001;0.0;0.0;23;99;64;25;0.68999999999999995;0.12;0.059999999999999998;0.13;0;7.866304805901564;13;96;22;2;
2019_04_04 13:47;58;4;1;control;51;13;0;52;56;0;0;0.46999999999999997;0.53000000000000003;0.0;0.0;94;71;27;2;0.089999999999999997;0.31;0.57999999999999996;0.020000000000000101;1;3.3998151995629087;13;96;22;2;
2019_04_04 13:47;58;4;1;control;52;140;1;36;32;26;27;0.39000000000000001;0.14999999999999999;0.19;0.27000000000000002;44;3;99;25;0.29999999999999999;0.34000000000000002;0.34000000000000002;0.0199999999999999;0;3.299791401937;13;96;22;2;
2019_04_04 13:47;58;4;1;control;53;146;1;25;5;64;35;0.94999999999999996;0.02;0.01;0.02;47;97;12;79;0.20999999999999999;0.029999999999999999;0.02;0.73999999999999999;1;7.0663604192232015;13;96;22;2;
2019_04_04 13:47;58;4;1;control;54;65;0;75;64;59;52;0.59999999999999998;0.22;0.14000000000000001;0.040000000000000001;1;99;0;0;0.35999999999999999;0.64000000000000001;0.0;0.0;0;3.999972097122736;13;96;22;2;
2019_04_04 13:47;58;4;1;control;55;45;0;97;87;0;0;0.71999999999999997;0.28000000000000003;0.0;0.0;96;11;14;4;0.25;0.029999999999999999;0.14000000000000001;0.57999999999999996;0;3.2832969526843954;13;96;22;2;
2019_04_04 13:47;58;4;1;control;56;31;1;10;59;0;0;0.23999999999999999;0.76000000000000001;0.0;0.0;1;79;53;73;0.23000000000000001;0.58999999999999997;0.050000000000000003;0.13;1;2.199828862351751;13;96;22;2;
2019_04_04 13:47;58;4;1;control;57;25;1;50;53;0;0;0.82999999999999996;0.17000000000000001;0.0;0.0;83;16;97;4;0.45000000000000001;0.29999999999999999;0.11;0.14000000000000001;1;7.166501922091811;13;96;22;2;
2019_04_04 13:47;58;4;1;control;58;105;1;49;74;63;58;0.84999999999999998;0.080000000000000002;0.02;0.050000000000000003;97;5;86;8;0.25;0.52000000000000002;0.070000000000000007;0.16;0;4.249836912492356;13;96;22;2;
2019_04_04 13:47;58;4;1;control;59;34;0;32;48;0;0;0.28000000000000003;0.71999999999999997;0.0;0.0;97;83;7;62;0.040000000000000001;0.54000000000000004;0.35999999999999999;0.059999999999999901;0;3.0832795053684094;13;96;22;2;
2019_04_04 13:47;58;4;1;control;60;147;1;39;43;76;28;0.14000000000000001;0.10000000000000001;0.10000000000000001;0.66000000000000003;6;31;68;85;0.27000000000000002;0.20000000000000001;0.22;0.31;0;4.666495507636682;13;96;22;2;
2019_04_04 13:47;58;4;1;control;61;115;1;50;28;61;79;0.83999999999999997;0.040000000000000001;0.059999999999999998;0.059999999999999998;1;26;97;55;0.45000000000000001;0.080000000000000002;0.40999999999999998;0.060000000000000102;0;2.9999563817091257;13;96;22;2;
2019_04_04 13:47;58;4;1;control;62;113;1;85;65;39;64;0.44;0.34000000000000002;0.13;0.089999999999999997;87;2;4;35;0.67000000000000004;0.17000000000000001;0.11;0.049999999999999899;0;2.4665636932886628;13;96;22;2;
2019_04_04 13:47;58;4;1;control;63;100;1;27;14;59;52;0.02;0.95999999999999996;0.01;0.01;17;98;0;0;0.48999999999999999;0.51000000000000001;0.0;0.0;1;6.249735564109869;13;96;22;2;
2019_04_04 13:47;58;4;1;control;64;66;0;89;23;27;15;0.070000000000000007;0.54000000000000004;0.17000000000000001;0.22;9;73;0;0;0.72999999999999998;0.27000000000000002;0.0;0.0;0;3.050018313268083;13;96;22;2;
2019_04_04 13:47;58;4;1;control;65;52;0;71;51;10;54;0.22;0.12;0.19;0.46999999999999997;91;1;0;0;0.29999999999999999;0.69999999999999996;0.0;0.0;0;3.6665006392004216;13;96;22;2;
2019_04_04 13:47;58;4;1;control;66;9;1;61;69;0;0;0.93999999999999995;0.060000000000000102;0.0;0.0;18;93;72;16;0.40999999999999998;0.34999999999999998;0.089999999999999997;0.14999999999999999;0;4.283181492502081;13;96;22;2;
2019_04_04 13:47;58;4;1;control;67;112;1;70;44;98;64;0.02;0.75;0.12;0.11;33;2;63;85;0.23999999999999999;0.31;0.080000000000000002;0.37;0;4.333323604743782;13;96;22;2;
2019_04_04 13:47;58;4;1;control;68;142;1;98;65;64;84;0.88;0.070000000000000007;0.01;0.040000000000000001;5;68;60;16;0.46000000000000002;0.080000000000000002;0.27000000000000002;0.19;0;3.5833144641455874;13;96;22;2;
2019_04_04 13:47;58;4;1;control;69;111;0;51;36;48;27;0.93000000000000005;0.01;0.01;0.049999999999999899;31;78;30;53;0.55000000000000004;0.16;0.029999999999999999;0.26000000000000001;1;5.499731555075414;13;96;22;2;
2019_04_04 13:47;58;4;1;control;70;3;1;53;40;0;0;0.31;0.68999999999999995;0.0;0.0;96;24;7;88;0.11;0.27000000000000002;0.58999999999999997;0.029999999999999999;0;4.966614688203663;13;96;22;2;
2019_04_04 13:47;58;4;1;control;71;59;0;56;47;83;90;0.31;0.12;0.54000000000000004;0.029999999999999898;10;98;0;0;0.46999999999999997;0.53000000000000003;0.0;0.0;0;6.566391208605637;13;96;22;2;
2019_04_04 13:47;58;4;1;control;72;83;1;17;12;7;41;0.65000000000000002;0.19;0.089999999999999997;0.070000000000000007;6;84;0;0;0.72999999999999998;0.27000000000000002;0.0;0.0;0;7.066513083242171;13;96;22;2;
2019_04_04 13:47;58;4;1;control;73;69;0;54;34;64;49;0.34000000000000002;0.25;0.20999999999999999;0.20000000000000001;14;98;0;0;0.62;0.38;0.0;0.0;0;3.283112857838205;13;96;22;2;
2019_04_04 13:47;58;4;1;control;74;51;0;52;23;43;16;0.60999999999999999;0.20999999999999999;0.01;0.17000000000000001;92;7;0;0;0.14999999999999999;0.84999999999999998;0.0;0.0;0;2.7665369450132857;13;96;22;2;
2019_04_04 13:47;58;4;1;control;75;149;0;14;89;73;53;0.93999999999999995;0.01;0.01;0.040000000000000001;97;45;6;13;0.34000000000000002;0.01;0.40999999999999998;0.23999999999999999;0;2.6331810755627885;13;96;22;2;
