date;id;block;order;cond;trial;gameid;leftright;oa1;oa2;oa3;oa4;pa1;pa2;pa3;pa4;ob1;ob2;ob3;ob4;pb1;pb2;pb3;pb4;choice;rt;paytrial;payout;alter;geschlecht;comment
2019_03_22 13:22;52;0;1;practice;1;71;0;94;87;26;75;0.71999999999999997;0.23999999999999999;0.02;0.02;90;27;12;83;0.16;0.73999999999999999;0.02;0.080000000000000002;0;29.289368909494897;2;64;36;1;
2019_03_22 13:22;52;0;1;practice;2;14;0;92;56;0;0;0.11;0.89000000000000001;0.0;0.0;97;31;51;4;0.58999999999999997;0.22;0.080000000000000002;0.11;1;18.949095051649124;2;64;36;1;
2019_03_22 13:22;52;0;1;practice;3;51;0;38;13;51;84;0.91000000000000003;0.070000000000000007;0.01;0.0099999999999999603;4;89;35;16;0.80000000000000004;0.089999999999999997;0.059999999999999998;0.050000000000000003;0;32.532023420381506;2;64;36;1;
2019_03_22 13:22;52;0;1;practice;4;48;1;20;25;24;35;0.32000000000000001;0.13;0.48999999999999999;0.059999999999999901;44;76;0;0;0.29999999999999999;0.69999999999999996;0.0;0.0;1;10.016374446434384;2;64;36;1;
2019_03_22 13:22;52;0;1;practice;5;50;0;17;12;21;14;0.55000000000000004;0.34000000000000002;0.059999999999999998;0.049999999999999899;13;93;0;0;0.28999999999999998;0.70999999999999996;0.0;0.0;1;35.115200348432154;2;64;36;1;
2019_03_22 13:22;52;0;1;practice;6;6;0;42;59;0;0;0.35999999999999999;0.64000000000000001;0.0;0.0;77;19;6;7;0.44;0.14999999999999999;0.17999999999999999;0.23000000000000001;0;16.14928536790626;2;64;36;1;
2019_03_22 13:22;52;0;1;practice;7;25;0;7;18;0;0;0.20999999999999999;0.79000000000000004;0.0;0.0;92;45;33;13;0.41999999999999998;0.17999999999999999;0.22;0.17999999999999999;1;7.2496670908745955;2;64;36;1;
2019_03_22 13:22;52;0;1;practice;8;63;0;24;82;6;96;0.91000000000000003;0.070000000000000007;0.01;0.0099999999999999603;73;10;71;22;0.31;0.51000000000000001;0.050000000000000003;0.13;1;22.132411557783826;2;64;36;1;
2019_03_22 13:22;52;0;1;practice;9;40;1;29;65;30;41;0.70999999999999996;0.01;0.14999999999999999;0.13;2;59;0;0;0.32000000000000001;0.68000000000000005;0.0;0.0;1;11.182730547587425;2;64;36;1;
2019_03_22 13:22;52;0;1;practice;10;8;0;20;44;0;0;0.26000000000000001;0.73999999999999999;0.0;0.0;99;3;69;24;0.20999999999999999;0.60999999999999999;0.12;0.060000000000000102;1;8.982932794692033;2;64;36;1;
2019_03_22 13:22;52;0;1;practice;11;32;1;21;86;16;78;0.45000000000000001;0.41999999999999998;0.050000000000000003;0.080000000000000099;95;9;0;0;0.42999999999999999;0.56999999999999995;0.0;0.0;0;22.382279099721472;2;64;36;1;
2019_03_22 13:22;52;0;1;practice;12;59;1;13;27;48;51;0.56999999999999995;0.13;0.13;0.17000000000000001;8;37;97;1;0.65000000000000002;0.16;0.14999999999999999;0.040000000000000001;0;31.315291561683807;2;64;36;1;
2019_03_22 13:22;52;0;1;practice;13;33;1;54;82;55;71;0.56000000000000005;0.20999999999999999;0.02;0.20999999999999999;13;99;0;0;0.5;0.5;0.0;0.0;0;34.78188262355479;2;64;36;1;
2019_03_22 13:22;52;0;1;practice;14;66;0;44;18;63;36;0.47999999999999998;0.10000000000000001;0.029999999999999999;0.39000000000000001;13;93;61;53;0.52000000000000002;0.45000000000000001;0.02;0.0099999999999999707;1;22.28252727417339;2;64;36;1;
2019_03_22 13:22;52;0;1;practice;15;9;1;57;44;0;0;0.14999999999999999;0.84999999999999998;0.0;0.0;38;35;64;95;0.34000000000000002;0.45000000000000001;0.089999999999999997;0.12;0;21.08241713834127;2;64;36;1;
2019_03_22 13:22;52;0;1;practice;16;49;1;14;31;42;22;0.77000000000000002;0.089999999999999997;0.02;0.12;87;28;0;0;0.68000000000000005;0.32000000000000001;0.0;0.0;1;17.78257698603693;2;64;36;1;
2019_03_22 13:22;52;0;1;practice;17;19;1;25;73;0;0;0.69999999999999996;0.29999999999999999;0.0;0.0;87;84;1;86;0.040000000000000001;0.59999999999999998;0.28000000000000003;0.080000000000000002;1;9.04976317909609;2;64;36;1;
2019_03_22 13:22;52;0;1;practice;18;46;1;79;57;98;81;0.67000000000000004;0.070000000000000007;0.20999999999999999;0.050000000000000003;1;76;0;0;0.56000000000000005;0.44;0.0;0.0;0;6.116367454701276;2;64;36;1;
2019_03_22 13:22;52;0;1;practice;19;41;0;19;54;51;8;0.76000000000000001;0.070000000000000007;0.16;0.0099999999999999794;2;77;0;0;0.54000000000000004;0.46000000000000002;0.0;0.0;1;7.916278165779886;2;64;36;1;
2019_03_22 13:22;52;0;1;practice;20;61;1;51;48;56;88;0.91000000000000003;0.02;0.01;0.059999999999999998;78;21;14;82;0.55000000000000004;0.29999999999999999;0.070000000000000007;0.080000000000000002;0;29.56543813150097;2;64;36;1;
2019_03_22 13:22;52;0;1;practice;21;29;0;66;40;92;49;0.46999999999999997;0.10000000000000001;0.34000000000000002;0.089999999999999997;8;94;0;0;0.44;0.56000000000000005;0.0;0.0;0;36.71517218906661;2;64;36;1;
2019_03_22 13:22;52;0;1;practice;22;38;0;51;89;10;60;0.57999999999999996;0.029999999999999999;0.080000000000000002;0.31;8;84;0;0;0.33000000000000002;0.67000000000000004;0.0;0.0;1;21.01567014157945;2;64;36;1;
2019_03_22 13:22;52;0;1;practice;23;23;0;99;93;0;0;0.57999999999999996;0.41999999999999998;0.0;0.0;64;10;80;81;0.13;0.55000000000000004;0.02;0.29999999999999999;0;6.399642651881095;2;64;36;1;
2019_03_22 13:22;52;0;1;practice;24;74;1;36;46;10;12;0.11;0.19;0.65000000000000002;0.049999999999999899;92;24;79;19;0.51000000000000001;0.40999999999999998;0.02;0.059999999999999998;1;6.932945751848592;2;64;36;1;
2019_03_22 13:22;52;0;1;practice;25;7;0;13;31;0;0;0.51000000000000001;0.48999999999999999;0.0;0.0;8;79;42;18;0.85999999999999999;0.089999999999999997;0.02;0.029999999999999999;0;18.782538820154514;2;64;36;1;
2019_03_22 13:22;52;0;1;practice;26;15;1;24;59;0;0;0.56999999999999995;0.42999999999999999;0.0;0.0;9;8;80;22;0.31;0.10000000000000001;0.55000000000000004;0.039999999999999897;0;19.799083890533666;2;64;36;1;
2019_03_22 13:22;52;0;1;practice;27;2;0;41;60;0;0;0.97999999999999998;0.02;0.0;0.0;10;14;97;6;0.54000000000000004;0.17000000000000001;0.12;0.17000000000000001;0;17.415855775299633;2;64;36;1;
2019_03_22 13:22;52;0;1;practice;28;12;1;45;86;0;0;0.97999999999999998;0.02;0.0;0.0;6;23;95;81;0.14999999999999999;0.40999999999999998;0.050000000000000003;0.39000000000000001;0;24.14904514735258;2;64;36;1;
2019_03_22 13:22;52;0;1;practice;29;35;1;84;95;4;35;0.89000000000000001;0.050000000000000003;0.01;0.050000000000000003;5;98;0;0;0.19;0.81000000000000005;0.0;0.0;0;15.382682246899321;2;64;36;1;
2019_03_22 13:22;52;0;1;practice;30;55;1;53;11;80;74;0.31;0.37;0.28000000000000003;0.039999999999999897;6;93;98;96;0.69999999999999996;0.22;0.050000000000000003;0.029999999999999999;0;13.999337068244586;2;64;36;1;
2019_03_22 13:22;52;0;1;practice;31;28;0;37;83;75;8;0.83999999999999997;0.070000000000000007;0.01;0.080000000000000002;94;2;0;0;0.19;0.81000000000000005;0.0;0.0;0;19.84934418826606;2;64;36;1;
2019_03_22 13:22;52;0;1;practice;32;44;1;69;48;22;63;0.39000000000000001;0.40999999999999998;0.19;0.01;1;94;0;0;0.22;0.78000000000000003;0.0;0.0;1;22.89916413510332;2;64;36;1;
2019_03_22 13:22;52;0;1;practice;33;5;0;23;58;0;0;0.71999999999999997;0.28000000000000003;0.0;0.0;94;12;52;3;0.11;0.84999999999999998;0.029999999999999999;0.01;0;22.165899393451127;2;64;36;1;
2019_03_22 13:22;52;0;1;practice;34;26;1;24;46;74;59;0.29999999999999999;0.11;0.25;0.34000000000000002;91;6;0;0;0.28999999999999998;0.70999999999999996;0.0;0.0;0;11.866289198606182;2;64;36;1;
2019_03_22 13:22;52;0;1;practice;35;60;1;39;93;27;78;0.85999999999999999;0.02;0.11;0.01;22;5;62;95;0.059999999999999998;0.56999999999999995;0.14000000000000001;0.23000000000000001;1;12.166315048775232;2;64;36;1;
2019_03_22 13:22;52;0;1;practice;36;70;0;21;42;14;63;0.96999999999999997;0.01;0.01;0.01;70;2;6;76;0.23999999999999999;0.42999999999999999;0.01;0.32000000000000001;1;13.199384021901324;2;64;36;1;
2019_03_22 13:22;52;0;1;practice;37;36;0;56;89;86;77;0.66000000000000003;0.080000000000000002;0.14999999999999999;0.11;29;91;0;0;0.40999999999999998;0.58999999999999997;0.0;0.0;1;20.515996956992694;2;64;36;1;
2019_03_22 13:22;52;0;1;practice;38;31;0;72;59;40;92;0.59999999999999998;0.34999999999999998;0.02;0.029999999999999999;97;29;0;0;0.38;0.62;0.0;0.0;0;21.71590792464849;2;64;36;1;
2019_03_22 13:22;52;0;1;practice;39;27;1;68;43;98;36;0.54000000000000004;0.44;0.01;0.0099999999999999603;97;13;0;0;0.27000000000000002;0.72999999999999998;0.0;0.0;0;25.015699006532486;2;64;36;1;
2019_03_22 13:22;52;0;1;practice;40;75;1;21;86;27;62;0.88;0.040000000000000001;0.070000000000000007;0.0099999999999999794;13;3;49;87;0.28999999999999998;0.39000000000000001;0.070000000000000007;0.25;1;11.566414408358241;2;64;36;1;
2019_03_22 13:22;52;0;1;practice;41;13;0;15;25;0;0;0.29999999999999999;0.69999999999999996;0.0;0.0;3;43;35;73;0.44;0.40000000000000002;0.01;0.14999999999999999;1;20.049435722239423;2;64;36;1;
2019_03_22 13:22;52;0;1;practice;42;47;1;91;99;90;78;0.93000000000000005;0.040000000000000001;0.02;0.0099999999999999499;10;87;0;0;0.23000000000000001;0.77000000000000002;0.0;0.0;0;4.749747271299839;2;64;36;1;
2019_03_22 13:22;52;0;1;practice;43;72;1;86;85;97;43;0.51000000000000001;0.14999999999999999;0.33000000000000002;0.0099999999999999499;72;29;10;90;0.01;0.11;0.65000000000000002;0.23000000000000001;0;9.532904763615306;2;64;36;1;
2019_03_22 13:22;52;0;1;practice;44;43;0;11;17;21;44;0.16;0.46000000000000002;0.25;0.13;2;66;0;0;0.44;0.56000000000000005;0.0;0.0;1;7.283136324683255;2;64;36;1;
2019_03_22 13:22;52;0;1;practice;45;20;0;32;11;0;0;0.40999999999999998;0.58999999999999997;0.0;0.0;1;86;42;65;0.45000000000000001;0.38;0.050000000000000003;0.12;1;5.749859844616594;2;64;36;1;
2019_03_22 13:22;52;0;1;practice;46;37;1;50;66;99;12;0.26000000000000001;0.71999999999999997;0.01;0.01;22;90;0;0;0.37;0.63;0.0;0.0;1;13.316106836247172;2;64;36;1;
2019_03_22 13:22;52;0;1;practice;47;21;1;59;69;0;0;0.34000000000000002;0.66000000000000003;0.0;0.0;64;18;5;24;0.14999999999999999;0.040000000000000001;0.51000000000000001;0.29999999999999999;0;7.449660484007609;2;64;36;1;
2019_03_22 13:22;52;0;1;practice;48;1;1;67;36;0;0;0.14999999999999999;0.84999999999999998;0.0;0.0;1;4;81;77;0.25;0.54000000000000004;0.14000000000000001;0.070000000000000007;0;9.349580880881376;2;64;36;1;
2019_03_22 13:22;52;0;1;practice;49;73;0;99;88;95;28;0.83999999999999997;0.14000000000000001;0.01;0.01;90;93;10;74;0.080000000000000002;0.46000000000000002;0.34999999999999998;0.11;0;8.500058050627786;2;64;36;1;
2019_03_22 13:22;52;0;1;practice;50;16;0;50;42;0;0;0.32000000000000001;0.68000000000000005;0.0;0.0;97;2;56;31;0.35999999999999999;0.16;0.16;0.32000000000000001;1;12.382871793424329;2;64;36;1;
2019_03_22 13:22;52;0;1;practice;51;57;0;39;68;59;91;0.73999999999999999;0.040000000000000001;0.14999999999999999;0.070000000000000007;9;22;40;84;0.29999999999999999;0.32000000000000001;0.040000000000000001;0.34000000000000002;1;9.366208697459342;2;64;36;1;
2019_03_22 13:22;52;0;1;practice;52;34;1;57;23;66;79;0.56000000000000005;0.23000000000000001;0.13;0.079999999999999905;85;9;0;0;0.56000000000000005;0.44;0.0;0.0;0;16.5993108332093;2;64;36;1;
2019_03_22 13:22;52;0;1;practice;53;30;0;54;78;85;25;0.20999999999999999;0.60999999999999999;0.089999999999999997;0.090000000000000094;87;20;0;0;0.58999999999999997;0.40999999999999998;0.0;0.0;0;14.116115367444536;2;64;36;1;
2019_03_22 13:22;52;0;1;practice;54;62;1;65;52;74;55;0.16;0.12;0.14999999999999999;0.56999999999999995;72;86;2;68;0.12;0.53000000000000003;0.22;0.13;1;15.465965013110917;2;64;36;1;
2019_03_22 13:22;52;0;1;practice;55;17;1;27;61;0;0;0.68999999999999995;0.31;0.0;0.0;3;91;69;43;0.29999999999999999;0.33000000000000002;0.27000000000000002;0.099999999999999895;1;15.58278083675009;2;64;36;1;
2019_03_22 13:22;52;0;1;practice;56;24;0;19;38;0;0;0.89000000000000001;0.11;0.0;0.0;45;76;95;57;0.29999999999999999;0.22;0.40000000000000002;0.080000000000000002;1;4.399724115192839;2;64;36;1;
2019_03_22 13:22;52;0;1;practice;57;4;0;40;59;0;0;0.19;0.81000000000000005;0.0;0.0;10;88;13;45;0.56000000000000005;0.28999999999999998;0.01;0.14000000000000001;0;12.049575877622829;2;64;36;1;
2019_03_22 13:22;52;0;1;practice;58;39;0;53;65;48;75;0.92000000000000004;0.029999999999999999;0.01;0.040000000000000001;16;83;0;0;0.31;0.68999999999999995;0.0;0.0;1;4.583109576493371;2;64;36;1;
2019_03_22 13:22;52;0;1;practice;59;18;0;47;36;0;0;0.089999999999999997;0.91000000000000003;0.0;0.0;2;44;81;9;0.20000000000000001;0.25;0.51000000000000001;0.040000000000000001;1;9.649569527333142;2;64;36;1;
2019_03_22 13:22;52;0;1;practice;60;69;1;38;74;27;73;0.22;0.19;0.45000000000000001;0.14000000000000001;1;97;79;84;0.28000000000000003;0.45000000000000001;0.17000000000000001;0.10000000000000001;1;8.766320885910318;2;64;36;1;
2019_03_22 13:22;52;0;1;practice;61;56;0;47;52;64;10;0.77000000000000002;0.040000000000000001;0.11;0.080000000000000002;1;5;12;99;0.14000000000000001;0.28999999999999998;0.27000000000000002;0.29999999999999999;0;12.232805788898304;2;64;36;1;
2019_03_22 13:22;52;0;1;practice;62;64;0;44;60;96;45;0.53000000000000003;0.10000000000000001;0.029999999999999999;0.34000000000000002;88;20;43;31;0.47999999999999998;0.38;0.050000000000000003;0.089999999999999997;1;9.8495616375792;2;64;36;1;
2019_03_22 13:22;52;0;1;practice;63;45;0;37;40;75;23;0.54000000000000004;0.38;0.059999999999999998;0.02;1;90;0;0;0.28000000000000003;0.71999999999999997;0.0;0.0;1;11.383008100147208;2;64;36;1;
2019_03_22 13:22;52;0;1;practice;64;68;0;39;58;40;8;0.48999999999999999;0.44;0.02;0.050000000000000003;92;83;51;2;0.57999999999999996;0.13;0.02;0.27000000000000002;1;5.266472907996558;2;64;36;1;
2019_03_22 13:22;52;0;1;practice;65;58;0;44;50;85;42;0.38;0.57999999999999996;0.02;0.02;37;88;19;12;0.20000000000000001;0.29999999999999999;0.46000000000000002;0.040000000000000001;0;13.799581009170197;2;64;36;1;
2019_03_22 13:22;52;0;1;practice;66;22;1;84;87;0;0;0.17000000000000001;0.82999999999999996;0.0;0.0;3;24;41;83;0.68000000000000005;0.11;0.10000000000000001;0.11;0;5.649993842143203;2;64;36;1;
2019_03_22 13:22;52;0;1;practice;67;10;0;34;59;0;0;0.16;0.83999999999999997;0.0;0.0;21;61;96;7;0.19;0.01;0.5;0.29999999999999999;1;13.349428858795136;2;64;36;1;
2019_03_22 13:22;52;0;1;practice;68;42;1;23;45;91;22;0.72999999999999998;0.02;0.20000000000000001;0.050000000000000003;2;86;0;0;0.40999999999999998;0.58999999999999997;0.0;0.0;1;34.54859639354868;2;64;36;1;
2019_03_22 13:22;52;0;1;practice;69;65;1;35;15;77;1;0.62;0.33000000000000002;0.029999999999999999;0.02;68;3;25;96;0.38;0.28000000000000003;0.28000000000000003;0.059999999999999901;1;12.032818168755966;2;64;36;1;
2019_03_22 13:22;52;0;1;practice;70;52;1;17;61;57;59;0.070000000000000007;0.050000000000000003;0.33000000000000002;0.55000000000000004;12;93;94;62;0.71999999999999997;0.16;0.080000000000000002;0.040000000000000001;0;14.232732022907157;2;64;36;1;
2019_03_22 13:22;52;0;1;practice;71;54;0;69;80;22;55;0.27000000000000002;0.31;0.059999999999999998;0.35999999999999999;52;2;49;90;0.059999999999999998;0.33000000000000002;0.20000000000000001;0.40999999999999998;0;27.882369863962595;2;64;36;1;
2019_03_22 13:22;52;0;1;practice;72;11;0;10;44;0;0;0.48999999999999999;0.51000000000000001;0.0;0.0;88;12;54;50;0.17000000000000001;0.75;0.02;0.059999999999999998;0;12.699623280290098;2;64;36;1;
2019_03_22 13:22;52;0;1;practice;73;3;1;20;70;0;0;0.13;0.87;0.0;0.0;95;19;80;73;0.31;0.57999999999999996;0.029999999999999999;0.080000000000000002;0;17.3826222719415;2;64;36;1;
2019_03_22 13:22;52;0;1;practice;74;53;0;47;24;95;38;0.57999999999999996;0.28000000000000003;0.02;0.12;8;22;93;96;0.54000000000000004;0.34000000000000002;0.10000000000000001;0.0199999999999999;0;11.349518660871126;2;64;36;1;
2019_03_22 13:22;52;0;1;practice;75;67;1;74;31;10;77;0.11;0.070000000000000007;0.77000000000000002;0.050000000000000003;2;23;8;97;0.56999999999999995;0.01;0.059999999999999998;0.35999999999999999;1;5.849676135226218;2;64;36;1;
2019_03_22 13:22;52;1;1;timed;1;116;0;53;65;43;99;0.56999999999999995;0.37;0.050000000000000003;0.010000000000000101;57;72;11;87;0.67000000000000004;0.13;0.14999999999999999;0.050000000000000003;1;5.032144653184332;2;64;36;1;
2019_03_22 13:22;52;1;1;timed;2;79;0;52;46;29;22;0.17999999999999999;0.51000000000000001;0.23999999999999999;0.070000000000000104;93;14;0;0;0.45000000000000001;0.55000000000000004;0.0;0.0;1;4.966363670185274;2;64;36;1;
2019_03_22 13:22;52;1;1;timed;3;97;1;17;33;32;74;0.94999999999999996;0.01;0.029999999999999999;0.01;76;23;0;0;0.33000000000000002;0.67000000000000004;0.0;0.0;1;4.916525762932906;2;64;36;1;
2019_03_22 13:22;52;1;1;timed;4;109;0;75;28;16;56;0.19;0.070000000000000007;0.059999999999999998;0.68000000000000005;3;50;98;44;0.5;0.02;0.34999999999999998;0.13;0;6.8498858872189885;2;64;36;1;
2019_03_22 13:22;52;1;1;timed;5;55;1;74;55;47;48;0.60999999999999999;0.31;0.070000000000000007;0.01;97;6;0;0;0.42999999999999999;0.56999999999999995;0.0;0.0;0;4.549786912501986;2;64;36;1;
2019_03_22 13:22;52;1;1;timed;6;18;1;68;50;0;0;0.029999999999999999;0.96999999999999997;0.0;0.0;34;64;15;89;0.65000000000000002;0.029999999999999999;0.050000000000000003;0.27000000000000002;1;6.532978208884742;2;64;36;1;
2019_03_22 13:22;52;1;1;timed;7;118;1;62;52;65;68;0.40999999999999998;0.44;0.10000000000000001;0.0500000000000001;79;20;14;37;0.56999999999999995;0.23999999999999999;0.14000000000000001;0.050000000000000003;0;6.549650605779334;2;64;36;1;
2019_03_22 13:22;52;1;1;timed;8;111;1;51;36;48;27;0.93000000000000005;0.01;0.01;0.049999999999999899;31;78;30;53;0.55000000000000004;0.16;0.029999999999999999;0.26000000000000001;1;5.883017080354875;2;64;36;1;
2019_03_22 13:22;52;1;1;timed;9;21;1;64;28;0;0;0.080000000000000002;0.92000000000000004;0.0;0.0;50;1;88;13;0.57999999999999996;0.13;0.02;0.27000000000000002;0;0.6664529591066639;2;64;36;1;
2019_03_22 13:22;52;1;1;timed;10;135;0;48;60;41;51;0.14000000000000001;0.40000000000000002;0.089999999999999997;0.37;94;1;85;65;0.64000000000000001;0.29999999999999999;0.01;0.050000000000000003;1;6.649703268282337;2;64;36;1;
2019_03_22 13:22;52;1;1;timed;11;107;0;52;48;13;63;0.68000000000000005;0.19;0.050000000000000003;0.079999999999999905;54;91;33;3;0.19;0.17999999999999999;0.33000000000000002;0.29999999999999999;0;5.666361232700183;2;64;36;1;
2019_03_22 13:22;52;1;1;timed;12;34;0;32;48;0;0;0.28000000000000003;0.71999999999999997;0.0;0.0;97;83;7;62;0.040000000000000001;0.54000000000000004;0.35999999999999999;0.059999999999999901;1;7.432978465462384;2;64;36;1;
2019_03_22 13:22;52;1;1;timed;13;22;0;32;55;0;0;0.39000000000000001;0.60999999999999999;0.0;0.0;93;72;59;22;0.20000000000000001;0.11;0.14000000000000001;0.55000000000000004;1;7.982947547890035;2;64;36;1;
2019_03_22 13:22;52;1;1;timed;14;53;1;26;70;50;80;0.29999999999999999;0.59999999999999998;0.040000000000000001;0.059999999999999998;89;1;0;0;0.40999999999999998;0.58999999999999997;0.0;0.0;0;7.566335510819954;2;64;36;1;
2019_03_22 13:22;52;1;1;timed;15;104;0;55;85;93;3;0.87;0.02;0.089999999999999997;0.02;1;2;90;8;0.35999999999999999;0.070000000000000007;0.40000000000000002;0.17000000000000001;0;8.349763050807269;2;64;36;1;
2019_03_22 13:22;52;1;1;timed;16;146;0;25;5;64;35;0.94999999999999996;0.02;0.01;0.02;47;97;12;79;0.20999999999999999;0.029999999999999999;0.02;0.73999999999999999;1;6.433182123741972;2;64;36;1;
2019_03_22 13:22;52;1;1;timed;17;123;1;26;24;51;92;0.72999999999999998;0.16;0.070000000000000007;0.040000000000000001;6;90;82;49;0.64000000000000001;0.25;0.050000000000000003;0.059999999999999998;0;7.933130487548624;2;64;36;1;
2019_03_22 13:22;52;1;1;timed;18;63;0;56;78;42;36;0.93000000000000005;0.040000000000000001;0.01;0.0199999999999999;2;72;0;0;0.32000000000000001;0.68000000000000005;0.0;0.0;0;8.249698521601204;2;64;36;1;
2019_03_22 13:22;52;1;1;timed;19;32;1;19;81;0;0;0.93000000000000005;0.070000000000000007;0.0;0.0;1;65;41;68;0.45000000000000001;0.050000000000000003;0.059999999999999998;0.44;1;5.766395614066823;2;64;36;1;
2019_03_22 13:22;52;1;1;timed;20;147;1;39;43;76;28;0.14000000000000001;0.10000000000000001;0.10000000000000001;0.66000000000000003;6;31;68;85;0.27000000000000002;0.20000000000000001;0.22;0.31;1;5.783062237970171;2;64;36;1;
2019_03_22 13:22;52;1;1;timed;21;99;1;8;24;15;73;0.56000000000000005;0.35999999999999999;0.070000000000000007;0.0099999999999999499;88;12;0;0;0.52000000000000002;0.47999999999999998;0.0;0.0;1;8.383094695006548;2;64;36;1;
2019_03_22 13:22;52;1;1;timed;22;69;0;54;34;64;49;0.34000000000000002;0.25;0.20999999999999999;0.20000000000000001;14;98;0;0;0.62;0.38;0.0;0.0;1;8.549621420104359;2;64;36;1;
2019_03_22 13:22;52;1;1;timed;23;110;1;47;44;23;52;0.13;0.27000000000000002;0.040000000000000001;0.56000000000000005;99;2;30;22;0.28999999999999998;0.5;0.11;0.10000000000000001;1;8.08309835123373;2;64;36;1;
2019_03_22 13:22;52;1;1;timed;24;25;1;50;53;0;0;0.82999999999999996;0.17000000000000001;0.0;0.0;83;16;97;4;0.45000000000000001;0.29999999999999999;0.11;0.14000000000000001;1;7.433007330414966;2;64;36;1;
2019_03_22 13:22;52;1;1;timed;25;126;0;16;55;51;42;0.68999999999999995;0.23999999999999999;0.01;0.060000000000000102;66;4;1;5;0.46999999999999997;0.38;0.089999999999999997;0.059999999999999998;0;4.933073399085515;2;64;36;1;
2019_03_22 13:22;52;1;1;timed;26;115;1;50;28;61;79;0.83999999999999997;0.040000000000000001;0.059999999999999998;0.059999999999999998;1;26;97;55;0.45000000000000001;0.080000000000000002;0.40999999999999998;0.060000000000000102;1;8.199631619054344;2;64;36;1;
2019_03_22 13:22;52;1;1;timed;27;137;1;71;22;28;17;0.25;0.46000000000000002;0.050000000000000003;0.23999999999999999;3;98;92;69;0.42999999999999999;0.23999999999999999;0.20000000000000001;0.13;1;8.399579469706168;2;64;36;1;
2019_03_22 13:22;52;1;1;timed;28;148;0;37;63;55;10;0.72999999999999998;0.070000000000000007;0.029999999999999999;0.17000000000000001;80;14;23;70;0.46999999999999997;0.10000000000000001;0.23000000000000001;0.20000000000000001;1;7.599637969344258;2;64;36;1;
2019_03_22 13:22;52;1;1;timed;29;50;0;15;20;0;0;0.82999999999999996;0.17000000000000001;0.0;0.0;97;18;88;87;0.56999999999999995;0.39000000000000001;0.01;0.029999999999999999;1;5.116525249778078;2;64;36;1;
2019_03_22 13:22;52;1;1;timed;30;71;1;68;55;36;51;0.20000000000000001;0.75;0.02;0.029999999999999999;38;81;0;0;0.52000000000000002;0.47999999999999998;0.0;0.0;1;8.299779215180934;2;64;36;1;
2019_03_22 13:22;52;1;1;timed;31;7;0;49;29;0;0;0.95999999999999996;0.040000000000000001;0.0;0.0;23;99;64;25;0.68999999999999995;0.12;0.059999999999999998;0.13;NA;9.41625347020863;2;64;36;1;
2019_03_22 13:22;52;1;1;timed;32;44;0;79;74;0;0;0.71999999999999997;0.28000000000000003;0.0;0.0;3;67;15;36;0.41999999999999998;0.53000000000000003;0.02;0.029999999999999999;0;6.483162110708236;2;64;36;1;
2019_03_22 13:22;52;1;1;timed;33;122;0;35;58;25;31;0.81999999999999995;0.070000000000000007;0.080000000000000002;0.029999999999999999;18;64;68;89;0.63;0.17000000000000001;0.11;0.089999999999999997;0;6.166370212907623;2;64;36;1;
2019_03_22 13:22;52;1;1;timed;34;102;0;40;56;53;17;0.28000000000000003;0.26000000000000001;0.14999999999999999;0.31;1;76;29;62;0.68000000000000005;0.23000000000000001;0.050000000000000003;0.039999999999999897;0;5.433207781478359;2;64;36;1;
2019_03_22 13:22;52;1;1;timed;35;58;1;37;58;76;34;0.20999999999999999;0.57999999999999996;0.19;0.020000000000000101;86;5;0;0;0.47999999999999998;0.52000000000000002;0.0;0.0;0;7.9663495584304655;2;64;36;1;
2019_03_22 13:22;52;1;1;timed;36;10;0;45;62;0;0;0.059999999999999998;0.93999999999999995;0.0;0.0;17;99;28;67;0.58999999999999997;0.34000000000000002;0.01;0.059999999999999998;1;8.016458154798329;2;64;36;1;
2019_03_22 13:22;52;1;1;timed;37;39;0;14;33;0;0;0.78000000000000003;0.22;0.0;0.0;93;84;1;25;0.14000000000000001;0.23999999999999999;0.39000000000000001;0.23000000000000001;1;4.599779728335761;2;64;36;1;
2019_03_22 13:22;52;1;1;timed;38;40;0;45;49;0;0;0.68999999999999995;0.31;0.0;0.0;2;92;65;73;0.23999999999999999;0.59999999999999998;0.11;0.050000000000000003;1;3.5666270468459516;2;64;36;1;
2019_03_22 13:22;52;1;1;timed;39;73;0;65;68;70;47;0.25;0.23000000000000001;0.20999999999999999;0.31;27;95;0;0;0.45000000000000001;0.55000000000000004;0.0;0.0;0;6.783203355518708;2;64;36;1;
2019_03_22 13:22;52;1;1;timed;40;95;1;93;88;68;85;0.83999999999999997;0.14000000000000001;0.01;0.01;2;82;0;0;0.41999999999999998;0.57999999999999996;0.0;0.0;0;3.2832646133638264;2;64;36;1;
2019_03_22 13:22;52;1;1;timed;41;100;1;27;14;59;52;0.02;0.95999999999999996;0.01;0.01;17;98;0;0;0.48999999999999999;0.51000000000000001;0.0;0.0;1;3.0831214431964327;2;64;36;1;
2019_03_22 13:22;52;1;1;timed;42;49;0;21;30;0;0;0.53000000000000003;0.46999999999999997;0.0;0.0;93;99;89;25;0.44;0.02;0.11;0.42999999999999999;1;4.466579515889862;2;64;36;1;
2019_03_22 13:22;52;1;1;timed;43;81;0;67;38;52;65;0.27000000000000002;0.35999999999999999;0.01;0.35999999999999999;2;77;0;0;0.14000000000000001;0.85999999999999999;0.0;0.0;1;7.449682934526663;2;64;36;1;
2019_03_22 13:22;52;1;1;timed;44;54;1;44;79;78;52;0.79000000000000004;0.19;0.01;0.0099999999999999603;96;1;0;0;0.28000000000000003;0.71999999999999997;0.0;0.0;0;6.883073848096046;2;64;36;1;
2019_03_22 13:22;52;1;1;timed;45;101;0;30;96;61;45;0.65000000000000002;0.14000000000000001;0.11;0.10000000000000001;3;98;63;89;0.75;0.19;0.040000000000000001;0.02;0;6.199671709267022;2;64;36;1;
2019_03_22 13:22;52;1;1;timed;46;46;0;5;19;0;0;0.32000000000000001;0.68000000000000005;0.0;0.0;88;38;97;66;0.60999999999999999;0.20000000000000001;0.040000000000000001;0.14999999999999999;1;5.399687232197721;2;64;36;1;
2019_03_22 13:22;52;1;1;timed;47;61;0;43;18;39;70;0.75;0.089999999999999997;0.089999999999999997;0.070000000000000007;16;66;0;0;0.64000000000000001;0.35999999999999999;0.0;0.0;0;5.316455140014568;2;64;36;1;
2019_03_22 13:22;52;1;1;timed;48;75;1;67;80;36;81;0.81999999999999995;0.080000000000000002;0.059999999999999998;0.040000000000000001;3;97;0;0;0.32000000000000001;0.68000000000000005;0.0;0.0;1;4.9663928558597945;2;64;36;1;
2019_03_22 13:22;52;1;1;timed;49;117;1;65;85;92;41;0.23000000000000001;0.17999999999999999;0.54000000000000004;0.050000000000000003;99;93;10;13;0.64000000000000001;0.16;0.01;0.19;1;4.349759843590618;2;64;36;1;
2019_03_22 13:22;52;1;1;timed;50;11;0;17;36;0;0;0.14000000000000001;0.85999999999999999;0.0;0.0;19;41;34;95;0.88;0.02;0.050000000000000003;0.050000000000000003;0;6.816529547448681;2;64;36;1;
2019_03_22 13:22;52;1;1;timed;51;13;0;52;56;0;0;0.46999999999999997;0.53000000000000003;0.0;0.0;94;71;27;2;0.089999999999999997;0.31;0.57999999999999996;0.020000000000000101;0;7.816570279104781;2;64;36;1;
2019_03_22 13:22;52;1;1;timed;52;150;1;25;21;78;38;0.84999999999999998;0.059999999999999998;0.050000000000000003;0.040000000000000001;31;43;64;95;0.059999999999999998;0.45000000000000001;0.13;0.35999999999999999;1;5.766427365515028;2;64;36;1;
2019_03_22 13:22;52;1;1;timed;53;24;0;35;27;0;0;0.070000000000000007;0.93000000000000005;0.0;0.0;62;3;81;95;0.35999999999999999;0.55000000000000004;0.01;0.080000000000000002;1;7.632992705505785;2;64;36;1;
2019_03_22 13:22;52;1;1;timed;54;3;1;53;40;0;0;0.31;0.68999999999999995;0.0;0.0;96;24;7;88;0.11;0.27000000000000002;0.58999999999999997;0.029999999999999999;0;6.116383811508058;2;64;36;1;
2019_03_22 13:22;52;1;1;timed;55;138;1;8;20;43;51;0.38;0.5;0.02;0.10000000000000001;72;82;70;1;0.39000000000000001;0.050000000000000003;0.070000000000000007;0.48999999999999999;1;7.36635751232825;2;64;36;1;
2019_03_22 13:22;52;1;1;timed;56;127;1;89;26;62;79;0.02;0.28999999999999998;0.53000000000000003;0.16;96;6;60;13;0.53000000000000003;0.25;0.17000000000000001;0.050000000000000003;1;6.849821742878703;2;64;36;1;
2019_03_22 13:22;52;1;1;timed;57;60;0;64;59;57;96;0.83999999999999997;0.13;0.02;0.01;83;6;0;0;0.54000000000000004;0.46000000000000002;0.0;0.0;0;8.582930293062873;2;64;36;1;
2019_03_22 13:22;52;1;1;timed;58;47;0;2;40;0;0;0.45000000000000001;0.55000000000000004;0.0;0.0;93;89;11;56;0.58999999999999997;0.070000000000000007;0.28000000000000003;0.059999999999999998;1;4.616570792259608;2;64;36;1;
2019_03_22 13:22;52;1;1;timed;59;37;1;14;98;0;0;0.93000000000000005;0.070000000000000007;0.0;0.0;41;2;87;66;0.17999999999999999;0.48999999999999999;0.32000000000000001;0.010000000000000101;1;5.083101237729352;2;64;36;1;
2019_03_22 13:22;52;1;1;timed;60;86;0;56;30;57;88;0.20000000000000001;0.35999999999999999;0.080000000000000002;0.35999999999999999;98;2;0;0;0.77000000000000002;0.23000000000000001;0.0;0.0;1;5.916434357247908;2;64;36;1;
2019_03_22 13:22;52;1;1;timed;61;6;0;9;51;0;0;0.14999999999999999;0.84999999999999998;0.0;0.0;6;40;50;73;0.42999999999999999;0.26000000000000001;0.059999999999999998;0.25;1;7.683144920024461;2;64;36;1;
2019_03_22 13:22;52;1;1;timed;62;112;0;70;44;98;64;0.02;0.75;0.12;0.11;33;2;63;85;0.23999999999999999;0.31;0.080000000000000002;0.37;1;6.999875239258017;2;64;36;1;
2019_03_22 13:22;52;1;1;timed;63;36;0;70;17;0;0;0.33000000000000002;0.67000000000000004;0.0;0.0;84;1;12;88;0.22;0.27000000000000002;0.14000000000000001;0.37;1;6.316363092886149;2;64;36;1;
2019_03_22 13:22;52;1;1;timed;64;59;1;56;47;83;90;0.31;0.12;0.54000000000000004;0.029999999999999898;10;98;0;0;0.46999999999999997;0.53000000000000003;0.0;0.0;0;6.6832135544686935;2;64;36;1;
2019_03_22 13:22;52;1;1;timed;65;98;1;27;10;31;79;0.23000000000000001;0.67000000000000004;0.070000000000000007;0.029999999999999999;25;99;0;0;0.38;0.62;0.0;0.0;1;3.999967286386891;2;64;36;1;
2019_03_22 13:22;52;1;1;timed;66;8;0;50;36;0;0;0.080000000000000002;0.92000000000000004;0.0;0.0;6;19;84;29;0.54000000000000004;0.070000000000000007;0.17000000000000001;0.22;1;8.382978593750977;2;64;36;1;
2019_03_22 13:22;52;1;1;timed;67;128;0;70;49;27;54;0.27000000000000002;0.53000000000000003;0.02;0.17999999999999999;72;97;6;20;0.29999999999999999;0.39000000000000001;0.22;0.0899999999999999;1;7.61637130336203;2;64;36;1;
2019_03_22 13:22;52;1;1;timed;68;143;1;88;44;56;73;0.95999999999999996;0.02;0.01;0.01;20;3;87;32;0.19;0.40000000000000002;0.28000000000000003;0.13;0;6.266350071585293;2;64;36;1;
2019_03_22 13:22;52;1;1;timed;69;2;1;59;32;0;0;0.080000000000000002;0.92000000000000004;0.0;0.0;33;38;85;1;0.28999999999999998;0.050000000000000003;0.070000000000000007;0.58999999999999997;0;5.91635930836992;2;64;36;1;
2019_03_22 13:22;52;1;1;timed;70;14;0;36;40;0;0;0.54000000000000004;0.46000000000000002;0.0;0.0;99;70;1;11;0.16;0.089999999999999997;0.080000000000000002;0.67000000000000004;0;7.599658495532822;2;64;36;1;
2019_03_22 13:22;52;1;1;timed;71;108;0;48;72;39;70;0.14000000000000001;0.66000000000000003;0.02;0.17999999999999999;81;44;98;8;0.59999999999999998;0.029999999999999999;0.050000000000000003;0.32000000000000001;0;8.566307928753758;2;64;36;1;
2019_03_22 13:22;52;1;1;timed;72;20;0;44;40;0;0;0.91000000000000003;0.089999999999999997;0.0;0.0;29;5;80;99;0.25;0.40000000000000002;0.26000000000000001;0.089999999999999997;1;8.250080180425357;2;64;36;1;
2019_03_22 13:22;52;1;1;timed;73;90;1;27;44;50;72;0.68000000000000005;0.28999999999999998;0.02;0.0099999999999999707;6;96;0;0;0.46999999999999997;0.53000000000000003;0.0;0.0;1;5.24991949885316;2;64;36;1;
2019_03_22 13:22;52;1;1;timed;74;82;0;78;66;30;27;0.28999999999999998;0.58999999999999997;0.080000000000000002;0.040000000000000001;90;6;0;0;0.82999999999999996;0.17000000000000001;0.0;0.0;1;3.516445005208425;2;64;36;1;
2019_03_22 13:22;52;1;1;timed;75;134;1;57;48;50;55;0.02;0.62;0.17999999999999999;0.17999999999999999;80;96;15;18;0.23999999999999999;0.35999999999999999;0.33000000000000002;0.070000000000000007;1;7.433129204661327;2;64;36;1;
2019_03_22 13:22;52;2;1;control;1;133;0;59;88;60;36;0.67000000000000004;0.070000000000000007;0.12;0.14000000000000001;7;91;66;61;0.25;0.68999999999999995;0.01;0.0500000000000001;1;10.447583810994729;2;64;36;1;
2019_03_22 13:22;52;2;1;control;2;16;0;64;53;0;0;0.65000000000000002;0.34999999999999998;0.0;0.0;29;17;81;46;0.10000000000000001;0.01;0.44;0.45000000000000001;0;14.816105553360558;2;64;36;1;
2019_03_22 13:22;52;2;1;control;3;145;1;91;89;90;74;0.57999999999999996;0.29999999999999999;0.11;0.010000000000000101;2;75;84;39;0.32000000000000001;0.27000000000000002;0.39000000000000001;0.0199999999999999;0;5.733185523392422;2;64;36;1;
2019_03_22 13:22;52;2;1;control;4;115;0;50;28;61;79;0.83999999999999997;0.040000000000000001;0.059999999999999998;0.059999999999999998;1;26;97;55;0.45000000000000001;0.080000000000000002;0.40999999999999998;0.060000000000000102;0;12.466537501347375;2;64;36;1;
2019_03_22 13:22;52;2;1;control;5;113;0;85;65;39;64;0.44;0.34000000000000002;0.13;0.089999999999999997;87;2;4;35;0.67000000000000004;0.17000000000000001;0.11;0.049999999999999899;1;18.666010683881268;2;64;36;1;
2019_03_22 13:22;52;2;1;control;6;135;1;48;60;41;51;0.14000000000000001;0.40000000000000002;0.089999999999999997;0.37;94;1;85;65;0.64000000000000001;0.29999999999999999;0.01;0.050000000000000003;1;13.13277301114067;2;64;36;1;
2019_03_22 13:22;52;2;1;control;7;149;0;14;89;73;53;0.93999999999999995;0.01;0.01;0.040000000000000001;97;45;6;13;0.34000000000000002;0.01;0.40999999999999998;0.23999999999999999;1;10.432893474211596;2;64;36;1;
2019_03_22 13:22;52;2;1;control;8;39;1;14;33;0;0;0.78000000000000003;0.22;0.0;0.0;93;84;1;25;0.14000000000000001;0.23999999999999999;0.39000000000000001;0.23000000000000001;1;9.516230442390679;2;64;36;1;
2019_03_22 13:22;52;2;1;control;9;71;1;68;55;36;51;0.20000000000000001;0.75;0.02;0.029999999999999999;38;81;0;0;0.52000000000000002;0.47999999999999998;0.0;0.0;1;18.01586321604327;2;64;36;1;
2019_03_22 13:22;52;2;1;control;10;53;0;26;70;50;80;0.29999999999999999;0.59999999999999998;0.040000000000000001;0.059999999999999998;89;1;0;0;0.40999999999999998;0.58999999999999997;0.0;0.0;0;12.932739848516576;2;64;36;1;
2019_03_22 13:22;52;2;1;control;11;106;1;85;69;22;61;0.10000000000000001;0.58999999999999997;0.17999999999999999;0.13;20;79;91;84;0.55000000000000004;0.14999999999999999;0.26000000000000001;0.039999999999999897;0;18.949184853725455;2;64;36;1;
2019_03_22 13:22;52;2;1;control;12;54;0;44;79;78;52;0.79000000000000004;0.19;0.01;0.0099999999999999603;96;1;0;0;0.28000000000000003;0.71999999999999997;0.0;0.0;0;11.299458814201898;2;64;36;1;
2019_03_22 13:22;52;2;1;control;13;112;1;70;44;98;64;0.02;0.75;0.12;0.11;33;2;63;85;0.23999999999999999;0.31;0.080000000000000002;0.37;0;18.466013121365904;2;64;36;1;
2019_03_22 13:22;52;2;1;control;14;137;0;71;22;28;17;0.25;0.46000000000000002;0.050000000000000003;0.23999999999999999;3;98;92;69;0.42999999999999999;0.23999999999999999;0.20000000000000001;0.13;1;11.382852550122152;2;64;36;1;
2019_03_22 13:22;52;2;1;control;15;2;1;59;32;0;0;0.080000000000000002;0.92000000000000004;0.0;0.0;33;38;85;1;0.28999999999999998;0.050000000000000003;0.070000000000000007;0.58999999999999997;0;17.01595430100633;2;64;36;1;
2019_03_22 13:22;52;2;1;control;16;110;0;47;44;23;52;0.13;0.27000000000000002;0.040000000000000001;0.56000000000000005;99;2;30;22;0.28999999999999998;0.5;0.11;0.10000000000000001;0;13.016115303300012;2;64;36;1;
2019_03_22 13:22;52;2;1;control;17;78;1;74;36;34;3;0.14999999999999999;0.64000000000000001;0.13;0.080000000000000002;1;83;0;0;0.41999999999999998;0.57999999999999996;0.0;0.0;1;18.415892016852013;2;64;36;1;
2019_03_22 13:22;52;2;1;control;18;61;0;43;18;39;70;0.75;0.089999999999999997;0.089999999999999997;0.070000000000000007;16;66;0;0;0.64000000000000001;0.35999999999999999;0.0;0.0;0;15.999466319089606;2;64;36;1;
2019_03_22 13:22;52;2;1;control;19;72;1;63;82;51;61;0.01;0.96999999999999997;0.01;0.01;92;12;0;0;0.89000000000000001;0.11;0.0;0.0;0;24.032328747440715;2;64;36;1;
2019_03_22 13:22;52;2;1;control;20;124;0;37;65;15;41;0.17999999999999999;0.45000000000000001;0.02;0.34999999999999998;40;7;98;30;0.070000000000000007;0.45000000000000001;0.45000000000000001;0.029999999999999898;1;22.532383911573106;2;64;36;1;
2019_03_22 13:22;52;2;1;control;21;120;0;64;40;48;51;0.19;0.02;0.070000000000000007;0.71999999999999997;97;9;79;94;0.23000000000000001;0.54000000000000004;0.01;0.22;1;21.132586671832087;2;64;36;1;
2019_03_22 13:22;52;2;1;control;22;126;0;16;55;51;42;0.68999999999999995;0.23999999999999999;0.01;0.060000000000000102;66;4;1;5;0.46999999999999997;0.38;0.089999999999999997;0.059999999999999998;0;13.882706942470122;2;64;36;1;
2019_03_22 13:22;52;2;1;control;23;12;1;53;68;0;0;0.31;0.68999999999999995;0.0;0.0;69;54;97;29;0.25;0.20999999999999999;0.20000000000000001;0.34000000000000002;1;5.283103931791629;2;64;36;1;
2019_03_22 13:22;52;2;1;control;24;63;1;56;78;42;36;0.93000000000000005;0.040000000000000001;0.01;0.0199999999999999;2;72;0;0;0.32000000000000001;0.68000000000000005;0.0;0.0;0;8.249655544893358;2;64;36;1;
2019_03_22 13:22;52;2;1;control;25;84;1;43;10;5;45;0.78000000000000003;0.13;0.059999999999999998;0.029999999999999999;87;1;0;0;0.57999999999999996;0.41999999999999998;0.0;0.0;1;14.082687186013573;2;64;36;1;
2019_03_22 13:22;52;2;1;control;26;107;0;52;48;13;63;0.68000000000000005;0.19;0.050000000000000003;0.079999999999999905;54;91;33;3;0.19;0.17999999999999999;0.33000000000000002;0.29999999999999999;1;19.865857507197234;2;64;36;1;
2019_03_22 13:22;52;2;1;control;27;58;1;37;58;76;34;0.20999999999999999;0.57999999999999996;0.19;0.020000000000000101;86;5;0;0;0.47999999999999998;0.52000000000000002;0.0;0.0;0;9.2829583241396;2;64;36;1;
2019_03_22 13:22;52;2;1;control;28;36;0;70;17;0;0;0.33000000000000002;0.67000000000000004;0.0;0.0;84;1;12;88;0.22;0.27000000000000002;0.14000000000000001;0.37;1;9.466274509552477;2;64;36;1;
2019_03_22 13:22;52;2;1;control;29;62;0;12;45;16;50;0.20999999999999999;0.76000000000000001;0.02;0.01;92;15;0;0;0.20999999999999999;0.79000000000000004;0.0;0.0;1;11.5828218891279;2;64;36;1;
2019_03_22 13:22;52;2;1;control;30;76;1;39;62;9;28;0.01;0.51000000000000001;0.26000000000000001;0.22;77;7;0;0;0.57999999999999996;0.41999999999999998;0.0;0.0;1;15.6159989454668;2;64;36;1;
2019_03_22 13:22;52;2;1;control;31;41;0;99;40;0;0;0.89000000000000001;0.11;0.0;0.0;1;67;52;46;0.51000000000000001;0.38;0.029999999999999999;0.080000000000000002;0;11.13276820031524;2;64;36;1;
2019_03_22 13:22;52;2;1;control;32;141;1;93;28;60;91;0.81999999999999995;0.10000000000000001;0.01;0.070000000000000007;14;85;7;89;0.45000000000000001;0.070000000000000007;0.23999999999999999;0.23999999999999999;0;10.899738226947647;2;64;36;1;
2019_03_22 13:22;52;2;1;control;33;148;0;37;63;55;10;0.72999999999999998;0.070000000000000007;0.029999999999999999;0.17000000000000001;80;14;23;70;0.46999999999999997;0.10000000000000001;0.23000000000000001;0.20000000000000001;1;10.96612344963114;2;64;36;1;
2019_03_22 13:22;52;2;1;control;34;117;1;65;85;92;41;0.23000000000000001;0.17999999999999999;0.54000000000000004;0.050000000000000003;99;93;10;13;0.64000000000000001;0.16;0.01;0.19;0;18.616058599703592;2;64;36;1;
2019_03_22 13:22;52;2;1;control;35;50;0;15;20;0;0;0.82999999999999996;0.17000000000000001;0.0;0.0;97;18;88;87;0.56999999999999995;0.39000000000000001;0.01;0.029999999999999999;1;6.933150372293767;2;64;36;1;
2019_03_22 13:22;52;2;1;control;36;129;1;12;29;81;36;0.17999999999999999;0.79000000000000004;0.01;0.02;5;19;95;92;0.47999999999999998;0.26000000000000001;0.13;0.13;1;13.849418274979143;2;64;36;1;
2019_03_22 13:22;52;2;1;control;37;74;0;66;47;52;44;0.41999999999999998;0.26000000000000001;0.17999999999999999;0.14000000000000001;17;99;0;0;0.47999999999999998;0.52000000000000002;0.0;0.0;1;10.699705385045945;2;64;36;1;
2019_03_22 13:22;52;2;1;control;38;111;1;51;36;48;27;0.93000000000000005;0.01;0.01;0.049999999999999899;31;78;30;53;0.55000000000000004;0.16;0.029999999999999999;0.26000000000000001;1;20.46596405094624;2;64;36;1;
2019_03_22 13:22;52;2;1;control;39;57;1;52;35;23;47;0.22;0.68000000000000005;0.040000000000000001;0.059999999999999998;71;7;0;0;0.28999999999999998;0.70999999999999996;0.0;0.0;0;11.749495184043099;2;64;36;1;
2019_03_22 13:22;52;2;1;control;40;144;0;99;93;90;71;0.65000000000000002;0.32000000000000001;0.01;0.02;97;14;48;73;0.23000000000000001;0.46000000000000002;0.13;0.17999999999999999;0;17.132535997803643;2;64;36;1;
2019_03_22 13:22;52;2;1;control;41;3;1;53;40;0;0;0.31;0.68999999999999995;0.0;0.0;96;24;7;88;0.11;0.27000000000000002;0.58999999999999997;0.029999999999999999;0;17.19927176930605;2;64;36;1;
2019_03_22 13:22;52;2;1;control;42;140;1;36;32;26;27;0.39000000000000001;0.14999999999999999;0.19;0.27000000000000002;44;3;99;25;0.29999999999999999;0.34000000000000002;0.34000000000000002;0.0199999999999999;1;15.366174700959164;2;64;36;1;
2019_03_22 13:22;52;2;1;control;43;28;1;47;30;0;0;0.97999999999999998;0.02;0.0;0.0;55;48;77;13;0.070000000000000007;0.26000000000000001;0.42999999999999999;0.23999999999999999;1;10.416225567420497;2;64;36;1;
2019_03_22 13:22;52;2;1;control;44;67;1;44;42;8;89;0.88;0.070000000000000007;0.029999999999999999;0.02;10;63;0;0;0.39000000000000001;0.60999999999999999;0.0;0.0;0;24.73227499448376;2;64;36;1;
2019_03_22 13:22;52;2;1;control;45;46;1;5;19;0;0;0.32000000000000001;0.68000000000000005;0.0;0.0;88;38;97;66;0.60999999999999999;0.20000000000000001;0.040000000000000001;0.14999999999999999;1;8.699750606805537;2;64;36;1;
2019_03_22 13:22;52;2;1;control;46;25;1;50;53;0;0;0.82999999999999996;0.17000000000000001;0.0;0.0;83;16;97;4;0.45000000000000001;0.29999999999999999;0.11;0.14000000000000001;1;17.732750304044202;2;64;36;1;
2019_03_22 13:22;52;2;1;control;47;27;0;44;26;0;0;0.35999999999999999;0.64000000000000001;0.0;0.0;63;10;3;5;0.58999999999999997;0.19;0.14999999999999999;0.070000000000000007;1;25.61561664519968;2;64;36;1;
2019_03_22 13:22;52;2;1;control;48;86;0;56;30;57;88;0.20000000000000001;0.35999999999999999;0.080000000000000002;0.35999999999999999;98;2;0;0;0.77000000000000002;0.23000000000000001;0.0;0.0;1;6.966457962365439;2;64;36;1;
2019_03_22 13:22;52;2;1;control;49;125;0;37;41;10;35;0.91000000000000003;0.040000000000000001;0.029999999999999999;0.02;7;13;91;93;0.26000000000000001;0.39000000000000001;0.16;0.19;1;9.049591592986417;2;64;36;1;
2019_03_22 13:22;52;2;1;control;50;23;1;54;40;0;0;0.93000000000000005;0.070000000000000007;0.0;0.0;36;23;71;86;0.02;0.41999999999999998;0.19;0.37;1;9.283127023753877;2;64;36;1;
2019_03_22 13:22;52;2;1;control;51;105;1;49;74;63;58;0.84999999999999998;0.080000000000000002;0.02;0.050000000000000003;97;5;86;8;0.25;0.52000000000000002;0.070000000000000007;0.16;0;7.083146780210882;2;64;36;1;
2019_03_22 13:22;52;2;1;control;52;7;0;49;29;0;0;0.95999999999999996;0.040000000000000001;0.0;0.0;23;99;64;25;0.68999999999999995;0.12;0.059999999999999998;0.13;1;10.032849278761205;2;64;36;1;
2019_03_22 13:22;52;2;1;control;53;138;1;8;20;43;51;0.38;0.5;0.02;0.10000000000000001;72;82;70;1;0.39000000000000001;0.050000000000000003;0.070000000000000007;0.48999999999999999;1;11.066199524818785;2;64;36;1;
2019_03_22 13:22;52;2;1;control;54;102;1;40;56;53;17;0.28000000000000003;0.26000000000000001;0.14999999999999999;0.31;1;76;29;62;0.68000000000000005;0.23000000000000001;0.050000000000000003;0.039999999999999897;0;7.6496612537398505;2;64;36;1;
2019_03_22 13:22;52;2;1;control;55;8;0;50;36;0;0;0.080000000000000002;0.92000000000000004;0.0;0.0;6;19;84;29;0.54000000000000004;0.070000000000000007;0.17000000000000001;0.22;0;10.883019966850497;2;64;36;1;
2019_03_22 13:22;52;2;1;control;56;52;0;71;51;10;54;0.22;0.12;0.19;0.46999999999999997;91;1;0;0;0.29999999999999999;0.69999999999999996;0.0;0.0;0;12.632788726504259;2;64;36;1;
2019_03_22 13:22;52;2;1;control;57;45;1;97;87;0;0;0.71999999999999997;0.28000000000000003;0.0;0.0;96;11;14;4;0.25;0.029999999999999999;0.14000000000000001;0.57999999999999996;0;7.6829874456698235;2;64;36;1;
2019_03_22 13:22;52;2;1;control;58;37;0;14;98;0;0;0.93000000000000005;0.070000000000000007;0.0;0.0;41;2;87;66;0.17999999999999999;0.48999999999999999;0.32000000000000001;0.010000000000000101;1;15.582799438608617;2;64;36;1;
2019_03_22 13:22;52;2;1;control;59;32;0;19;81;0;0;0.93000000000000005;0.070000000000000007;0.0;0.0;1;65;41;68;0.45000000000000001;0.050000000000000003;0.059999999999999998;0.44;1;18.582740746537183;2;64;36;1;
2019_03_22 13:22;52;2;1;control;60;64;1;48;39;34;19;0.46000000000000002;0.5;0.02;0.02;13;92;0;0;0.68999999999999995;0.31;0.0;0.0;0;22.51576924458459;2;64;36;1;
2019_03_22 13:22;52;2;1;control;61;143;0;88;44;56;73;0.95999999999999996;0.02;0.01;0.01;20;3;87;32;0.19;0.40000000000000002;0.28000000000000003;0.13;0;5.6665036331351075;2;64;36;1;
2019_03_22 13:22;52;2;1;control;62;51;1;52;23;43;16;0.60999999999999999;0.20999999999999999;0.01;0.17000000000000001;92;7;0;0;0.14999999999999999;0.84999999999999998;0.0;0.0;0;9.24958434467544;2;64;36;1;
2019_03_22 13:22;52;2;1;control;63;85;0;31;22;82;50;0.11;0.69999999999999996;0.01;0.17999999999999999;3;99;0;0;0.62;0.38;0.0;0.0;1;15.200010712104813;2;64;36;1;
2019_03_22 13:22;52;2;1;control;64;44;1;79;74;0;0;0.71999999999999997;0.28000000000000003;0.0;0.0;3;67;15;36;0.41999999999999998;0.53000000000000003;0.02;0.029999999999999999;0;6.882987253236934;2;64;36;1;
2019_03_22 13:22;52;2;1;control;65;104;1;55;85;93;3;0.87;0.02;0.089999999999999997;0.02;1;2;90;8;0.35999999999999999;0.070000000000000007;0.40000000000000002;0.17000000000000001;1;12.382804762588876;2;64;36;1;
2019_03_22 13:22;52;2;1;control;66;92;1;90;86;65;94;0.16;0.34000000000000002;0.28000000000000003;0.22;79;22;0;0;0.35999999999999999;0.64000000000000001;0.0;0.0;0;8.899616673423225;2;64;36;1;
2019_03_22 13:22;52;2;1;control;67;68;0;84;27;55;62;0.01;0.050000000000000003;0.40999999999999998;0.53000000000000003;9;82;0;0;0.37;0.63;0.0;0.0;1;20.61582318997489;2;64;36;1;
2019_03_22 13:22;52;2;1;control;68;34;0;32;48;0;0;0.28000000000000003;0.71999999999999997;0.0;0.0;97;83;7;62;0.040000000000000001;0.54000000000000004;0.35999999999999999;0.059999999999999901;1;14.016049876073339;2;64;36;1;
2019_03_22 13:22;52;2;1;control;69;10;0;45;62;0;0;0.059999999999999998;0.93999999999999995;0.0;0.0;17;99;28;67;0.58999999999999997;0.34000000000000002;0.01;0.059999999999999998;0;15.249337388966069;2;64;36;1;
2019_03_22 13:22;52;2;1;control;70;19;0;22;53;0;0;0.13;0.87;0.0;0.0;4;93;96;65;0.46999999999999997;0.059999999999999998;0.26000000000000001;0.20999999999999999;0;13.316220051007349;2;64;36;1;
2019_03_22 13:22;52;2;1;control;71;100;0;27;14;59;52;0.02;0.95999999999999996;0.01;0.01;17;98;0;0;0.48999999999999999;0.51000000000000001;0.0;0.0;1;13.749414682895804;2;64;36;1;
2019_03_22 13:22;52;2;1;control;72;134;1;57;48;50;55;0.02;0.62;0.17999999999999999;0.17999999999999999;80;96;15;18;0.23999999999999999;0.35999999999999999;0.33000000000000002;0.070000000000000007;1;14.615996700415053;2;64;36;1;
2019_03_22 13:22;52;2;1;control;73;88;0;77;13;12;7;0.12;0.19;0.66000000000000003;0.029999999999999898;94;2;0;0;0.40999999999999998;0.58999999999999997;0.0;0.0;1;9.749571836529412;2;64;36;1;
2019_03_22 13:22;52;2;1;control;74;150;1;25;21;78;38;0.84999999999999998;0.059999999999999998;0.050000000000000003;0.040000000000000001;31;43;64;95;0.059999999999999998;0.45000000000000001;0.13;0.35999999999999999;1;7.966212610263938;2;64;36;1;
2019_03_22 13:22;52;2;1;control;75;26;1;76;41;0;0;0.57999999999999996;0.41999999999999998;0.0;0.0;61;79;84;2;0.13;0.029999999999999999;0.67000000000000004;0.17000000000000001;0;13.382820157230526;2;64;36;1;
2019_03_22 13:22;52;3;1;timed;1;64;1;48;39;34;19;0.46000000000000002;0.5;0.02;0.02;13;92;0;0;0.68999999999999995;0.31;0.0;0.0;0;3.2714569232266513;2;64;36;1;
2019_03_22 13:22;52;3;1;timed;2;83;0;17;12;7;41;0.65000000000000002;0.19;0.089999999999999997;0.070000000000000007;6;84;0;0;0.72999999999999998;0.27000000000000002;0.0;0.0;1;4.883086356242529;2;64;36;1;
2019_03_22 13:22;52;3;1;timed;3;26;1;76;41;0;0;0.57999999999999996;0.41999999999999998;0.0;0.0;61;79;84;2;0.13;0.029999999999999999;0.67000000000000004;0.17000000000000001;0;4.916479899729893;2;64;36;1;
2019_03_22 13:22;52;3;1;timed;4;124;0;37;65;15;41;0.17999999999999999;0.45000000000000001;0.02;0.34999999999999998;40;7;98;30;0.070000000000000007;0.45000000000000001;0.45000000000000001;0.029999999999999898;1;5.69964925874865;2;64;36;1;
2019_03_22 13:22;52;3;1;timed;5;15;0;77;81;0;0;0.28000000000000003;0.71999999999999997;0.0;0.0;98;14;87;18;0.55000000000000004;0.23000000000000001;0.16;0.059999999999999901;1;4.383092129232864;2;64;36;1;
2019_03_22 13:22;52;3;1;timed;6;70;0;66;55;69;50;0.22;0.29999999999999999;0.29999999999999999;0.17999999999999999;2;90;0;0;0.34000000000000002;0.66000000000000003;0.0;0.0;0;3.883276544211185;2;64;36;1;
2019_03_22 13:22;52;3;1;timed;7;57;0;52;35;23;47;0.22;0.68000000000000005;0.040000000000000001;0.059999999999999998;71;7;0;0;0.28999999999999998;0.70999999999999996;0.0;0.0;0;5.849700830796792;2;64;36;1;
2019_03_22 13:22;52;3;1;timed;8;74;1;66;47;52;44;0.41999999999999998;0.26000000000000001;0.17999999999999999;0.14000000000000001;17;99;0;0;0.47999999999999998;0.52000000000000002;0.0;0.0;0;7.299817060341411;2;64;36;1;
2019_03_22 13:22;52;3;1;timed;9;93;1;87;81;73;98;0.80000000000000004;0.040000000000000001;0.14999999999999999;0.0099999999999999499;5;71;0;0;0.51000000000000001;0.48999999999999999;0.0;0.0;0;4.749880050084357;2;64;36;1;
2019_03_22 13:22;52;3;1;timed;10;1;0;22;51;0;0;0.26000000000000001;0.73999999999999999;0.0;0.0;14;11;92;31;0.29999999999999999;0.40999999999999998;0.14999999999999999;0.14000000000000001;0;6.849680946051194;2;64;36;1;
2019_03_22 13:22;52;3;1;timed;11;65;1;75;64;59;52;0.59999999999999998;0.22;0.14000000000000001;0.040000000000000001;1;99;0;0;0.35999999999999999;0.64000000000000001;0.0;0.0;1;4.883098222944682;2;64;36;1;
2019_03_22 13:22;52;3;1;timed;12;94;1;84;86;93;39;0.78000000000000003;0.20000000000000001;0.01;0.0099999999999999603;9;83;0;0;0.46999999999999997;0.53000000000000003;0.0;0.0;0;6.083018812251794;2;64;36;1;
2019_03_22 13:22;52;3;1;timed;13;96;1;51;54;39;7;0.17000000000000001;0.26000000000000001;0.10000000000000001;0.46999999999999997;24;96;0;0;0.28000000000000003;0.71999999999999997;0.0;0.0;1;4.916583172117498;2;64;36;1;
2019_03_22 13:22;52;3;1;timed;14;91;1;74;81;86;48;0.93000000000000005;0.02;0.01;0.039999999999999897;7;64;0;0;0.13;0.87;0.0;0.0;0;6.582975194100982;2;64;36;1;
2019_03_22 13:22;52;3;1;timed;15;12;1;53;68;0;0;0.31;0.68999999999999995;0.0;0.0;69;54;97;29;0.25;0.20999999999999999;0.20000000000000001;0.34000000000000002;1;6.433174747143312;2;64;36;1;
2019_03_22 13:22;52;3;1;timed;16;85;1;31;22;82;50;0.11;0.69999999999999996;0.01;0.17999999999999999;3;99;0;0;0.62;0.38;0.0;0.0;1;4.649789542419967;2;64;36;1;
2019_03_22 13:22;52;3;1;timed;17;132;1;27;70;21;19;0.64000000000000001;0.23000000000000001;0.029999999999999999;0.10000000000000001;11;85;55;6;0.39000000000000001;0.46999999999999997;0.029999999999999999;0.11;1;8.182991935773316;2;64;36;1;
2019_03_22 13:22;52;3;1;timed;18;121;0;42;51;47;70;0.41999999999999998;0.17000000000000001;0.23999999999999999;0.17000000000000001;21;76;48;9;0.14999999999999999;0.34000000000000002;0.40999999999999998;0.10000000000000001;0;5.899680497041118;2;64;36;1;
2019_03_22 13:22;52;3;1;timed;19;87;0;10;30;63;4;0.56999999999999995;0.12;0.16;0.14999999999999999;86;2;0;0;0.42999999999999999;0.56999999999999995;0.0;0.0;1;4.866348852842748;2;64;36;1;
2019_03_22 13:22;52;3;1;timed;20;149;0;14;89;73;53;0.93999999999999995;0.01;0.01;0.040000000000000001;97;45;6;13;0.34000000000000002;0.01;0.40999999999999998;0.23999999999999999;1;2.7331685251419913;2;64;36;1;
2019_03_22 13:22;52;3;1;timed;21;27;0;44;26;0;0;0.35999999999999999;0.64000000000000001;0.0;0.0;63;10;3;5;0.58999999999999997;0.19;0.14999999999999999;0.070000000000000007;1;3.233102135750414;2;64;36;1;
2019_03_22 13:22;52;3;1;timed;22;68;0;84;27;55;62;0.01;0.050000000000000003;0.40999999999999998;0.53000000000000003;9;82;0;0;0.37;0.63;0.0;0.0;1;5.249805001205459;2;64;36;1;
2019_03_22 13:22;52;3;1;timed;23;76;1;39;62;9;28;0.01;0.51000000000000001;0.26000000000000001;0.22;77;7;0;0;0.57999999999999996;0.41999999999999998;0.0;0.0;1;5.883068716549133;2;64;36;1;
2019_03_22 13:22;52;3;1;timed;24;125;1;37;41;10;35;0.91000000000000003;0.040000000000000001;0.029999999999999999;0.02;7;13;91;93;0.26000000000000001;0.39000000000000001;0.16;0.19;1;6.283112591277131;2;64;36;1;
2019_03_22 13:22;52;3;1;timed;25;133;0;59;88;60;36;0.67000000000000004;0.070000000000000007;0.12;0.14000000000000001;7;91;66;61;0.25;0.68999999999999995;0.01;0.0500000000000001;1;4.549920332729016;2;64;36;1;
2019_03_22 13:22;52;3;1;timed;26;48;1;13;32;0;0;0.90000000000000002;0.10000000000000001;0.0;0.0;24;99;84;94;0.62;0.14999999999999999;0.20000000000000001;0.029999999999999999;1;4.0831070107196865;2;64;36;1;
2019_03_22 13:22;52;3;1;timed;27;140;0;36;32;26;27;0.39000000000000001;0.14999999999999999;0.19;0.27000000000000002;44;3;99;25;0.29999999999999999;0.34000000000000002;0.34000000000000002;0.0199999999999999;1;5.899994483586852;2;64;36;1;
2019_03_22 13:22;52;3;1;timed;28;84;0;43;10;5;45;0.78000000000000003;0.13;0.059999999999999998;0.029999999999999999;87;1;0;0;0.57999999999999996;0.41999999999999998;0.0;0.0;1;5.816552960132867;2;64;36;1;
2019_03_22 13:22;52;3;1;timed;29;141;0;93;28;60;91;0.81999999999999995;0.10000000000000001;0.01;0.070000000000000007;14;85;7;89;0.45000000000000001;0.070000000000000007;0.23999999999999999;0.23999999999999999;0;4.4664746398939315;2;64;36;1;
2019_03_22 13:22;52;3;1;timed;30;56;1;28;84;37;41;0.68000000000000005;0.28000000000000003;0.02;0.0199999999999999;6;95;0;0;0.72999999999999998;0.27000000000000002;0.0;0.0;0;5.2499284790610545;2;64;36;1;
2019_03_22 13:22;52;3;1;timed;31;16;1;64;53;0;0;0.65000000000000002;0.34999999999999998;0.0;0.0;29;17;81;46;0.10000000000000001;0.01;0.44;0.45000000000000001;0;7.916329801973006;2;64;36;1;
2019_03_22 13:22;52;3;1;timed;32;77;0;24;17;99;41;0.17999999999999999;0.13;0.10000000000000001;0.58999999999999997;12;97;0;0;0.59999999999999998;0.40000000000000002;0.0;0.0;1;4.983080968117065;2;64;36;1;
2019_03_22 13:22;52;3;1;timed;33;72;1;63;82;51;61;0.01;0.96999999999999997;0.01;0.01;92;12;0;0;0.89000000000000001;0.11;0.0;0.0;0;7.5662748944187115;2;64;36;1;
2019_03_22 13:22;52;3;1;timed;34;45;1;97;87;0;0;0.71999999999999997;0.28000000000000003;0.0;0.0;96;11;14;4;0.25;0.029999999999999999;0.14000000000000001;0.57999999999999996;0;5.483174618854719;2;64;36;1;
2019_03_22 13:22;52;3;1;timed;35;62;0;12;45;16;50;0.20999999999999999;0.76000000000000001;0.02;0.01;92;15;0;0;0.20999999999999999;0.79000000000000004;0.0;0.0;1;8.01630837776429;2;64;36;1;
2019_03_22 13:22;52;3;1;timed;36;41;0;99;40;0;0;0.89000000000000001;0.11;0.0;0.0;1;67;52;46;0.51000000000000001;0.38;0.029999999999999999;0.080000000000000002;0;4.4831018150280215;2;64;36;1;
2019_03_22 13:22;52;3;1;timed;37;67;1;44;42;8;89;0.88;0.070000000000000007;0.029999999999999999;0.02;10;63;0;0;0.39000000000000001;0.60999999999999999;0.0;0.0;0;7.84959370974957;2;64;36;1;
2019_03_22 13:22;52;3;1;timed;38;31;1;10;59;0;0;0.23999999999999999;0.76000000000000001;0.0;0.0;1;79;53;73;0.23000000000000001;0.58999999999999997;0.050000000000000003;0.13;1;5.216408891944411;2;64;36;1;
2019_03_22 13:22;52;3;1;timed;39;131;0;83;41;81;88;0.23999999999999999;0.58999999999999997;0.10000000000000001;0.070000000000000007;82;97;4;17;0.26000000000000001;0.46999999999999997;0.11;0.16;1;5.899813275826091;2;64;36;1;
2019_03_22 13:22;52;3;1;timed;40;119;0;60;58;11;18;0.25;0.72999999999999998;0.01;0.01;96;23;42;85;0.44;0.48999999999999999;0.059999999999999998;0.010000000000000101;1;5.299738804246772;2;64;36;1;
2019_03_22 13:22;52;3;1;timed;41;129;1;12;29;81;36;0.17999999999999999;0.79000000000000004;0.01;0.02;5;19;95;92;0.47999999999999998;0.26000000000000001;0.13;0.13;1;6.5663605271120105;2;64;36;1;
2019_03_22 13:22;52;3;1;timed;42;80;0;47;39;45;10;0.13;0.76000000000000001;0.059999999999999998;0.050000000000000003;2;87;0;0;0.48999999999999999;0.51000000000000001;0.0;0.0;1;6.049660868873616;2;64;36;1;
2019_03_22 13:22;52;3;1;timed;43;66;1;89;23;27;15;0.070000000000000007;0.54000000000000004;0.17000000000000001;0.22;9;73;0;0;0.72999999999999998;0.27000000000000002;0.0;0.0;0;8.382937862094877;2;64;36;1;
2019_03_22 13:22;52;3;1;timed;44;19;1;22;53;0;0;0.13;0.87;0.0;0.0;4;93;96;65;0.46999999999999997;0.059999999999999998;0.26000000000000001;0.20999999999999999;1;6.516324093126968;2;64;36;1;
2019_03_22 13:22;52;3;1;timed;45;114;1;57;39;79;97;0.77000000000000002;0.02;0.13;0.080000000000000002;92;36;6;1;0.54000000000000004;0.12;0.13;0.20999999999999999;0;7.033136645405648;2;64;36;1;
2019_03_22 13:22;52;3;1;timed;46;105;0;49;74;63;58;0.84999999999999998;0.080000000000000002;0.02;0.050000000000000003;97;5;86;8;0.25;0.52000000000000002;0.070000000000000007;0.16;1;6.6329728207601875;2;64;36;1;
2019_03_22 13:22;52;3;1;timed;47;89;1;26;41;13;56;0.059999999999999998;0.40999999999999998;0.050000000000000003;0.47999999999999998;5;97;0;0;0.37;0.63;0.0;0.0;1;5.583058902464472;2;64;36;1;
2019_03_22 13:22;52;3;1;timed;48;144;0;99;93;90;71;0.65000000000000002;0.32000000000000001;0.01;0.02;97;14;48;73;0.23000000000000001;0.46000000000000002;0.13;0.17999999999999999;0;3.0999525973329582;2;64;36;1;
2019_03_22 13:22;52;3;1;timed;49;136;0;29;67;14;75;0.46000000000000002;0.29999999999999999;0.20999999999999999;0.0300000000000001;70;86;1;85;0.31;0.39000000000000001;0.27000000000000002;0.029999999999999898;1;5.499703011705606;2;64;36;1;
2019_03_22 13:22;52;3;1;timed;50;139;1;44;31;16;8;0.79000000000000004;0.070000000000000007;0.13;0.0099999999999999499;92;58;2;88;0.55000000000000004;0.070000000000000007;0.34000000000000002;0.039999999999999897;1;4.999769401096273;2;64;36;1;
2019_03_22 13:22;52;3;1;timed;51;145;1;91;89;90;74;0.57999999999999996;0.29999999999999999;0.11;0.010000000000000101;2;75;84;39;0.32000000000000001;0.27000000000000002;0.39000000000000001;0.0199999999999999;0;4.533088537149524;2;64;36;1;
2019_03_22 13:22;52;3;1;timed;52;5;1;70;5;0;0;0.98999999999999999;0.01;0.0;0.0;92;87;47;1;0.44;0.02;0.16;0.38;0;5.716411457719005;2;64;36;1;
2019_03_22 13:22;52;3;1;timed;53;92;1;90;86;65;94;0.16;0.34000000000000002;0.28000000000000003;0.22;79;22;0;0;0.35999999999999999;0.64000000000000001;0.0;0.0;0;4.46644481277508;2;64;36;1;
2019_03_22 13:22;52;3;1;timed;54;9;0;61;69;0;0;0.93999999999999995;0.060000000000000102;0.0;0.0;18;93;72;16;0.40999999999999998;0.34999999999999998;0.089999999999999997;0.14999999999999999;0;7.299686205888065;2;64;36;1;
2019_03_22 13:22;52;3;1;timed;55;78;1;74;36;34;3;0.14999999999999999;0.64000000000000001;0.13;0.080000000000000002;1;83;0;0;0.41999999999999998;0.57999999999999996;0.0;0.0;1;8.417274327382984;2;64;36;1;
2019_03_22 13:22;52;3;1;timed;56;29;1;44;51;0;0;0.78000000000000003;0.22;0.0;0.0;74;1;68;82;0.69999999999999996;0.28000000000000003;0.01;0.01;1;4.416560400876733;2;64;36;1;
2019_03_22 13:22;52;3;1;timed;57;51;1;52;23;43;16;0.60999999999999999;0.20999999999999999;0.01;0.17000000000000001;92;7;0;0;0.14999999999999999;0.84999999999999998;0.0;0.0;0;3.383160442955159;2;64;36;1;
2019_03_22 13:22;52;3;1;timed;58;52;1;71;51;10;54;0.22;0.12;0.19;0.46999999999999997;91;1;0;0;0.29999999999999999;0.69999999999999996;0.0;0.0;0;5.783083084881582;2;64;36;1;
2019_03_22 13:22;52;3;1;timed;59;120;1;64;40;48;51;0.19;0.02;0.070000000000000007;0.71999999999999997;97;9;79;94;0.23000000000000001;0.54000000000000004;0.01;0.22;0;9.16639811569621;2;64;36;1;
2019_03_22 13:22;52;3;1;timed;60;23;0;54;40;0;0;0.93000000000000005;0.070000000000000007;0.0;0.0;36;23;71;86;0.02;0.41999999999999998;0.19;0.37;1;6.283026958582923;2;64;36;1;
2019_03_22 13:22;52;3;1;timed;61;38;0;40;70;0;0;0.53000000000000003;0.46999999999999997;0.0;0.0;97;90;6;96;0.56999999999999995;0.070000000000000007;0.27000000000000002;0.089999999999999997;0;7.116340514078729;2;64;36;1;
2019_03_22 13:22;52;3;1;timed;62;103;0;38;49;89;50;0.89000000000000001;0.070000000000000007;0.01;0.029999999999999999;6;64;99;27;0.70999999999999996;0.17999999999999999;0.059999999999999998;0.050000000000000003;0;7.516435704279502;2;64;36;1;
2019_03_22 13:22;52;3;1;timed;63;106;1;85;69;22;61;0.10000000000000001;0.58999999999999997;0.17999999999999999;0.13;20;79;91;84;0.55000000000000004;0.14999999999999999;0.26000000000000001;0.039999999999999897;0;5.766347185090126;2;64;36;1;
2019_03_22 13:22;52;3;1;timed;64;17;0;81;52;0;0;0.059999999999999998;0.93999999999999995;0.0;0.0;34;3;69;41;0.01;0.22;0.75;0.02;1;8.316420502070287;2;64;36;1;
2019_03_22 13:22;52;3;1;timed;65;30;1;33;30;0;0;0.71999999999999997;0.28000000000000003;0.0;0.0;9;88;1;14;0.55000000000000004;0.39000000000000001;0.01;0.049999999999999899;1;6.983015220169364;2;64;36;1;
2019_03_22 13:22;52;3;1;timed;66;88;0;77;13;12;7;0.12;0.19;0.66000000000000003;0.029999999999999898;94;2;0;0;0.40999999999999998;0.58999999999999997;0.0;0.0;1;5.783032731574167;2;64;36;1;
2019_03_22 13:22;52;3;1;timed;67;33;0;27;70;0;0;0.88;0.12;0.0;0.0;93;3;77;16;0.080000000000000002;0.40000000000000002;0.5;0.02;1;6.349849645666836;2;64;36;1;
2019_03_22 13:22;52;3;1;timed;68;43;1;60;83;0;0;0.23000000000000001;0.77000000000000002;0.0;0.0;72;5;70;12;0.29999999999999999;0.40999999999999998;0.12;0.17000000000000001;0;6.0163763707651015;2;64;36;1;
2019_03_22 13:22;52;3;1;timed;69;42;0;70;48;0;0;0.79000000000000004;0.20999999999999999;0.0;0.0;51;8;12;67;0.19;0.26000000000000001;0.28999999999999998;0.26000000000000001;0;7.54984560457342;2;64;36;1;
2019_03_22 13:22;52;3;1;timed;70;28;0;47;30;0;0;0.97999999999999998;0.02;0.0;0.0;55;48;77;13;0.070000000000000007;0.26000000000000001;0.42999999999999999;0.23999999999999999;1;6.316583428694685;2;64;36;1;
2019_03_22 13:22;52;3;1;timed;71;142;1;98;65;64;84;0.88;0.070000000000000007;0.01;0.040000000000000001;5;68;60;16;0.46000000000000002;0.080000000000000002;0.27000000000000002;0.19;0;6.966499014743022;2;64;36;1;
2019_03_22 13:22;52;3;1;timed;72;35;0;33;37;0;0;0.88;0.12;0.0;0.0;63;4;79;98;0.16;0.46000000000000002;0.17000000000000001;0.20999999999999999;1;6.316432368773349;2;64;36;1;
2019_03_22 13:22;52;3;1;timed;73;4;1;40;43;0;0;0.58999999999999997;0.40999999999999998;0.0;0.0;2;33;88;81;0.69999999999999996;0.14000000000000001;0.13;0.029999999999999999;0;6.083073976384185;2;64;36;1;
2019_03_22 13:22;52;3;1;timed;74;130;1;37;79;23;95;0.94999999999999996;0.029999999999999999;0.01;0.01;94;4;58;49;0.46000000000000002;0.5;0.029999999999999999;0.01;1;8.399536492998777;2;64;36;1;
2019_03_22 13:22;52;3;1;timed;75;113;1;85;65;39;64;0.44;0.34000000000000002;0.13;0.089999999999999997;87;2;4;35;0.67000000000000004;0.17000000000000001;0.11;0.049999999999999899;NA;9.432920735555854;2;64;36;1;
2019_03_22 13:22;52;4;1;control;1;55;0;74;55;47;48;0.60999999999999999;0.31;0.070000000000000007;0.01;97;6;0;0;0.42999999999999999;0.56999999999999995;0.0;0.0;0;11.157599757278149;2;64;36;1;
2019_03_22 13:22;52;4;1;control;2;18;1;68;50;0;0;0.029999999999999999;0.96999999999999997;0.0;0.0;34;64;15;89;0.65000000000000002;0.029999999999999999;0.050000000000000003;0.27000000000000002;1;6.199682934527118;2;64;36;1;
2019_03_22 13:22;52;4;1;control;3;80;0;47;39;45;10;0.13;0.76000000000000001;0.059999999999999998;0.050000000000000003;2;87;0;0;0.48999999999999999;0.51000000000000001;0.0;0.0;1;6.716358538638815;2;64;36;1;
2019_03_22 13:22;52;4;1;control;4;4;1;40;43;0;0;0.58999999999999997;0.40999999999999998;0.0;0.0;2;33;88;81;0.69999999999999996;0.14000000000000001;0.13;0.029999999999999999;0;5.349717187604256;2;64;36;1;
2019_03_22 13:22;52;4;1;control;5;128;0;70;49;27;54;0.27000000000000002;0.53000000000000003;0.02;0.17999999999999999;72;97;6;20;0.29999999999999999;0.39000000000000001;0.22;0.0899999999999999;1;5.266435704279502;2;64;36;1;
2019_03_22 13:22;52;4;1;control;6;59;0;56;47;83;90;0.31;0.12;0.54000000000000004;0.029999999999999898;10;98;0;0;0.46999999999999997;0.53000000000000003;0.0;0.0;0;12.916270789180999;2;64;36;1;
2019_03_22 13:22;52;4;1;control;7;42;1;70;48;0;0;0.79000000000000004;0.20999999999999999;0.0;0.0;51;8;12;67;0.19;0.26000000000000001;0.28999999999999998;0.26000000000000001;0;12.149612504041215;2;64;36;1;
2019_03_22 13:22;52;4;1;control;8;15;1;77;81;0;0;0.28000000000000003;0.71999999999999997;0.0;0.0;98;14;87;18;0.55000000000000004;0.23000000000000001;0.16;0.059999999999999901;0;9.249584665397379;2;64;36;1;
2019_03_22 13:22;52;4;1;control;9;127;1;89;26;62;79;0.02;0.28999999999999998;0.53000000000000003;0.16;96;6;60;13;0.53000000000000003;0.25;0.17000000000000001;0.050000000000000003;1;12.916156932977174;2;64;36;1;
2019_03_22 13:22;52;4;1;control;10;98;0;27;10;31;79;0.23000000000000001;0.67000000000000004;0.070000000000000007;0.029999999999999999;25;99;0;0;0.38;0.62;0.0;0.0;1;7.6662550738174104;2;64;36;1;
2019_03_22 13:22;52;4;1;control;11;101;1;30;96;61;45;0.65000000000000002;0.14000000000000001;0.11;0.10000000000000001;3;98;63;89;0.75;0.19;0.040000000000000001;0.02;0;9.616147118893423;2;64;36;1;
2019_03_22 13:22;52;4;1;control;12;65;0;75;64;59;52;0.59999999999999998;0.22;0.14000000000000001;0.040000000000000001;1;99;0;0;0.35999999999999999;0.64000000000000001;0.0;0.0;0;15.83265928322544;2;64;36;1;
2019_03_22 13:22;52;4;1;control;13;132;0;27;70;21;19;0.64000000000000001;0.23000000000000001;0.029999999999999999;0.10000000000000001;11;85;55;6;0.39000000000000001;0.46999999999999997;0.029999999999999999;0.11;1;5.833219263315186;2;64;36;1;
2019_03_22 13:22;52;4;1;control;14;122;1;35;58;25;31;0.81999999999999995;0.070000000000000007;0.080000000000000002;0.029999999999999999;18;64;68;89;0.63;0.17000000000000001;0.11;0.089999999999999997;0;10.81630760803182;2;64;36;1;
2019_03_22 13:22;52;4;1;control;15;119;0;60;58;11;18;0.25;0.72999999999999998;0.01;0.01;96;23;42;85;0.44;0.48999999999999999;0.059999999999999998;0.010000000000000101;0;11.299756443940169;2;64;36;1;
2019_03_22 13:22;52;4;1;control;16;83;1;17;12;7;41;0.65000000000000002;0.19;0.089999999999999997;0.070000000000000007;6;84;0;0;0.72999999999999998;0.27000000000000002;0.0;0.0;1;10.749549065288193;2;64;36;1;
2019_03_22 13:22;52;4;1;control;17;123;1;26;24;51;92;0.72999999999999998;0.16;0.070000000000000007;0.040000000000000001;6;90;82;49;0.64000000000000001;0.25;0.050000000000000003;0.059999999999999998;0;10.63303247499698;2;64;36;1;
2019_03_22 13:22;52;4;1;control;18;121;0;42;51;47;70;0.41999999999999998;0.17000000000000001;0.23999999999999999;0.17000000000000001;21;76;48;9;0.14999999999999999;0.34000000000000002;0.40999999999999998;0.10000000000000001;0;12.11610446290706;2;64;36;1;
2019_03_22 13:22;52;4;1;control;19;81;0;67;38;52;65;0.27000000000000002;0.35999999999999999;0.01;0.35999999999999999;2;77;0;0;0.14000000000000001;0.85999999999999999;0.0;0.0;1;11.982961018201422;2;64;36;1;
2019_03_22 13:22;52;4;1;control;20;35;0;33;37;0;0;0.88;0.12;0.0;0.0;63;4;79;98;0.16;0.46000000000000002;0.17000000000000001;0.20999999999999999;1;17.266613704823612;2;64;36;1;
2019_03_22 13:22;52;4;1;control;21;33;0;27;70;0;0;0.88;0.12;0.0;0.0;93;3;77;16;0.080000000000000002;0.40000000000000002;0.5;0.02;1;5.983055631103525;2;64;36;1;
2019_03_22 13:22;52;4;1;control;22;22;0;32;55;0;0;0.39000000000000001;0.60999999999999999;0.0;0.0;93;72;59;22;0.20000000000000001;0.11;0.14000000000000001;0.55000000000000004;1;7.116496064102648;2;64;36;1;
2019_03_22 13:22;52;4;1;control;23;114;0;57;39;79;97;0.77000000000000002;0.02;0.13;0.080000000000000002;92;36;6;1;0.54000000000000004;0.12;0.13;0.20999999999999999;1;4.649911095943935;2;64;36;1;
2019_03_22 13:22;52;4;1;control;24;116;1;53;65;43;99;0.56999999999999995;0.37;0.050000000000000003;0.010000000000000101;57;72;11;87;0.67000000000000004;0.13;0.14999999999999999;0.050000000000000003;1;23.7658372375854;2;64;36;1;
2019_03_22 13:22;52;4;1;control;25;29;0;44;51;0;0;0.78000000000000003;0.22;0.0;0.0;74;1;68;82;0.69999999999999996;0.28000000000000003;0.01;0.01;1;6.099739317401145;2;64;36;1;
2019_03_22 13:22;52;4;1;control;26;17;0;81;52;0;0;0.059999999999999998;0.93999999999999995;0.0;0.0;34;3;69;41;0.01;0.22;0.75;0.02;1;6.249762986662972;2;64;36;1;
2019_03_22 13:22;52;4;1;control;27;147;1;39;43;76;28;0.14000000000000001;0.10000000000000001;0.10000000000000001;0.66000000000000003;6;31;68;85;0.27000000000000002;0.20000000000000001;0.22;0.31;1;9.583032603284664;2;64;36;1;
2019_03_22 13:22;52;4;1;control;28;118;1;62;52;65;68;0.40999999999999998;0.44;0.10000000000000001;0.0500000000000001;79;20;14;37;0.56999999999999995;0.23999999999999999;0.14000000000000001;0.050000000000000003;0;21.132437536241014;2;64;36;1;
2019_03_22 13:22;52;4;1;control;29;139;1;44;31;16;8;0.79000000000000004;0.070000000000000007;0.13;0.0099999999999999499;92;58;2;88;0.55000000000000004;0.070000000000000007;0.34000000000000002;0.039999999999999897;1;6.916343913728269;2;64;36;1;
2019_03_22 13:22;52;4;1;control;30;70;1;66;55;69;50;0.22;0.29999999999999999;0.29999999999999999;0.17999999999999999;2;90;0;0;0.34000000000000002;0.66000000000000003;0.0;0.0;0;17.682732151196433;2;64;36;1;
2019_03_22 13:22;52;4;1;control;31;38;0;40;70;0;0;0.53000000000000003;0.46999999999999997;0.0;0.0;97;90;6;96;0.56999999999999995;0.070000000000000007;0.27000000000000002;0.089999999999999997;1;15.316165849039862;2;64;36;1;
2019_03_22 13:22;52;4;1;control;32;56;1;28;84;37;41;0.68000000000000005;0.28000000000000003;0.02;0.0199999999999999;6;95;0;0;0.72999999999999998;0.27000000000000002;0.0;0.0;0;9.549599290307015;2;64;36;1;
2019_03_22 13:22;52;4;1;control;33;142;0;98;65;64;84;0.88;0.070000000000000007;0.01;0.040000000000000001;5;68;60;16;0.46000000000000002;0.080000000000000002;0.27000000000000002;0.19;0;5.44975092752702;2;64;36;1;
2019_03_22 13:22;52;4;1;control;34;49;0;21;30;0;0;0.53000000000000003;0.46999999999999997;0.0;0.0;93;99;89;25;0.44;0.02;0.11;0.42999999999999999;1;8.449643165035013;2;64;36;1;
2019_03_22 13:22;52;4;1;control;35;69;0;54;34;64;49;0.34000000000000002;0.25;0.20999999999999999;0.20000000000000001;14;98;0;0;0.62;0.38;0.0;0.0;0;22.215680853683807;2;64;36;1;
2019_03_22 13:22;52;4;1;control;36;48;0;13;32;0;0;0.90000000000000002;0.10000000000000001;0.0;0.0;24;99;84;94;0.62;0.14999999999999999;0.20000000000000001;0.029999999999999999;1;3.666490804267596;2;64;36;1;
2019_03_22 13:22;52;4;1;control;37;75;1;67;80;36;81;0.81999999999999995;0.080000000000000002;0.059999999999999998;0.040000000000000001;3;97;0;0;0.32000000000000001;0.68000000000000005;0.0;0.0;0;10.816193751827996;2;64;36;1;
2019_03_22 13:22;52;4;1;control;38;91;1;74;81;86;48;0.93000000000000005;0.02;0.01;0.039999999999999897;7;64;0;0;0.13;0.87;0.0;0.0;0;5.1332268323476455;2;64;36;1;
2019_03_22 13:22;52;4;1;control;39;93;0;87;81;73;98;0.80000000000000004;0.040000000000000001;0.14999999999999999;0.0099999999999999499;5;71;0;0;0.51000000000000001;0.48999999999999999;0.0;0.0;0;4.4164362815781715;2;64;36;1;
2019_03_22 13:22;52;4;1;control;40;31;0;10;59;0;0;0.23999999999999999;0.76000000000000001;0.0;0.0;1;79;53;73;0.23000000000000001;0.58999999999999997;0.050000000000000003;0.13;1;3.549785629615144;2;64;36;1;
2019_03_22 13:22;52;4;1;control;41;77;1;24;17;99;41;0.17999999999999999;0.13;0.10000000000000001;0.58999999999999997;12;97;0;0;0.59999999999999998;0.40000000000000002;0.0;0.0;1;6.949639957818363;2;64;36;1;
2019_03_22 13:22;52;4;1;control;42;1;1;22;51;0;0;0.26000000000000001;0.73999999999999999;0.0;0.0;14;11;92;31;0.29999999999999999;0.40999999999999998;0.14999999999999999;0.14000000000000001;0;7.366302668917342;2;64;36;1;
2019_03_22 13:22;52;4;1;control;43;108;0;48;72;39;70;0.14000000000000001;0.66000000000000003;0.02;0.17999999999999999;81;44;98;8;0.59999999999999998;0.029999999999999999;0.050000000000000003;0.32000000000000001;0;12.016238139712186;2;64;36;1;
2019_03_22 13:22;52;4;1;control;44;99;0;8;24;15;73;0.56000000000000005;0.35999999999999999;0.070000000000000007;0.0099999999999999499;88;12;0;0;0.52000000000000002;0.47999999999999998;0.0;0.0;1;9.449769529385776;2;64;36;1;
2019_03_22 13:22;52;4;1;control;45;6;1;9;51;0;0;0.14999999999999999;0.84999999999999998;0.0;0.0;6;40;50;73;0.42999999999999999;0.26000000000000001;0.059999999999999998;0.25;0;7.4830020705794595;2;64;36;1;
2019_03_22 13:22;52;4;1;control;46;40;1;45;49;0;0;0.68999999999999995;0.31;0.0;0.0;2;92;65;73;0.23999999999999999;0.59999999999999998;0.11;0.050000000000000003;1;9.049598328142565;2;64;36;1;
2019_03_22 13:22;52;4;1;control;47;73;1;65;68;70;47;0.25;0.23000000000000001;0.20999999999999999;0.31;27;95;0;0;0.45000000000000001;0.55000000000000004;0.0;0.0;0;13.732811241167838;2;64;36;1;
2019_03_22 13:22;52;4;1;control;48;109;1;75;28;16;56;0.19;0.070000000000000007;0.059999999999999998;0.68000000000000005;3;50;98;44;0.5;0.02;0.34999999999999998;0.13;0;7.399531361450499;2;64;36;1;
2019_03_22 13:22;52;4;1;control;49;89;1;26;41;13;56;0.059999999999999998;0.40999999999999998;0.050000000000000003;0.47999999999999998;5;97;0;0;0.37;0.63;0.0;0.0;1;15.849459006635698;2;64;36;1;
2019_03_22 13:22;52;4;1;control;50;79;1;52;46;29;22;0.17999999999999999;0.51000000000000001;0.23999999999999999;0.070000000000000104;93;14;0;0;0.45000000000000001;0.55000000000000004;0.0;0.0;1;9.41622107731746;2;64;36;1;
2019_03_22 13:22;52;4;1;control;51;95;1;93;88;68;85;0.83999999999999997;0.14000000000000001;0.01;0.01;2;82;0;0;0.41999999999999998;0.57999999999999996;0.0;0.0;0;13.032730291010012;2;64;36;1;
2019_03_22 13:22;52;4;1;control;52;146;1;25;5;64;35;0.94999999999999996;0.02;0.01;0.02;47;97;12;79;0.20999999999999999;0.029999999999999999;0.02;0.73999999999999999;1;6.299726296099834;2;64;36;1;
2019_03_22 13:22;52;4;1;control;53;30;1;33;30;0;0;0.71999999999999997;0.28000000000000003;0.0;0.0;9;88;1;14;0.55000000000000004;0.39000000000000001;0.01;0.049999999999999899;1;8.716268736561688;2;64;36;1;
2019_03_22 13:22;52;4;1;control;54;5;0;70;5;0;0;0.98999999999999999;0.01;0.0;0.0;92;87;47;1;0.44;0.02;0.16;0.38;0;11.616174700959164;2;64;36;1;
2019_03_22 13:22;52;4;1;control;55;13;1;52;56;0;0;0.46999999999999997;0.53000000000000003;0.0;0.0;94;71;27;2;0.089999999999999997;0.31;0.57999999999999996;0.020000000000000101;0;19.5825281080497;2;64;36;1;
2019_03_22 13:22;52;4;1;control;56;11;1;17;36;0;0;0.14000000000000001;0.85999999999999999;0.0;0.0;19;41;34;95;0.88;0.02;0.050000000000000003;0.050000000000000003;0;15.132648250399143;2;64;36;1;
2019_03_22 13:22;52;4;1;control;57;9;1;61;69;0;0;0.93999999999999995;0.060000000000000102;0.0;0.0;18;93;72;16;0.40999999999999998;0.34999999999999998;0.089999999999999997;0.14999999999999999;0;12.866684648462979;2;64;36;1;
2019_03_22 13:22;52;4;1;control;58;97;1;17;33;32;74;0.94999999999999996;0.01;0.029999999999999999;0.01;76;23;0;0;0.33000000000000002;0.67000000000000004;0.0;0.0;1;14.216060588178152;2;64;36;1;
2019_03_22 13:22;52;4;1;control;59;136;0;29;67;14;75;0.46000000000000002;0.29999999999999999;0.20999999999999999;0.0300000000000001;70;86;1;85;0.31;0.39000000000000001;0.27000000000000002;0.029999999999999898;1;8.28309976240962;2;64;36;1;
2019_03_22 13:22;52;4;1;control;60;24;0;35;27;0;0;0.070000000000000007;0.93000000000000005;0.0;0.0;62;3;81;95;0.35999999999999999;0.55000000000000004;0.01;0.080000000000000002;1;7.866256164271363;2;64;36;1;
2019_03_22 13:22;52;4;1;control;61;131;0;83;41;81;88;0.23999999999999999;0.58999999999999997;0.10000000000000001;0.070000000000000007;82;97;4;17;0.26000000000000001;0.46999999999999997;0.11;0.16;1;13.766047951742621;2;64;36;1;
2019_03_22 13:22;52;4;1;control;62;43;0;60;83;0;0;0.23000000000000001;0.77000000000000002;0.0;0.0;72;5;70;12;0.29999999999999999;0.40999999999999998;0.12;0.17000000000000001;0;9.232880517054582;2;64;36;1;
2019_03_22 13:22;52;4;1;control;63;82;1;78;66;30;27;0.28999999999999998;0.58999999999999997;0.080000000000000002;0.040000000000000001;90;6;0;0;0.82999999999999996;0.17000000000000001;0.0;0.0;1;10.632841966305932;2;64;36;1;
2019_03_22 13:22;52;4;1;control;64;90;1;27;44;50;72;0.68000000000000005;0.28999999999999998;0.02;0.0099999999999999707;6;96;0;0;0.46999999999999997;0.53000000000000003;0.0;0.0;1;9.582877373982228;2;64;36;1;
2019_03_22 13:22;52;4;1;control;65;94;1;84;86;93;39;0.78000000000000003;0.20000000000000001;0.01;0.0099999999999999603;9;83;0;0;0.46999999999999997;0.53000000000000003;0.0;0.0;0;8.216446416383405;2;64;36;1;
2019_03_22 13:22;52;4;1;control;66;20;0;44;40;0;0;0.91000000000000003;0.089999999999999997;0.0;0.0;29;5;80;99;0.25;0.40000000000000002;0.26000000000000001;0.089999999999999997;0;5.5165412217183984;2;64;36;1;
2019_03_22 13:22;52;4;1;control;67;47;1;2;40;0;0;0.45000000000000001;0.55000000000000004;0.0;0.0;93;89;11;56;0.58999999999999997;0.070000000000000007;0.28000000000000003;0.059999999999999998;1;5.483078402343381;2;64;36;1;
2019_03_22 13:22;52;4;1;control;68;14;0;36;40;0;0;0.54000000000000004;0.46000000000000002;0.0;0.0;99;70;1;11;0.16;0.089999999999999997;0.080000000000000002;0.67000000000000004;0;17.966035571885186;2;64;36;1;
2019_03_22 13:22;52;4;1;control;69;21;1;64;28;0;0;0.080000000000000002;0.92000000000000004;0.0;0.0;50;1;88;13;0.57999999999999996;0.13;0.02;0.27000000000000002;1;12.749445472180014;2;64;36;1;
2019_03_22 13:22;52;4;1;control;70;96;0;51;54;39;7;0.17000000000000001;0.26000000000000001;0.10000000000000001;0.46999999999999997;24;96;0;0;0.28000000000000003;0.71999999999999997;0.0;0.0;1;5.5998701718554;2;64;36;1;
2019_03_22 13:22;52;4;1;control;71;60;1;64;59;57;96;0.83999999999999997;0.13;0.02;0.01;83;6;0;0;0.54000000000000004;0.46000000000000002;0.0;0.0;0;5.533172245513924;2;64;36;1;
2019_03_22 13:22;52;4;1;control;72;87;1;10;30;63;4;0.56999999999999995;0.12;0.16;0.14999999999999999;86;2;0;0;0.42999999999999999;0.56999999999999995;0.0;0.0;1;9.016295869618261;2;64;36;1;
2019_03_22 13:22;52;4;1;control;73;66;0;89;23;27;15;0.070000000000000007;0.54000000000000004;0.17000000000000001;0.22;9;73;0;0;0.72999999999999998;0.27000000000000002;0.0;0.0;0;5.583216376820019;2;64;36;1;
2019_03_22 13:22;52;4;1;control;74;103;1;38;49;89;50;0.89000000000000001;0.070000000000000007;0.01;0.029999999999999999;6;64;99;27;0.70999999999999996;0.17999999999999999;0.059999999999999998;0.050000000000000003;0;13.782722272967476;2;64;36;1;
2019_03_22 13:22;52;4;1;control;75;130;0;37;79;23;95;0.94999999999999996;0.029999999999999999;0.01;0.01;94;4;58;49;0.46000000000000002;0.5;0.029999999999999999;0.01;1;15.066052634279913;2;64;36;1;
