date;id;block;order;cond;trial;gameid;leftright;oa1;oa2;oa3;oa4;pa1;pa2;pa3;pa4;ob1;ob2;ob3;ob4;pb1;pb2;pb3;pb4;choice;rt;paytrial;payout;alter;geschlecht;comment
2019_02_28 12:06;14;0;1;practice;1;64;1;44;60;96;45;0.53000000000000003;0.10000000000000001;0.029999999999999999;0.34000000000000002;88;20;43;31;0.47999999999999998;0.38;0.050000000000000003;0.089999999999999997;1;7.210840877266378;72;84;24;2; nein
2019_02_28 12:06;14;0;1;practice;2;4;1;40;59;0;0;0.19;0.81000000000000005;0.0;0.0;10;88;13;45;0.56000000000000005;0.28999999999999998;0.01;0.14000000000000001;0;6.9830562182044105;72;84;24;2; nein
2019_02_28 12:06;14;0;1;practice;3;57;1;39;68;59;91;0.73999999999999999;0.040000000000000001;0.14999999999999999;0.070000000000000007;9;22;40;84;0.29999999999999999;0.32000000000000001;0.040000000000000001;0.34000000000000002;0;10.59956259834155;72;84;24;2; nein
2019_02_28 12:06;14;0;1;practice;4;67;0;74;31;10;77;0.11;0.070000000000000007;0.77000000000000002;0.050000000000000003;2;23;8;97;0.56999999999999995;0.01;0.059999999999999998;0.35999999999999999;0;16.082813815965437;72;84;24;2; nein
2019_02_28 12:06;14;0;1;practice;5;6;1;42;59;0;0;0.35999999999999999;0.64000000000000001;0.0;0.0;77;19;6;7;0.44;0.14999999999999999;0.17999999999999999;0.23000000000000001;0;15.749574882022102;72;84;24;2; nein
2019_02_28 12:06;14;0;1;practice;6;56;1;47;52;64;10;0.77000000000000002;0.040000000000000001;0.11;0.080000000000000002;1;5;12;99;0.14000000000000001;0.28999999999999998;0.27000000000000002;0.29999999999999999;1;6.816371163434496;72;84;24;2; nein
2019_02_28 12:06;14;0;1;practice;7;11;1;10;44;0;0;0.48999999999999999;0.51000000000000001;0.0;0.0;88;12;54;50;0.17000000000000001;0.75;0.02;0.059999999999999998;0;10.682692326195479;72;84;24;2; nein
2019_02_28 12:06;14;0;1;practice;8;34;1;57;23;66;79;0.56000000000000005;0.23000000000000001;0.13;0.079999999999999905;85;9;0;0;0.56000000000000005;0.44;0.0;0.0;1;2.749976426879357;72;84;24;2; nein
2019_02_28 12:06;14;0;1;practice;9;18;0;47;36;0;0;0.089999999999999997;0.91000000000000003;0.0;0.0;2;44;81;9;0.20000000000000001;0.25;0.51000000000000001;0.040000000000000001;0;7.949688546157404;72;84;24;2; nein
2019_02_28 12:06;14;0;1;practice;10;58;0;44;50;85;42;0.38;0.57999999999999996;0.02;0.02;37;88;19;12;0.20000000000000001;0.29999999999999999;0.46000000000000002;0.040000000000000001;1;9.332949962764133;72;84;24;2; nein
2019_02_28 12:06;14;0;1;practice;11;7;1;13;31;0;0;0.51000000000000001;0.48999999999999999;0.0;0.0;8;79;42;18;0.85999999999999999;0.089999999999999997;0.02;0.029999999999999999;0;8.216324594494154;72;84;24;2; nein
2019_02_28 12:06;14;0;1;practice;12;61;1;51;48;56;88;0.91000000000000003;0.02;0.01;0.059999999999999998;78;21;14;82;0.55000000000000004;0.29999999999999999;0.070000000000000007;0.080000000000000002;0;7.266614239191085;72;84;24;2; nein
2019_02_28 12:06;14;0;1;practice;13;26;1;24;46;74;59;0.29999999999999999;0.11;0.25;0.34000000000000002;91;6;0;0;0.28999999999999998;0.70999999999999996;0.0;0.0;0;7.216354100985427;72;84;24;2; nein
2019_02_28 12:06;14;0;1;practice;14;69;1;38;74;27;73;0.22;0.19;0.45000000000000001;0.14000000000000001;1;97;79;84;0.28000000000000003;0.45000000000000001;0.17000000000000001;0.10000000000000001;0;12.232851757464346;72;84;24;2; nein
2019_02_28 12:06;14;0;1;practice;15;29;0;66;40;92;49;0.46999999999999997;0.10000000000000001;0.34000000000000002;0.089999999999999997;8;94;0;0;0.44;0.56000000000000005;0.0;0.0;1;7.333146565797165;72;84;24;2; nein
2019_02_28 12:06;14;0;1;practice;16;38;1;51;89;10;60;0.57999999999999996;0.029999999999999999;0.080000000000000002;0.31;8;84;0;0;0.33000000000000002;0.67000000000000004;0.0;0.0;1;14.882892585467857;72;84;24;2; nein
2019_02_28 12:06;14;0;1;practice;17;75;1;21;86;27;62;0.88;0.040000000000000001;0.070000000000000007;0.0099999999999999794;13;3;49;87;0.28999999999999998;0.39000000000000001;0.070000000000000007;0.25;0;23.31589905957685;72;84;24;2; nein
2019_02_28 12:06;14;0;1;practice;18;2;1;41;60;0;0;0.97999999999999998;0.02;0.0;0.0;10;14;97;6;0.54000000000000004;0.17000000000000001;0.12;0.17000000000000001;0;7.9496535873799985;72;84;24;2; nein
2019_02_28 12:06;14;0;1;practice;19;51;1;38;13;51;84;0.91000000000000003;0.070000000000000007;0.01;0.0099999999999999603;4;89;35;16;0.80000000000000004;0.089999999999999997;0.059999999999999998;0.050000000000000003;0;11.44962760883891;72;84;24;2; nein
2019_02_28 12:06;14;0;1;practice;20;72;1;86;85;97;43;0.51000000000000001;0.14999999999999999;0.33000000000000002;0.0099999999999999499;72;29;10;90;0.01;0.11;0.65000000000000002;0.23000000000000001;0;8.899759714531001;72;84;24;2; nein
2019_02_28 12:06;14;0;1;practice;21;65;0;35;15;77;1;0.62;0.33000000000000002;0.029999999999999999;0.02;68;3;25;96;0.38;0.28000000000000003;0.28000000000000003;0.059999999999999901;0;21.632522952522095;72;84;24;2; nein
2019_02_28 12:06;14;0;1;practice;22;63;1;24;82;6;96;0.91000000000000003;0.070000000000000007;0.01;0.0099999999999999603;73;10;71;22;0.31;0.51000000000000001;0.050000000000000003;0.13;0;22.065817114919355;72;84;24;2; nein
2019_02_28 12:06;14;0;1;practice;23;62;1;65;52;74;55;0.16;0.12;0.14999999999999999;0.56999999999999995;72;86;2;68;0.12;0.53000000000000003;0.22;0.13;0;10.549715871733952;72;84;24;2; nein
2019_02_28 12:06;14;0;1;practice;24;39;1;53;65;48;75;0.92000000000000004;0.029999999999999999;0.01;0.040000000000000001;16;83;0;0;0.31;0.68999999999999995;0.0;0.0;0;8.649661733737275;72;84;24;2; nein
2019_02_28 12:06;14;0;1;practice;25;43;0;11;17;21;44;0.16;0.46000000000000002;0.25;0.13;2;66;0;0;0.44;0.56000000000000005;0.0;0.0;0;8.483126777204689;72;84;24;2; nein
2019_02_28 12:06;14;0;1;practice;26;68;0;39;58;40;8;0.48999999999999999;0.44;0.02;0.050000000000000003;92;83;51;2;0.57999999999999996;0.13;0.02;0.27000000000000002;1;12.366338161065642;72;84;24;2; nein
2019_02_28 12:06;14;0;1;practice;27;42;1;23;45;91;22;0.72999999999999998;0.02;0.20000000000000001;0.050000000000000003;2;86;0;0;0.40999999999999998;0.58999999999999997;0.0;0.0;0;5.899742074780988;72;84;24;2; nein
2019_02_28 12:06;14;0;1;practice;28;60;1;39;93;27;78;0.85999999999999999;0.02;0.11;0.01;22;5;62;95;0.059999999999999998;0.56999999999999995;0.14000000000000001;0.23000000000000001;0;9.999585626233738;72;84;24;2; nein
2019_02_28 12:06;14;0;1;practice;29;17;0;27;61;0;0;0.68999999999999995;0.31;0.0;0.0;3;91;69;43;0.29999999999999999;0.33000000000000002;0.27000000000000002;0.099999999999999895;0;9.516296884050462;72;84;24;2; nein
2019_02_28 12:06;14;0;1;practice;30;44;0;69;48;22;63;0.39000000000000001;0.40999999999999998;0.19;0.01;1;94;0;0;0.22;0.78000000000000003;0.0;0.0;0;13.449474303374245;72;84;24;2; nein
2019_02_28 12:06;14;0;1;practice;31;33;0;54;82;55;71;0.56000000000000005;0.20999999999999999;0.02;0.20999999999999999;13;99;0;0;0.5;0.5;0.0;0.0;0;7.049834859866678;72;84;24;2; nein
2019_02_28 12:06;14;0;1;practice;32;1;1;67;36;0;0;0.14999999999999999;0.84999999999999998;0.0;0.0;1;4;81;77;0.25;0.54000000000000004;0.14000000000000001;0.070000000000000007;0;11.866192232223739;72;84;24;2; nein
2019_02_28 12:06;14;0;1;practice;33;53;1;47;24;95;38;0.57999999999999996;0.28000000000000003;0.02;0.12;8;22;93;96;0.54000000000000004;0.34000000000000002;0.10000000000000001;0.0199999999999999;0;19.165964070074097;72;84;24;2; nein
2019_02_28 12:06;14;0;1;practice;34;9;1;57;44;0;0;0.14999999999999999;0.84999999999999998;0.0;0.0;38;35;64;95;0.34000000000000002;0.45000000000000001;0.089999999999999997;0.12;0;8.482979886194698;72;84;24;2; nein
2019_02_28 12:06;14;0;1;practice;35;31;1;72;59;40;92;0.59999999999999998;0.34999999999999998;0.02;0.029999999999999999;97;29;0;0;0.38;0.62;0.0;0.0;0;9.416435051402232;72;84;24;2; nein
2019_02_28 12:06;14;0;1;practice;36;30;1;54;78;85;25;0.20999999999999999;0.60999999999999999;0.089999999999999997;0.090000000000000094;87;20;0;0;0.58999999999999997;0.40999999999999998;0.0;0.0;0;5.499782549989504;72;84;24;2; nein
2019_02_28 12:06;14;0;1;practice;37;35;0;84;95;4;35;0.89000000000000001;0.050000000000000003;0.01;0.050000000000000003;5;98;0;0;0.19;0.81000000000000005;0.0;0.0;0;20.615869745519376;72;84;24;2; nein
2019_02_28 12:06;14;0;1;practice;38;66;1;44;18;63;36;0.47999999999999998;0.10000000000000001;0.029999999999999999;0.39000000000000001;13;93;61;53;0.52000000000000002;0.45000000000000001;0.02;0.0099999999999999707;1;15.232889923469202;72;84;24;2; nein
2019_02_28 12:06;14;0;1;practice;39;71;1;94;87;26;75;0.71999999999999997;0.23999999999999999;0.02;0.02;90;27;12;83;0.16;0.73999999999999999;0.02;0.080000000000000002;0;8.499770041803004;72;84;24;2; nein
2019_02_28 12:06;14;0;1;practice;40;49;0;14;31;42;22;0.77000000000000002;0.089999999999999997;0.02;0.12;87;28;0;0;0.68000000000000005;0.32000000000000001;0.0;0.0;1;9.633044447680277;72;84;24;2; nein
2019_02_28 12:06;14;0;1;practice;41;14;0;92;56;0;0;0.11;0.89000000000000001;0.0;0.0;97;31;51;4;0.58999999999999997;0.22;0.080000000000000002;0.11;0;28.548953513806055;72;84;24;2; nein
2019_02_28 12:06;14;0;1;practice;42;40;1;29;65;30;41;0.70999999999999996;0.01;0.14999999999999999;0.13;2;59;0;0;0.32000000000000001;0.68000000000000005;0.0;0.0;0;3.283172512265992;72;84;24;2; nein
2019_02_28 12:06;14;0;1;practice;43;12;0;45;86;0;0;0.97999999999999998;0.02;0.0;0.0;6;23;95;81;0.14999999999999999;0.40999999999999998;0.050000000000000003;0.39000000000000001;0;9.182963016179201;72;84;24;2; nein
2019_02_28 12:06;14;0;1;practice;44;16;0;50;42;0;0;0.32000000000000001;0.68000000000000005;0.0;0.0;97;2;56;31;0.35999999999999999;0.16;0.16;0.32000000000000001;0;12.93281788914419;72;84;24;2; nein
2019_02_28 12:06;14;0;1;practice;45;25;0;7;18;0;0;0.20999999999999999;0.79000000000000004;0.0;0.0;92;45;33;13;0.41999999999999998;0.17999999999999999;0.22;0.17999999999999999;1;10.683029405784282;72;84;24;2; nein
2019_02_28 12:06;14;0;1;practice;46;24;0;19;38;0;0;0.89000000000000001;0.11;0.0;0.0;45;76;95;57;0.29999999999999999;0.22;0.40000000000000002;0.080000000000000002;1;5.949747238416876;72;84;24;2; nein
2019_02_28 12:06;14;0;1;practice;47;41;0;19;54;51;8;0.76000000000000001;0.070000000000000007;0.16;0.0099999999999999794;2;77;0;0;0.54000000000000004;0.46000000000000002;0.0;0.0;0;14.71624313092093;72;84;24;2; nein
2019_02_28 12:06;14;0;1;practice;48;70;1;21;42;14;63;0.96999999999999997;0.01;0.01;0.01;70;2;6;76;0.23999999999999999;0.42999999999999999;0.01;0.32000000000000001;0;7.333014107309964;72;84;24;2; nein
2019_02_28 12:06;14;0;1;practice;49;73;0;99;88;95;28;0.83999999999999997;0.14000000000000001;0.01;0.01;90;93;10;74;0.080000000000000002;0.46000000000000002;0.34999999999999998;0.11;0;8.866322445652031;72;84;24;2; nein
2019_02_28 12:06;14;0;1;practice;50;10;1;34;59;0;0;0.16;0.83999999999999997;0.0;0.0;21;61;96;7;0.19;0.01;0.5;0.29999999999999999;0;12.382838383326543;72;84;24;2; nein
2019_02_28 12:06;14;0;1;practice;51;74;1;36;46;10;12;0.11;0.19;0.65000000000000002;0.049999999999999899;92;24;79;19;0.51000000000000001;0.40999999999999998;0.02;0.059999999999999998;1;9.0997745960658;72;84;24;2; nein
2019_02_28 12:06;14;0;1;practice;52;37;1;50;66;99;12;0.26000000000000001;0.71999999999999997;0.01;0.01;22;90;0;0;0.37;0.63;0.0;0.0;0;14.699425072435133;72;84;24;2; nein
2019_02_28 12:06;14;0;1;practice;53;32;1;21;86;16;78;0.45000000000000001;0.41999999999999998;0.050000000000000003;0.080000000000000099;95;9;0;0;0.42999999999999999;0.56999999999999995;0.0;0.0;0;13.24961497236336;72;84;24;2; nein
2019_02_28 12:06;14;0;1;practice;54;8;0;20;44;0;0;0.26000000000000001;0.73999999999999999;0.0;0.0;99;3;69;24;0.20999999999999999;0.60999999999999999;0.12;0.060000000000000102;0;7.583182005658728;72;84;24;2; nein
2019_02_28 12:06;14;0;1;practice;55;5;0;23;58;0;0;0.71999999999999997;0.28000000000000003;0.0;0.0;94;12;52;3;0.11;0.84999999999999998;0.029999999999999999;0.01;0;10.816234535551757;72;84;24;2; nein
2019_02_28 12:06;14;0;1;practice;56;15;0;24;59;0;0;0.56999999999999995;0.42999999999999999;0.0;0.0;9;8;80;22;0.31;0.10000000000000001;0.55000000000000004;0.039999999999999897;0;11.316361221029865;72;84;24;2; nein
2019_02_28 12:06;14;0;1;practice;57;48;1;20;25;24;35;0.32000000000000001;0.13;0.48999999999999999;0.059999999999999901;44;76;0;0;0.29999999999999999;0.69999999999999996;0.0;0.0;1;10.249565581063052;72;84;24;2; nein
2019_02_28 12:06;14;0;1;practice;58;23;1;99;93;0;0;0.57999999999999996;0.41999999999999998;0.0;0.0;64;10;80;81;0.13;0.55000000000000004;0.02;0.29999999999999999;0;8.78310580193829;72;84;24;2; nein
2019_02_28 12:06;14;0;1;practice;59;45;1;37;40;75;23;0.54000000000000004;0.38;0.059999999999999998;0.02;1;90;0;0;0.28000000000000003;0.71999999999999997;0.0;0.0;0;6.949875527508539;72;84;24;2; nein
2019_02_28 12:06;14;0;1;practice;60;19;0;25;73;0;0;0.69999999999999996;0.29999999999999999;0.0;0.0;87;84;1;86;0.040000000000000001;0.59999999999999998;0.28000000000000003;0.080000000000000002;1;10.782933894555299;72;84;24;2; nein
2019_02_28 12:06;14;0;1;practice;61;36;0;56;89;86;77;0.66000000000000003;0.080000000000000002;0.14999999999999999;0.11;29;91;0;0;0.40999999999999998;0.58999999999999997;0.0;0.0;0;7.399673440116885;72;84;24;2; nein
2019_02_28 12:06;14;0;1;practice;62;54;1;69;80;22;55;0.27000000000000002;0.31;0.059999999999999998;0.35999999999999999;52;2;49;90;0.059999999999999998;0.33000000000000002;0.20000000000000001;0.40999999999999998;0;8.59978742497492;72;84;24;2; nein
2019_02_28 12:06;14;0;1;practice;63;28;1;37;83;75;8;0.83999999999999997;0.070000000000000007;0.01;0.080000000000000002;94;2;0;0;0.19;0.81000000000000005;0.0;0.0;0;8.283137553488586;72;84;24;2; nein
2019_02_28 12:06;14;0;1;practice;64;3;1;20;70;0;0;0.13;0.87;0.0;0.0;95;19;80;73;0.31;0.57999999999999996;0.029999999999999999;0.080000000000000002;0;17.316019009877664;72;84;24;2; nein
2019_02_28 12:06;14;0;1;practice;65;52;0;17;61;57;59;0.070000000000000007;0.050000000000000003;0.33000000000000002;0.55000000000000004;12;93;94;62;0.71999999999999997;0.16;0.080000000000000002;0.040000000000000001;0;19.049398356231904;72;84;24;2; nein
2019_02_28 12:06;14;0;1;practice;66;20;0;32;11;0;0;0.40999999999999998;0.58999999999999997;0.0;0.0;1;86;42;65;0.45000000000000001;0.38;0.050000000000000003;0.12;0;15.7828566003775;72;84;24;2; nein
2019_02_28 12:06;14;0;1;practice;67;27;1;68;43;98;36;0.54000000000000004;0.44;0.01;0.0099999999999999603;97;13;0;0;0.27000000000000002;0.72999999999999998;0.0;0.0;0;4.516596439079649;72;84;24;2; nein
2019_02_28 12:06;14;0;1;practice;68;46;0;79;57;98;81;0.67000000000000004;0.070000000000000007;0.20999999999999999;0.050000000000000003;1;76;0;0;0.56000000000000005;0.44;0.0;0.0;0;11.816206311951646;72;84;24;2; nein
2019_02_28 12:06;14;0;1;practice;69;47;1;91;99;90;78;0.93000000000000005;0.040000000000000001;0.02;0.0099999999999999499;10;87;0;0;0.23000000000000001;0.77000000000000002;0.0;0.0;0;4.316489510121755;72;84;24;2; nein
2019_02_28 12:06;14;0;1;practice;70;13;0;15;25;0;0;0.29999999999999999;0.69999999999999996;0.0;0.0;3;43;35;73;0.44;0.40000000000000002;0.01;0.14999999999999999;1;12.099541430641466;72;84;24;2; nein
2019_02_28 12:06;14;0;1;practice;71;22;0;84;87;0;0;0.17000000000000001;0.82999999999999996;0.0;0.0;3;24;41;83;0.68000000000000005;0.11;0.10000000000000001;0.11;0;3.9497963089945642;72;84;24;2; nein
2019_02_28 12:06;14;0;1;practice;72;55;1;53;11;80;74;0.31;0.37;0.28000000000000003;0.039999999999999897;6;93;98;96;0.69999999999999996;0.22;0.050000000000000003;0.029999999999999999;0;11.199548871408979;72;84;24;2; nein
2019_02_28 12:06;14;0;1;practice;73;50;1;17;12;21;14;0.55000000000000004;0.34000000000000002;0.059999999999999998;0.049999999999999899;13;93;0;0;0.28999999999999998;0.70999999999999996;0.0;0.0;1;8.882963465190869;72;84;24;2; nein
2019_02_28 12:06;14;0;1;practice;74;59;1;13;27;48;51;0.56999999999999995;0.13;0.13;0.17000000000000001;8;37;97;1;0.65000000000000002;0.16;0.14999999999999999;0.040000000000000001;0;12.4163122145967;72;84;24;2; nein
2019_02_28 12:06;14;0;1;practice;75;21;1;59;69;0;0;0.34000000000000002;0.66000000000000003;0.0;0.0;64;18;5;24;0.14999999999999999;0.040000000000000001;0.51000000000000001;0.29999999999999999;0;4.383115487764826;72;84;24;2; nein
2019_02_28 12:06;14;1;1;timed;1;73;1;65;68;70;47;0.25;0.23000000000000001;0.20999999999999999;0.31;27;95;0;0;0.45000000000000001;0.55000000000000004;0.0;0.0;0;2.017789527633113;72;84;24;2; nein
2019_02_28 12:06;14;1;1;timed;2;124;0;37;65;15;41;0.17999999999999999;0.45000000000000001;0.02;0.34999999999999998;40;7;98;30;0.070000000000000007;0.45000000000000001;0.45000000000000001;0.029999999999999898;1;3.7831452508341954;72;84;24;2; nein
2019_02_28 12:06;14;1;1;timed;3;28;0;47;30;0;0;0.97999999999999998;0.02;0.0;0.0;55;48;77;13;0.070000000000000007;0.26000000000000001;0.42999999999999999;0.23999999999999999;0;3.91646616150706;72;84;24;2; nein
2019_02_28 12:06;14;1;1;timed;4;8;1;50;36;0;0;0.080000000000000002;0.92000000000000004;0.0;0.0;6;19;84;29;0.54000000000000004;0.070000000000000007;0.17000000000000001;0.22;0;3.6998250136789466;72;84;24;2; nein
2019_02_28 12:06;14;1;1;timed;5;16;1;64;53;0;0;0.65000000000000002;0.34999999999999998;0.0;0.0;29;17;81;46;0.10000000000000001;0.01;0.44;0.45000000000000001;0;5.949871999558582;72;84;24;2; nein
2019_02_28 12:06;14;1;1;timed;6;15;0;77;81;0;0;0.28000000000000003;0.71999999999999997;0.0;0.0;98;14;87;18;0.55000000000000004;0.23000000000000001;0.16;0.059999999999999901;0;3.516614078829889;72;84;24;2; nein
2019_02_28 12:06;14;1;1;timed;7;130;0;37;79;23;95;0.94999999999999996;0.029999999999999999;0.01;0.01;94;4;58;49;0.46000000000000002;0.5;0.029999999999999999;0.01;0;3.283277388598435;72;84;24;2; nein
2019_02_28 12:06;14;1;1;timed;8;119;1;60;58;11;18;0.25;0.72999999999999998;0.01;0.01;96;23;42;85;0.44;0.48999999999999999;0.059999999999999998;0.010000000000000101;1;6.049724531247648;72;84;24;2; nein
2019_02_28 12:06;14;1;1;timed;9;38;0;40;70;0;0;0.53000000000000003;0.46999999999999997;0.0;0.0;97;90;6;96;0.56999999999999995;0.070000000000000007;0.27000000000000002;0.089999999999999997;0;3.7499449960519087;72;84;24;2; nein
2019_02_28 12:06;14;1;1;timed;10;144;0;99;93;90;71;0.65000000000000002;0.32000000000000001;0.01;0.02;97;14;48;73;0.23000000000000001;0.46000000000000002;0.13;0.17999999999999999;0;4.533112056031541;72;84;24;2; nein
2019_02_28 12:06;14;1;1;timed;11;18;1;68;50;0;0;0.029999999999999999;0.96999999999999997;0.0;0.0;34;64;15;89;0.65000000000000002;0.029999999999999999;0.050000000000000003;0.27000000000000002;0;6.349734666085851;72;84;24;2; nein
2019_02_28 12:06;14;1;1;timed;12;128;0;70;49;27;54;0.27000000000000002;0.53000000000000003;0.02;0.17999999999999999;72;97;6;20;0.29999999999999999;0.39000000000000001;0.22;0.0899999999999999;0;6.6998185992242725;72;84;24;2; nein
2019_02_28 12:06;14;1;1;timed;13;48;0;13;32;0;0;0.90000000000000002;0.10000000000000001;0.0;0.0;24;99;84;94;0.62;0.14999999999999999;0.20000000000000001;0.029999999999999999;1;4.099797367379551;72;84;24;2; nein
2019_02_28 12:06;14;1;1;timed;14;55;1;74;55;47;48;0.60999999999999999;0.31;0.070000000000000007;0.01;97;6;0;0;0.42999999999999999;0.56999999999999995;0.0;0.0;0;4.45001119322319;72;84;24;2; nein
2019_02_28 12:06;14;1;1;timed;15;26;1;76;41;0;0;0.57999999999999996;0.41999999999999998;0.0;0.0;61;79;84;2;0.13;0.029999999999999999;0.67000000000000004;0.17000000000000001;0;6.2830192068013275;72;84;24;2; nein
2019_02_28 12:06;14;1;1;timed;16;78;1;74;36;34;3;0.14999999999999999;0.64000000000000001;0.13;0.080000000000000002;1;83;0;0;0.41999999999999998;0.57999999999999996;0.0;0.0;0;2.3498815570960687;72;84;24;2; nein
2019_02_28 12:06;14;1;1;timed;17;106;0;85;69;22;61;0.10000000000000001;0.58999999999999997;0.17999999999999999;0.13;20;79;91;84;0.55000000000000004;0.14999999999999999;0.26000000000000001;0.039999999999999897;NA;7.533007500421718;72;84;24;2; nein
2019_02_28 12:06;14;1;1;timed;18;89;0;26;41;13;56;0.059999999999999998;0.40999999999999998;0.050000000000000003;0.47999999999999998;5;97;0;0;0.37;0.63;0.0;0.0;0;3.4500015715414065;72;84;24;2; nein
2019_02_28 12:06;14;1;1;timed;19;10;1;45;62;0;0;0.059999999999999998;0.93999999999999995;0.0;0.0;17;99;28;67;0.58999999999999997;0.34000000000000002;0.01;0.059999999999999998;0;5.483109137454903;72;84;24;2; nein
2019_02_28 12:06;14;1;1;timed;20;40;0;45;49;0;0;0.68999999999999995;0.31;0.0;0.0;2;92;65;73;0.23999999999999999;0.59999999999999998;0.11;0.050000000000000003;0;4.4497757827398345;72;84;24;2; nein
2019_02_28 12:06;14;1;1;timed;21;111;1;51;36;48;27;0.93000000000000005;0.01;0.01;0.049999999999999899;31;78;30;53;0.55000000000000004;0.16;0.029999999999999999;0.26000000000000001;1;6.899724435030976;72;84;24;2; nein
2019_02_28 12:06;14;1;1;timed;22;80;0;47;39;45;10;0.13;0.76000000000000001;0.059999999999999998;0.050000000000000003;2;87;0;0;0.48999999999999999;0.51000000000000001;0.0;0.0;0;4.96643732853363;72;84;24;2; nein
2019_02_28 12:06;14;1;1;timed;23;87;1;10;30;63;4;0.56999999999999995;0.12;0.16;0.14999999999999999;86;2;0;0;0.42999999999999999;0.56999999999999995;0.0;0.0;0;5.549754358461541;72;84;24;2; nein
2019_02_28 12:06;14;1;1;timed;24;3;1;53;40;0;0;0.31;0.68999999999999995;0.0;0.0;96;24;7;88;0.11;0.27000000000000002;0.58999999999999997;0.029999999999999999;0;5.416435051402232;72;84;24;2; nein
2019_02_28 12:06;14;1;1;timed;25;23;0;54;40;0;0;0.93000000000000005;0.070000000000000007;0.0;0.0;36;23;71;86;0.02;0.41999999999999998;0.19;0.37;1;6.3497837366635395;72;84;24;2; nein
2019_02_28 12:06;14;1;1;timed;26;104;0;55;85;93;3;0.87;0.02;0.089999999999999997;0.02;1;2;90;8;0.35999999999999999;0.070000000000000007;0.40000000000000002;0.17000000000000001;0;6.949699130007502;72;84;24;2; nein
2019_02_28 12:06;14;1;1;timed;27;129;0;12;29;81;36;0.17999999999999999;0.79000000000000004;0.01;0.02;5;19;95;92;0.47999999999999998;0.26000000000000001;0.13;0.13;0;6.383182839537994;72;84;24;2; nein
2019_02_28 12:06;14;1;1;timed;28;21;0;64;28;0;0;0.080000000000000002;0.92000000000000004;0.0;0.0;50;1;88;13;0.57999999999999996;0.13;0.02;0.27000000000000002;0;5.9830712921725535;72;84;24;2; nein
2019_02_28 12:06;14;1;1;timed;29;25;0;50;53;0;0;0.82999999999999996;0.17000000000000001;0.0;0.0;83;16;97;4;0.45000000000000001;0.29999999999999999;0.11;0.14000000000000001;0;6.016519786347089;72;84;24;2; nein
2019_02_28 12:06;14;1;1;timed;30;140;0;36;32;26;27;0.39000000000000001;0.14999999999999999;0.19;0.27000000000000002;44;3;99;25;0.29999999999999999;0.34000000000000002;0.34000000000000002;0.0199999999999999;0;6.433058431191512;72;84;24;2; nein
2019_02_28 12:06;14;1;1;timed;31;27;0;44;26;0;0;0.35999999999999999;0.64000000000000001;0.0;0.0;63;10;3;5;0.58999999999999997;0.19;0.14999999999999999;0.070000000000000007;0;4.833225784311253;72;84;24;2; nein
2019_02_28 12:06;14;1;1;timed;32;115;1;50;28;61;79;0.83999999999999997;0.040000000000000001;0.059999999999999998;0.059999999999999998;1;26;97;55;0.45000000000000001;0.080000000000000002;0.40999999999999998;0.060000000000000102;0;4.883130241010349;72;84;24;2; nein
2019_02_28 12:06;14;1;1;timed;33;14;0;36;40;0;0;0.54000000000000004;0.46000000000000002;0.0;0.0;99;70;1;11;0.16;0.089999999999999997;0.080000000000000002;0.67000000000000004;0;7.18302427422077;72;84;24;2; nein
2019_02_28 12:06;14;1;1;timed;34;4;0;40;43;0;0;0.58999999999999997;0.40999999999999998;0.0;0.0;2;33;88;81;0.69999999999999996;0.14000000000000001;0.13;0.029999999999999999;0;6.149736782856053;72;84;24;2; nein
2019_02_28 12:06;14;1;1;timed;35;95;1;93;88;68;85;0.83999999999999997;0.14000000000000001;0.01;0.01;2;82;0;0;0.41999999999999998;0.57999999999999996;0.0;0.0;0;3.9499364648272604;72;84;24;2; nein
2019_02_28 12:06;14;1;1;timed;36;99;1;8;24;15;73;0.56000000000000005;0.35999999999999999;0.070000000000000007;0.0099999999999999499;88;12;0;0;0.52000000000000002;0.47999999999999998;0.0;0.0;NA;7.516376744009904;72;84;24;2; nein
2019_02_28 12:06;14;1;1;timed;37;109;0;75;28;16;56;0.19;0.070000000000000007;0.059999999999999998;0.68000000000000005;3;50;98;44;0.5;0.02;0.34999999999999998;0.13;0;5.033110773140379;72;84;24;2; nein
2019_02_28 12:06;14;1;1;timed;38;103;1;38;49;89;50;0.89000000000000001;0.070000000000000007;0.01;0.029999999999999999;6;64;99;27;0.70999999999999996;0.17999999999999999;0.059999999999999998;0.050000000000000003;0;6.333086590646872;72;84;24;2; nein
2019_02_28 12:06;14;1;1;timed;39;11;1;17;36;0;0;0.14000000000000001;0.85999999999999999;0.0;0.0;19;41;34;95;0.88;0.02;0.050000000000000003;0.050000000000000003;1;6.816366994039072;72;84;24;2; nein
2019_02_28 12:06;14;1;1;timed;40;97;0;17;33;32;74;0.94999999999999996;0.01;0.029999999999999999;0.01;76;23;0;0;0.33000000000000002;0.67000000000000004;0.0;0.0;0;5.966410387824453;72;84;24;2; nein
2019_02_28 12:06;14;1;1;timed;41;127;0;89;26;62;79;0.02;0.28999999999999998;0.53000000000000003;0.16;96;6;60;13;0.53000000000000003;0.25;0.17000000000000001;0.050000000000000003;0;7.033043100644591;72;84;24;2; nein
2019_02_28 12:06;14;1;1;timed;42;56;0;28;84;37;41;0.68000000000000005;0.28000000000000003;0.02;0.0199999999999999;6;95;0;0;0.72999999999999998;0.27000000000000002;0.0;0.0;0;7.049849933834594;72;84;24;2; nein
2019_02_28 12:06;14;1;1;timed;43;100;1;27;14;59;52;0.02;0.95999999999999996;0.01;0.01;17;98;0;0;0.48999999999999999;0.51000000000000001;0.0;0.0;0;4.716453525031284;72;84;24;2; nein
2019_02_28 12:06;14;1;1;timed;44;141;1;93;28;60;91;0.81999999999999995;0.10000000000000001;0.01;0.070000000000000007;14;85;7;89;0.45000000000000001;0.070000000000000007;0.23999999999999999;0.23999999999999999;0;3.1165105495324497;72;84;24;2; nein
2019_02_28 12:06;14;1;1;timed;45;5;0;70;5;0;0;0.98999999999999999;0.01;0.0;0.0;92;87;47;1;0.44;0.02;0.16;0.38;0;5.449937747718195;72;84;24;2; nein
2019_02_28 12:06;14;1;1;timed;46;52;0;71;51;10;54;0.22;0.12;0.19;0.46999999999999997;91;1;0;0;0.29999999999999999;0.69999999999999996;0.0;0.0;0;4.4497812350259665;72;84;24;2; nein
2019_02_28 12:06;14;1;1;timed;47;44;0;79;74;0;0;0.71999999999999997;0.28000000000000003;0.0;0.0;3;67;15;36;0.41999999999999998;0.53000000000000003;0.02;0.029999999999999999;0;3.6831586570442596;72;84;24;2; nein
2019_02_28 12:06;14;1;1;timed;48;13;1;52;56;0;0;0.46999999999999997;0.53000000000000003;0.0;0.0;94;71;27;2;0.089999999999999997;0.31;0.57999999999999996;0.020000000000000101;0;3.1998375218654473;72;84;24;2; nein
2019_02_28 12:06;14;1;1;timed;49;65;0;75;64;59;52;0.59999999999999998;0.22;0.14000000000000001;0.040000000000000001;1;99;0;0;0.35999999999999999;0.64000000000000001;0.0;0.0;0;4.816447816167056;72;84;24;2; nein
2019_02_28 12:06;14;1;1;timed;50;90;0;27;44;50;72;0.68000000000000005;0.28999999999999998;0.02;0.0099999999999999707;6;96;0;0;0.46999999999999997;0.53000000000000003;0.0;0.0;0;3.816615874877243;72;84;24;2; nein
2019_02_28 12:06;14;1;1;timed;51;139;0;44;31;16;8;0.79000000000000004;0.070000000000000007;0.13;0.0099999999999999499;92;58;2;88;0.55000000000000004;0.070000000000000007;0.34000000000000002;0.039999999999999897;0;6.366412248016331;72;84;24;2; nein
2019_02_28 12:06;14;1;1;timed;52;93;0;87;81;73;98;0.80000000000000004;0.040000000000000001;0.14999999999999999;0.0099999999999999499;5;71;0;0;0.51000000000000001;0.48999999999999999;0.0;0.0;0;3.6164932305055117;72;84;24;2; nein
2019_02_28 12:06;14;1;1;timed;53;72;1;63;82;51;61;0.01;0.96999999999999997;0.01;0.01;92;12;0;0;0.89000000000000001;0.11;0.0;0.0;0;5.099890376970961;72;84;24;2; nein
2019_02_28 12:06;14;1;1;timed;54;113;0;85;65;39;64;0.44;0.34000000000000002;0.13;0.089999999999999997;87;2;4;35;0.67000000000000004;0.17000000000000001;0.11;0.049999999999999899;0;5.049774563993651;72;84;24;2; nein
2019_02_28 12:06;14;1;1;timed;55;107;0;52;48;13;63;0.68000000000000005;0.19;0.050000000000000003;0.079999999999999905;54;91;33;3;0.19;0.17999999999999999;0.33000000000000002;0.29999999999999999;0;5.649772703801773;72;84;24;2; nein
2019_02_28 12:06;14;1;1;timed;56;6;0;9;51;0;0;0.14999999999999999;0.84999999999999998;0.0;0.0;6;40;50;73;0.42999999999999999;0.26000000000000001;0.059999999999999998;0.25;0;7.149684505051027;72;84;24;2; nein
2019_02_28 12:06;14;1;1;timed;57;77;1;24;17;99;41;0.17999999999999999;0.13;0.10000000000000001;0.58999999999999997;12;97;0;0;0.59999999999999998;0.40000000000000002;0.0;0.0;NA;7.533024178003416;72;84;24;2; nein
2019_02_28 12:06;14;1;1;timed;58;145;0;91;89;90;74;0.57999999999999996;0.29999999999999999;0.11;0.010000000000000101;2;75;84;39;0.32000000000000001;0.27000000000000002;0.39000000000000001;0.0199999999999999;0;5.966423858179041;72;84;24;2; nein
2019_02_28 12:06;14;1;1;timed;59;83;1;17;12;7;41;0.65000000000000002;0.19;0.089999999999999997;0.070000000000000007;6;84;0;0;0.72999999999999998;0.27000000000000002;0.0;0.0;1;5.416575207234928;72;84;24;2; nein
2019_02_28 12:06;14;1;1;timed;60;31;0;10;59;0;0;0.23999999999999999;0.76000000000000001;0.0;0.0;1;79;53;73;0.23000000000000001;0.58999999999999997;0.050000000000000003;0.13;0;6.283086879297571;72;84;24;2; nein
2019_02_28 12:06;14;1;1;timed;61;136;0;29;67;14;75;0.46000000000000002;0.29999999999999999;0.20999999999999999;0.0300000000000001;70;86;1;85;0.31;0.39000000000000001;0.27000000000000002;0.029999999999999898;0;6.399727642258313;72;84;24;2; nein
2019_02_28 12:06;14;1;1;timed;62;49;0;21;30;0;0;0.53000000000000003;0.46999999999999997;0.0;0.0;93;99;89;25;0.44;0.02;0.11;0.42999999999999999;1;3.5664992921647354;72;84;24;2; nein
2019_02_28 12:06;14;1;1;timed;63;33;1;27;70;0;0;0.88;0.12;0.0;0.0;93;3;77;16;0.080000000000000002;0.40000000000000002;0.5;0.02;0;4.316485661448951;72;84;24;2; nein
2019_02_28 12:06;14;1;1;timed;64;98;0;27;10;31;79;0.23000000000000001;0.67000000000000004;0.070000000000000007;0.029999999999999999;25;99;0;0;0.38;0.62;0.0;0.0;NA;7.516355255587314;72;84;24;2; nein
2019_02_28 12:06;14;1;1;timed;65;61;1;43;18;39;70;0.75;0.089999999999999997;0.089999999999999997;0.070000000000000007;16;66;0;0;0.64000000000000001;0.35999999999999999;0.0;0.0;NA;7.516391497255427;72;84;24;2; nein
2019_02_28 12:06;14;1;1;timed;66;66;1;89;23;27;15;0.070000000000000007;0.54000000000000004;0.17000000000000001;0.22;9;73;0;0;0.72999999999999998;0.27000000000000002;0.0;0.0;1;5.716583738459576;72;84;24;2; nein
2019_02_28 12:06;14;1;1;timed;67;71;1;68;55;36;51;0.20000000000000001;0.75;0.02;0.029999999999999999;38;81;0;0;0.52000000000000002;0.47999999999999998;0.0;0.0;0;4.749811575396507;72;84;24;2; nein
2019_02_28 12:06;14;1;1;timed;68;148;0;37;63;55;10;0.72999999999999998;0.070000000000000007;0.029999999999999999;0.17000000000000001;80;14;23;70;0.46999999999999997;0.10000000000000001;0.23000000000000001;0.20000000000000001;1;6.599877548062068;72;84;24;2; nein
2019_02_28 12:06;14;1;1;timed;69;47;0;2;40;0;0;0.45000000000000001;0.55000000000000004;0.0;0.0;93;89;11;56;0.58999999999999997;0.070000000000000007;0.28000000000000003;0.059999999999999998;1;4.1832590432586585;72;84;24;2; nein
2019_02_28 12:06;14;1;1;timed;70;88;1;77;13;12;7;0.12;0.19;0.66000000000000003;0.029999999999999898;94;2;0;0;0.40999999999999998;0.58999999999999997;0.0;0.0;0;5.516436719160538;72;84;24;2; nein
2019_02_28 12:06;14;1;1;timed;71;74;1;66;47;52;44;0.41999999999999998;0.26000000000000001;0.17999999999999999;0.14000000000000001;17;99;0;0;0.47999999999999998;0.52000000000000002;0.0;0.0;0;3.8666216799588256;72;84;24;2; nein
2019_02_28 12:06;14;1;1;timed;72;45;1;97;87;0;0;0.71999999999999997;0.28000000000000003;0.0;0.0;96;11;14;4;0.25;0.029999999999999999;0.14000000000000001;0.57999999999999996;0;2.8831937441109403;72;84;24;2; nein
2019_02_28 12:06;14;1;1;timed;73;69;0;54;34;64;49;0.34000000000000002;0.25;0.20999999999999999;0.20000000000000001;14;98;0;0;0.62;0.38;0.0;0.0;0;3.316498490358299;72;84;24;2; nein
2019_02_28 12:06;14;1;1;timed;74;135;1;48;60;41;51;0.14000000000000001;0.40000000000000002;0.089999999999999997;0.37;94;1;85;65;0.64000000000000001;0.29999999999999999;0.01;0.050000000000000003;0;2.383201441456549;72;84;24;2; nein
2019_02_28 12:06;14;1;1;timed;75;68;1;84;27;55;62;0.01;0.050000000000000003;0.40999999999999998;0.53000000000000003;9;82;0;0;0.37;0.63;0.0;0.0;0;3.0666230911388084;72;84;24;2; nein
2019_02_28 12:06;14;2;1;control;1;87;1;10;30;63;4;0.56999999999999995;0.12;0.16;0.14999999999999999;86;2;0;0;0.42999999999999999;0.56999999999999995;0.0;0.0;0;7.813651434688836;72;84;24;2; nein
2019_02_28 12:06;14;2;1;control;2;147;0;39;43;76;28;0.14000000000000001;0.10000000000000001;0.10000000000000001;0.66000000000000003;6;31;68;85;0.27000000000000002;0.20000000000000001;0.22;0.31;0;4.36646163931664;72;84;24;2; nein
2019_02_28 12:06;14;2;1;control;3;118;0;62;52;65;68;0.40999999999999998;0.44;0.10000000000000001;0.0500000000000001;79;20;14;37;0.56999999999999995;0.23999999999999999;0.14000000000000001;0.050000000000000003;0;3.4666227062712096;72;84;24;2; nein
2019_02_28 12:06;14;2;1;control;4;40;0;45;49;0;0;0.68999999999999995;0.31;0.0;0.0;2;92;65;73;0.23999999999999999;0.59999999999999998;0.11;0.050000000000000003;0;9.61639444790444;72;84;24;2; nein
2019_02_28 12:06;14;2;1;control;5;109;1;75;28;16;56;0.19;0.070000000000000007;0.059999999999999998;0.68000000000000005;3;50;98;44;0.5;0.02;0.34999999999999998;0.13;1;8.283006377892434;72;84;24;2; nein
2019_02_28 12:06;14;2;1;control;6;107;1;52;48;13;63;0.68000000000000005;0.19;0.050000000000000003;0.079999999999999905;54;91;33;3;0.19;0.17999999999999999;0.33000000000000002;0.29999999999999999;0;6.366399419106983;72;84;24;2; nein
2019_02_28 12:06;14;2;1;control;7;139;0;44;31;16;8;0.79000000000000004;0.070000000000000007;0.13;0.0099999999999999499;92;58;2;88;0.55000000000000004;0.070000000000000007;0.34000000000000002;0.039999999999999897;1;7.632994735657121;72;84;24;2; nein
2019_02_28 12:06;14;2;1;control;8;38;0;40;70;0;0;0.53000000000000003;0.46999999999999997;0.0;0.0;97;90;6;96;0.56999999999999995;0.070000000000000007;0.27000000000000002;0.089999999999999997;0;6.016407212669037;72;84;24;2; nein
2019_02_28 12:06;14;2;1;control;9;54;0;44;79;78;52;0.79000000000000004;0.19;0.01;0.0099999999999999603;96;1;0;0;0.28000000000000003;0.71999999999999997;0.0;0.0;0;4.533260229932239;72;84;24;2; nein
2019_02_28 12:06;14;2;1;control;10;73;0;65;68;70;47;0.25;0.23000000000000001;0.20999999999999999;0.31;27;95;0;0;0.45000000000000001;0.55000000000000004;0.0;0.0;0;3.8164936795169524;72;84;24;2; nein
2019_02_28 12:06;14;2;1;control;11;105;0;49;74;63;58;0.84999999999999998;0.080000000000000002;0.02;0.050000000000000003;97;5;86;8;0.25;0.52000000000000002;0.070000000000000007;0.16;0;10.916363530233866;72;84;24;2; nein
2019_02_28 12:06;14;2;1;control;12;113;0;85;65;39;64;0.44;0.34000000000000002;0.13;0.089999999999999997;87;2;4;35;0.67000000000000004;0.17000000000000001;0.11;0.049999999999999899;0;4.233147784543689;72;84;24;2; nein
2019_02_28 12:06;14;2;1;control;13;13;0;52;56;0;0;0.46999999999999997;0.53000000000000003;0.0;0.0;94;71;27;2;0.089999999999999997;0.31;0.57999999999999996;0.020000000000000101;0;7.049714588843017;72;84;24;2; nein
2019_02_28 12:06;14;2;1;control;14;44;0;79;74;0;0;0.71999999999999997;0.28000000000000003;0.0;0.0;3;67;15;36;0.41999999999999998;0.53000000000000003;0.02;0.029999999999999999;0;2.3832726419022947;72;84;24;2; nein
2019_02_28 12:06;14;2;1;control;15;85;1;31;22;82;50;0.11;0.69999999999999996;0.01;0.17999999999999999;3;99;0;0;0.62;0.38;0.0;0.0;0;3.6165047765234704;72;84;24;2; nein
2019_02_28 12:06;14;2;1;control;16;83;1;17;12;7;41;0.65000000000000002;0.19;0.089999999999999997;0.070000000000000007;6;84;0;0;0.72999999999999998;0.27000000000000002;0.0;0.0;0;9.782940309009973;72;84;24;2; nein
2019_02_28 12:06;14;2;1;control;17;115;1;50;28;61;79;0.83999999999999997;0.040000000000000001;0.059999999999999998;0.059999999999999998;1;26;97;55;0.45000000000000001;0.080000000000000002;0.40999999999999998;0.060000000000000102;0;4.033140600354727;72;84;24;2; nein
2019_02_28 12:06;14;2;1;control;18;12;1;53;68;0;0;0.31;0.68999999999999995;0.0;0.0;69;54;97;29;0.25;0.20999999999999999;0.20000000000000001;0.34000000000000002;1;5.699793262128878;72;84;24;2; nein
2019_02_28 12:06;14;2;1;control;19;97;1;17;33;32;74;0.94999999999999996;0.01;0.029999999999999999;0.01;76;23;0;0;0.33000000000000002;0.67000000000000004;0.0;0.0;1;8.049808560602742;72;84;24;2; nein
2019_02_28 12:06;14;2;1;control;20;121;1;42;51;47;70;0.41999999999999998;0.17000000000000001;0.23999999999999999;0.17000000000000001;21;76;48;9;0.14999999999999999;0.34000000000000002;0.40999999999999998;0.10000000000000001;0;5.49977613553483;72;84;24;2; nein
2019_02_28 12:06;14;2;1;control;21;128;1;70;49;27;54;0.27000000000000002;0.53000000000000003;0.02;0.17999999999999999;72;97;6;20;0.29999999999999999;0.39000000000000001;0.22;0.0899999999999999;0;9.432948423294874;72;84;24;2; nein
2019_02_28 12:06;14;2;1;control;22;112;0;70;44;98;64;0.02;0.75;0.12;0.11;33;2;63;85;0.23999999999999999;0.31;0.080000000000000002;0.37;0;7.166356955417541;72;84;24;2; nein
2019_02_28 12:06;14;2;1;control;23;133;0;59;88;60;36;0.67000000000000004;0.070000000000000007;0.12;0.14000000000000001;7;91;66;61;0.25;0.68999999999999995;0.01;0.0500000000000001;0;5.333094608715328;72;84;24;2; nein
2019_02_28 12:06;14;2;1;control;24;63;1;56;78;42;36;0.93000000000000005;0.040000000000000001;0.01;0.0199999999999999;2;72;0;0;0.32000000000000001;0.68000000000000005;0.0;0.0;0;6.749711509904955;72;84;24;2; nein
2019_02_28 12:06;14;2;1;control;25;132;1;27;70;21;19;0.64000000000000001;0.23000000000000001;0.029999999999999999;0.10000000000000001;11;85;55;6;0.39000000000000001;0.46999999999999997;0.029999999999999999;0.11;0;7.999598455142859;72;84;24;2; nein
2019_02_28 12:06;14;2;1;control;26;7;1;49;29;0;0;0.95999999999999996;0.040000000000000001;0.0;0.0;23;99;64;25;0.68999999999999995;0.12;0.059999999999999998;0.13;1;9.132960739047576;72;84;24;2; nein
2019_02_28 12:06;14;2;1;control;27;77;1;24;17;99;41;0.17999999999999999;0.13;0.10000000000000001;0.58999999999999997;12;97;0;0;0.59999999999999998;0.40000000000000002;0.0;0.0;0;7.883134731128848;72;84;24;2; nein
2019_02_28 12:06;14;2;1;control;28;59;0;56;47;83;90;0.31;0.12;0.54000000000000004;0.029999999999999898;10;98;0;0;0.46999999999999997;0.53000000000000003;0.0;0.0;0;4.0165900246247475;72;84;24;2; nein
2019_02_28 12:06;14;2;1;control;29;91;1;74;81;86;48;0.93000000000000005;0.02;0.01;0.039999999999999897;7;64;0;0;0.13;0.87;0.0;0.0;0;2.3165331284130843;72;84;24;2; nein
2019_02_28 12:06;14;2;1;control;30;50;0;15;20;0;0;0.82999999999999996;0.17000000000000001;0.0;0.0;97;18;88;87;0.56999999999999995;0.39000000000000001;0.01;0.029999999999999999;1;6.016425814587819;72;84;24;2; nein
2019_02_28 12:06;14;2;1;control;31;100;0;27;14;59;52;0.02;0.95999999999999996;0.01;0.01;17;98;0;0;0.48999999999999999;0.51000000000000001;0.0;0.0;0;5.333090760042069;72;84;24;2; nein
2019_02_28 12:06;14;2;1;control;32;46;0;5;19;0;0;0.32000000000000001;0.68000000000000005;0.0;0.0;88;38;97;66;0.60999999999999999;0.20000000000000001;0.040000000000000001;0.14999999999999999;1;5.9497321644485055;72;84;24;2; nein
2019_02_28 12:06;14;2;1;control;33;22;1;32;55;0;0;0.39000000000000001;0.60999999999999999;0.0;0.0;93;72;59;22;0.20000000000000001;0.11;0.14000000000000001;0.55000000000000004;0;6.3163990663119876;72;84;24;2; nein
2019_02_28 12:06;14;2;1;control;34;84;1;43;10;5;45;0.78000000000000003;0.13;0.059999999999999998;0.029999999999999999;87;1;0;0;0.57999999999999996;0.41999999999999998;0.0;0.0;1;9.549599128660248;72;84;24;2; nein
2019_02_28 12:06;14;2;1;control;35;89;0;26;41;13;56;0.059999999999999998;0.40999999999999998;0.050000000000000003;0.47999999999999998;5;97;0;0;0.37;0.63;0.0;0.0;0;4.616494192673599;72;84;24;2; nein
2019_02_28 12:06;14;2;1;control;36;58;1;37;58;76;34;0.20999999999999999;0.57999999999999996;0.19;0.020000000000000101;86;5;0;0;0.47999999999999998;0.52000000000000002;0.0;0.0;0;4.383128316674174;72;84;24;2; nein
2019_02_28 12:06;14;2;1;control;37;79;0;52;46;29;22;0.17999999999999999;0.51000000000000001;0.23999999999999999;0.070000000000000104;93;14;0;0;0.45000000000000001;0.55000000000000004;0.0;0.0;0;3.549845443717004;72;84;24;2; nein
2019_02_28 12:06;14;2;1;control;38;136;0;29;67;14;75;0.46000000000000002;0.29999999999999999;0.20999999999999999;0.0300000000000001;70;86;1;85;0.31;0.39000000000000001;0.27000000000000002;0.029999999999999898;1;8.433121934291194;72;84;24;2; nein
2019_02_28 12:06;14;2;1;control;39;1;0;22;51;0;0;0.26000000000000001;0.73999999999999999;0.0;0.0;14;11;92;31;0.29999999999999999;0.40999999999999998;0.14999999999999999;0.14000000000000001;0;8.116444480650898;72;84;24;2; nein
2019_02_28 12:06;14;2;1;control;40;90;1;27;44;50;72;0.68000000000000005;0.28999999999999998;0.02;0.0099999999999999707;6;96;0;0;0.46999999999999997;0.53000000000000003;0.0;0.0;0;4.866449451852532;72;84;24;2; nein
2019_02_28 12:06;14;2;1;control;41;99;1;8;24;15;73;0.56000000000000005;0.35999999999999999;0.070000000000000007;0.0099999999999999499;88;12;0;0;0.52000000000000002;0.47999999999999998;0.0;0.0;1;6.149896182052544;72;84;24;2; nein
2019_02_28 12:06;14;2;1;control;42;135;1;48;60;41;51;0.14000000000000001;0.40000000000000002;0.089999999999999997;0.37;94;1;85;65;0.64000000000000001;0.29999999999999999;0.01;0.050000000000000003;0;3.8831616718380246;72;84;24;2; nein
2019_02_28 12:06;14;2;1;control;43;39;0;14;33;0;0;0.78000000000000003;0.22;0.0;0.0;93;84;1;25;0.14000000000000001;0.23999999999999999;0.39000000000000001;0.23000000000000001;0;8.949659681111825;72;84;24;2; nein
2019_02_28 12:06;14;2;1;control;44;33;0;27;70;0;0;0.88;0.12;0.0;0.0;93;3;77;16;0.080000000000000002;0.40000000000000002;0.5;0.02;1;7.833158432538312;72;84;24;2; nein
2019_02_28 12:06;14;2;1;control;45;51;0;52;23;43;16;0.60999999999999999;0.20999999999999999;0.01;0.17000000000000001;92;7;0;0;0.14999999999999999;0.84999999999999998;0.0;0.0;0;6.916372510469955;72;84;24;2; nein
2019_02_28 12:06;14;2;1;control;46;122;1;35;58;25;31;0.81999999999999995;0.070000000000000007;0.080000000000000002;0.029999999999999999;18;64;68;89;0.63;0.17000000000000001;0.11;0.089999999999999997;1;10.23303489014279;72;84;24;2; nein
2019_02_28 12:06;14;2;1;control;47;120;0;64;40;48;51;0.19;0.02;0.070000000000000007;0.71999999999999997;97;9;79;94;0.23000000000000001;0.54000000000000004;0.01;0.22;0;6.749726583873326;72;84;24;2; nein
2019_02_28 12:06;14;2;1;control;48;10;0;45;62;0;0;0.059999999999999998;0.93999999999999995;0.0;0.0;17;99;28;67;0.58999999999999997;0.34000000000000002;0.01;0.059999999999999998;0;10.232905318160192;72;84;24;2; nein
2019_02_28 12:06;14;2;1;control;49;148;1;37;63;55;10;0.72999999999999998;0.070000000000000007;0.029999999999999999;0.17000000000000001;80;14;23;70;0.46999999999999997;0.10000000000000001;0.23000000000000001;0.20000000000000001;1;10.98302510809981;72;84;24;2; nein
2019_02_28 12:06;14;2;1;control;50;149;0;14;89;73;53;0.93999999999999995;0.01;0.01;0.040000000000000001;97;45;6;13;0.34000000000000002;0.01;0.40999999999999998;0.23999999999999999;1;10.082933766266251;72;84;24;2; nein
2019_02_28 12:06;14;2;1;control;51;25;1;50;53;0;0;0.82999999999999996;0.17000000000000001;0.0;0.0;83;16;97;4;0.45000000000000001;0.29999999999999999;0.11;0.14000000000000001;0;6.716376872298952;72;84;24;2; nein
2019_02_28 12:06;14;2;1;control;52;146;1;25;5;64;35;0.94999999999999996;0.02;0.01;0.02;47;97;12;79;0.20999999999999999;0.029999999999999999;0.02;0.73999999999999999;1;10.266268179366307;72;84;24;2; nein
2019_02_28 12:06;14;2;1;control;53;96;0;51;54;39;7;0.17000000000000001;0.26000000000000001;0.10000000000000001;0.46999999999999997;24;96;0;0;0.28000000000000003;0.71999999999999997;0.0;0.0;1;6.883038193586799;72;84;24;2; nein
2019_02_28 12:06;14;2;1;control;54;14;1;36;40;0;0;0.54000000000000004;0.46000000000000002;0.0;0.0;99;70;1;11;0.16;0.089999999999999997;0.080000000000000002;0.67000000000000004;0;20.515885396788235;72;84;24;2; nein
2019_02_28 12:06;14;2;1;control;55;68;0;84;27;55;62;0.01;0.050000000000000003;0.40999999999999998;0.53000000000000003;9;82;0;0;0.37;0.63;0.0;0.0;0;5.5164216451921675;72;84;24;2; nein
2019_02_28 12:06;14;2;1;control;56;66;1;89;23;27;15;0.070000000000000007;0.54000000000000004;0.17000000000000001;0.22;9;73;0;0;0.72999999999999998;0.27000000000000002;0.0;0.0;0;9.166282547744231;72;84;24;2; nein
2019_02_28 12:06;14;2;1;control;57;72;0;63;82;51;61;0.01;0.96999999999999997;0.01;0.01;92;12;0;0;0.89000000000000001;0.11;0.0;0.0;0;5.583111125935375;72;84;24;2; nein
2019_02_28 12:06;14;2;1;control;58;34;1;32;48;0;0;0.28000000000000003;0.71999999999999997;0.0;0.0;97;83;7;62;0.040000000000000001;0.54000000000000004;0.35999999999999999;0.059999999999999901;0;4.14979387150197;72;84;24;2; nein
2019_02_28 12:06;14;2;1;control;59;101;1;30;96;61;45;0.65000000000000002;0.14000000000000001;0.11;0.10000000000000001;3;98;63;89;0.75;0.19;0.040000000000000001;0.02;0;8.449651021598129;72;84;24;2; nein
2019_02_28 12:06;14;2;1;control;60;145;1;91;89;90;74;0.57999999999999996;0.29999999999999999;0.11;0.010000000000000101;2;75;84;39;0.32000000000000001;0.27000000000000002;0.39000000000000001;0.0199999999999999;0;7.3496888027352725;72;84;24;2; nein
2019_02_28 12:06;14;2;1;control;61;138;1;8;20;43;51;0.38;0.5;0.02;0.10000000000000001;72;82;70;1;0.39000000000000001;0.050000000000000003;0.070000000000000007;0.48999999999999999;0;7.183170203062218;72;84;24;2; nein
2019_02_28 12:06;14;2;1;control;62;3;0;53;40;0;0;0.31;0.68999999999999995;0.0;0.0;96;24;7;88;0.11;0.27000000000000002;0.58999999999999997;0.029999999999999999;0;4.183136847898368;72;84;24;2; nein
2019_02_28 12:06;14;2;1;control;63;123;1;26;24;51;92;0.72999999999999998;0.16;0.070000000000000007;0.040000000000000001;6;90;82;49;0.64000000000000001;0.25;0.050000000000000003;0.059999999999999998;0;3.833299550539323;72;84;24;2; nein
2019_02_28 12:06;14;2;1;control;64;42;0;70;48;0;0;0.79000000000000004;0.20999999999999999;0.0;0.0;51;8;12;67;0.19;0.26000000000000001;0.28999999999999998;0.26000000000000001;0;6.7830416573924595;72;84;24;2; nein
2019_02_28 12:06;14;2;1;control;65;82;1;78;66;30;27;0.28999999999999998;0.58999999999999997;0.080000000000000002;0.040000000000000001;90;6;0;0;0.82999999999999996;0.17000000000000001;0.0;0.0;0;9.682921322224047;72;84;24;2; nein
2019_02_28 12:06;14;2;1;control;66;45;0;97;87;0;0;0.71999999999999997;0.28000000000000003;0.0;0.0;96;11;14;4;0.25;0.029999999999999999;0.14000000000000001;0.57999999999999996;0;1.5833661005053727;72;84;24;2; nein
2019_02_28 12:06;14;2;1;control;67;76;1;39;62;9;28;0.01;0.51000000000000001;0.26000000000000001;0.22;77;7;0;0;0.57999999999999996;0.41999999999999998;0.0;0.0;0;10.799577800598854;72;84;24;2; nein
2019_02_28 12:06;14;2;1;control;68;19;1;22;53;0;0;0.13;0.87;0.0;0.0;4;93;96;65;0.46999999999999997;0.059999999999999998;0.26000000000000001;0.20999999999999999;0;9.71627103379842;72;84;24;2; nein
2019_02_28 12:06;14;2;1;control;69;104;1;55;85;93;3;0.87;0.02;0.089999999999999997;0.02;1;2;90;8;0.35999999999999999;0.070000000000000007;0.40000000000000002;0.17000000000000001;0;4.399948940941158;72;84;24;2; nein
2019_02_28 12:06;14;2;1;control;70;94;0;84;86;93;39;0.78000000000000003;0.20000000000000001;0.01;0.0099999999999999603;9;83;0;0;0.46999999999999997;0.53000000000000003;0.0;0.0;0;3.4999660033904547;72;84;24;2; nein
2019_02_28 12:06;14;2;1;control;71;36;0;70;17;0;0;0.33000000000000002;0.67000000000000004;0.0;0.0;84;1;12;88;0.22;0.27000000000000002;0.14000000000000001;0.37;1;6.6830448004752725;72;84;24;2; nein
2019_02_28 12:06;14;2;1;control;72;95;0;93;88;68;85;0.83999999999999997;0.14000000000000001;0.01;0.01;2;82;0;0;0.41999999999999998;0.57999999999999996;0.0;0.0;0;2.949851152581232;72;84;24;2; nein
2019_02_28 12:06;14;2;1;control;73;30;1;33;30;0;0;0.71999999999999997;0.28000000000000003;0.0;0.0;9;88;1;14;0.55000000000000004;0.39000000000000001;0.01;0.049999999999999899;0;4.050028576395107;72;84;24;2; nein
2019_02_28 12:06;14;2;1;control;74;8;0;50;36;0;0;0.080000000000000002;0.92000000000000004;0.0;0.0;6;19;84;29;0.54000000000000004;0.070000000000000007;0.17000000000000001;0.22;0;8.183129471275606;72;84;24;2; nein
2019_02_28 12:06;14;2;1;control;75;4;0;40;43;0;0;0.58999999999999997;0.40999999999999998;0.0;0.0;2;33;88;81;0.69999999999999996;0.14000000000000001;0.13;0.029999999999999999;0;3.883160388946635;72;84;24;2; nein
2019_02_28 12:06;14;3;1;timed;1;137;0;71;22;28;17;0.25;0.46000000000000002;0.050000000000000003;0.23999999999999999;3;98;92;69;0.42999999999999999;0.23999999999999999;0.20000000000000001;0.13;0;2.524328101917945;72;84;24;2; nein
2019_02_28 12:06;14;3;1;timed;2;91;0;74;81;86;48;0.93000000000000005;0.02;0.01;0.039999999999999897;7;64;0;0;0.13;0.87;0.0;0.0;0;2.250143202698837;72;84;24;2; nein
2019_02_28 12:06;14;3;1;timed;3;82;1;78;66;30;27;0.28999999999999998;0.58999999999999997;0.080000000000000002;0.040000000000000001;90;6;0;0;0.82999999999999996;0.17000000000000001;0.0;0.0;0;1.8832306272247479;72;84;24;2; nein
2019_02_28 12:06;14;3;1;timed;4;7;1;49;29;0;0;0.95999999999999996;0.040000000000000001;0.0;0.0;23;99;64;25;0.68999999999999995;0.12;0.059999999999999998;0.13;1;2.899871646763586;72;84;24;2; nein
2019_02_28 12:06;14;3;1;timed;5;92;0;90;86;65;94;0.16;0.34000000000000002;0.28000000000000003;0.22;79;22;0;0;0.35999999999999999;0.64000000000000001;0.0;0.0;0;1.8498709732461975;72;84;24;2; nein
2019_02_28 12:06;14;3;1;timed;6;138;0;8;20;43;51;0.38;0.5;0.02;0.10000000000000001;72;82;70;1;0.39000000000000001;0.050000000000000003;0.070000000000000007;0.48999999999999999;0;3.1664900553505504;72;84;24;2; nein
2019_02_28 12:06;14;3;1;timed;7;133;1;59;88;60;36;0.67000000000000004;0.070000000000000007;0.12;0.14000000000000001;7;91;66;61;0.25;0.68999999999999995;0.01;0.0500000000000001;0;2.9665348282433115;72;84;24;2; nein
2019_02_28 12:06;14;3;1;timed;8;110;1;47;44;23;52;0.13;0.27000000000000002;0.040000000000000001;0.56000000000000005;99;2;30;22;0.28999999999999998;0.5;0.11;0.10000000000000001;0;2.3165334491359317;72;84;24;2; nein
2019_02_28 12:06;14;3;1;timed;9;60;0;64;59;57;96;0.83999999999999997;0.13;0.02;0.01;83;6;0;0;0.54000000000000004;0.46000000000000002;0.0;0.0;0;3.6498172842611893;72;84;24;2; nein
2019_02_28 12:06;14;3;1;timed;10;142;1;98;65;64;84;0.88;0.070000000000000007;0.01;0.040000000000000001;5;68;60;16;0.46000000000000002;0.080000000000000002;0.27000000000000002;0.19;0;2.6666802439285675;72;84;24;2; nein
2019_02_28 12:06;14;3;1;timed;11;120;0;64;40;48;51;0.19;0.02;0.070000000000000007;0.71999999999999997;97;9;79;94;0.23000000000000001;0.54000000000000004;0.01;0.22;0;3.3165231860079984;72;84;24;2; nein
2019_02_28 12:06;14;3;1;timed;12;58;0;37;58;76;34;0.20999999999999999;0.57999999999999996;0.19;0.020000000000000101;86;5;0;0;0.47999999999999998;0.52000000000000002;0.0;0.0;0;3.7498144619012237;72;84;24;2; nein
2019_02_28 12:06;14;3;1;timed;13;67;1;44;42;8;89;0.88;0.070000000000000007;0.029999999999999999;0.02;10;63;0;0;0.39000000000000001;0.60999999999999999;0.0;0.0;NA;7.516332804996182;72;84;24;2; nein
2019_02_28 12:06;14;3;1;timed;14;17;1;81;52;0;0;0.059999999999999998;0.93999999999999995;0.0;0.0;34;3;69;41;0.01;0.22;0.75;0.02;0;2.249966484474953;72;84;24;2; nein
2019_02_28 12:06;14;3;1;timed;15;9;0;61;69;0;0;0.93999999999999995;0.060000000000000102;0.0;0.0;18;93;72;16;0.40999999999999998;0.34999999999999998;0.089999999999999997;0.14999999999999999;0;3.7833049707533064;72;84;24;2; nein
2019_02_28 12:06;14;3;1;timed;16;24;0;35;27;0;0;0.070000000000000007;0.93000000000000005;0.0;0.0;62;3;81;95;0.35999999999999999;0.55000000000000004;0.01;0.080000000000000002;0;3.549955130890339;72;84;24;2; nein
2019_02_28 12:06;14;3;1;timed;17;149;1;14;89;73;53;0.93999999999999995;0.01;0.01;0.040000000000000001;97;45;6;13;0.34000000000000002;0.01;0.40999999999999998;0.23999999999999999;0;2.549983033767603;72;84;24;2; nein
2019_02_28 12:06;14;3;1;timed;18;19;1;22;53;0;0;0.13;0.87;0.0;0.0;4;93;96;65;0.46999999999999997;0.059999999999999998;0.26000000000000001;0.20999999999999999;0;5.549756603520564;72;84;24;2; nein
2019_02_28 12:06;14;3;1;timed;19;146;0;25;5;64;35;0.94999999999999996;0.02;0.01;0.02;47;97;12;79;0.20999999999999999;0.029999999999999999;0.02;0.73999999999999999;1;4.5664649748327975;72;84;24;2; nein
2019_02_28 12:06;14;3;1;timed;20;81;1;67;38;52;65;0.27000000000000002;0.35999999999999999;0.01;0.35999999999999999;2;77;0;0;0.14000000000000001;0.85999999999999999;0.0;0.0;0;3.583170459640314;72;84;24;2; nein
2019_02_28 12:06;14;3;1;timed;21;101;1;30;96;61;45;0.65000000000000002;0.14000000000000001;0.11;0.10000000000000001;3;98;63;89;0.75;0.19;0.040000000000000001;0.02;0;3.4666291207258837;72;84;24;2; nein
2019_02_28 12:06;14;3;1;timed;22;76;0;39;62;9;28;0.01;0.51000000000000001;0.26000000000000001;0.22;77;7;0;0;0.57999999999999996;0.41999999999999998;0.0;0.0;0;4.066612186565635;72;84;24;2; nein
2019_02_28 12:06;14;3;1;timed;23;42;1;70;48;0;0;0.79000000000000004;0.20999999999999999;0.0;0.0;51;8;12;67;0.19;0.26000000000000001;0.28999999999999998;0.26000000000000001;0;4.349783736663994;72;84;24;2; nein
2019_02_28 12:06;14;3;1;timed;24;134;1;57;48;50;55;0.02;0.62;0.17999999999999999;0.17999999999999999;80;96;15;18;0.23999999999999999;0.35999999999999999;0.33000000000000002;0.070000000000000007;0;5.033110452417986;72;84;24;2; nein
2019_02_28 12:06;14;3;1;timed;25;39;0;14;33;0;0;0.78000000000000003;0.22;0.0;0.0;93;84;1;25;0.14000000000000001;0.23999999999999999;0.39000000000000001;0.23000000000000001;0;7.216524404754637;72;84;24;2; nein
2019_02_28 12:06;14;3;1;timed;26;114;1;57;39;79;97;0.77000000000000002;0.02;0.13;0.080000000000000002;92;36;6;1;0.54000000000000004;0.12;0.13;0.20999999999999999;0;2.8831684070150914;72;84;24;2; nein
2019_02_28 12:06;14;3;1;timed;27;54;1;44;79;78;52;0.79000000000000004;0.19;0.01;0.0099999999999999603;96;1;0;0;0.28000000000000003;0.71999999999999997;0.0;0.0;0;3.1165099080872096;72;84;24;2; nein
2019_02_28 12:06;14;3;1;timed;28;123;1;26;24;51;92;0.72999999999999998;0.16;0.070000000000000007;0.040000000000000001;6;90;82;49;0.64000000000000001;0.25;0.050000000000000003;0.059999999999999998;NA;7.533061702562918;72;84;24;2; nein
2019_02_28 12:06;14;3;1;timed;29;12;0;53;68;0;0;0.31;0.68999999999999995;0.0;0.0;69;54;97;29;0.25;0.20999999999999999;0.20000000000000001;0.34000000000000002;1;2.783240184762235;72;84;24;2; nein
2019_02_28 12:06;14;3;1;timed;30;79;0;52;46;29;22;0.17999999999999999;0.51000000000000001;0.23999999999999999;0.070000000000000104;93;14;0;0;0.45000000000000001;0.55000000000000004;0.0;0.0;0;2.5831974003499454;72;84;24;2; nein
2019_02_28 12:06;14;3;1;timed;31;46;0;5;19;0;0;0.32000000000000001;0.68000000000000005;0.0;0.0;88;38;97;66;0.60999999999999999;0.20000000000000001;0.040000000000000001;0.14999999999999999;1;1.9165659062759914;72;84;24;2; nein
2019_02_28 12:06;14;3;1;timed;32;105;1;49;74;63;58;0.84999999999999998;0.080000000000000002;0.02;0.050000000000000003;97;5;86;8;0.25;0.52000000000000002;0.070000000000000007;0.16;0;3.266518022372111;72;84;24;2; nein
2019_02_28 12:06;14;3;1;timed;33;1;0;22;51;0;0;0.26000000000000001;0.73999999999999999;0.0;0.0;14;11;92;31;0.29999999999999999;0.40999999999999998;0.14999999999999999;0.14000000000000001;0;2.983210485836935;72;84;24;2; nein
2019_02_28 12:06;14;3;1;timed;34;147;1;39;43;76;28;0.14000000000000001;0.10000000000000001;0.10000000000000001;0.66000000000000003;6;31;68;85;0.27000000000000002;0.20000000000000001;0.22;0.31;0;4.633122383303089;72;84;24;2; nein
2019_02_28 12:06;14;3;1;timed;35;43;1;60;83;0;0;0.23000000000000001;0.77000000000000002;0.0;0.0;72;5;70;12;0.29999999999999999;0.40999999999999998;0.12;0.17000000000000001;0;3.199969980352307;72;84;24;2; nein
2019_02_28 12:06;14;3;1;timed;36;143;1;88;44;56;73;0.95999999999999996;0.02;0.01;0.01;20;3;87;32;0.19;0.40000000000000002;0.28000000000000003;0.13;0;4.34979624485004;72;84;24;2; nein
2019_02_28 12:06;14;3;1;timed;37;63;0;56;78;42;36;0.93000000000000005;0.040000000000000001;0.01;0.0199999999999999;2;72;0;0;0.32000000000000001;0.68000000000000005;0.0;0.0;0;3.5164777716699973;72;84;24;2; nein
2019_02_28 12:06;14;3;1;timed;38;22;1;32;55;0;0;0.39000000000000001;0.60999999999999999;0.0;0.0;93;72;59;22;0.20000000000000001;0.11;0.14000000000000001;0.55000000000000004;1;1.8832158739792249;72;84;24;2; nein
2019_02_28 12:06;14;3;1;timed;39;117;0;65;85;92;41;0.23000000000000001;0.17999999999999999;0.54000000000000004;0.050000000000000003;99;93;10;13;0.64000000000000001;0.16;0.01;0.19;0;3.999838676467334;72;84;24;2; nein
2019_02_28 12:06;14;3;1;timed;40;150;0;25;21;78;38;0.84999999999999998;0.059999999999999998;0.050000000000000003;0.040000000000000001;31;43;64;95;0.059999999999999998;0.45000000000000001;0.13;0.35999999999999999;1;5.599756635593167;72;84;24;2; nein
2019_02_28 12:06;14;3;1;timed;41;94;0;84;86;93;39;0.78000000000000003;0.20000000000000001;0.01;0.0099999999999999603;9;83;0;0;0.46999999999999997;0.53000000000000003;0.0;0.0;0;5.3497577581224505;72;84;24;2; nein
2019_02_28 12:06;14;3;1;timed;42;32;1;19;81;0;0;0.93000000000000005;0.070000000000000007;0.0;0.0;1;65;41;68;0.45000000000000001;0.050000000000000003;0.059999999999999998;0.44;1;6.883041400814363;72;84;24;2; nein
2019_02_28 12:06;14;3;1;timed;43;112;0;70;44;98;64;0.02;0.75;0.12;0.11;33;2;63;85;0.23999999999999999;0.31;0.080000000000000002;0.37;0;3.983265650146677;72;84;24;2; nein
2019_02_28 12:06;14;3;1;timed;44;64;1;48;39;34;19;0.46000000000000002;0.5;0.02;0.02;13;92;0;0;0.68999999999999995;0.31;0.0;0.0;0;5.399887362177196;72;84;24;2; nein
2019_02_28 12:06;14;3;1;timed;45;126;1;16;55;51;42;0.68999999999999995;0.23999999999999999;0.01;0.060000000000000102;66;4;1;5;0.46999999999999997;0.38;0.089999999999999997;0.059999999999999998;0;3.566497688551408;72;84;24;2; nein
2019_02_28 12:06;14;3;1;timed;46;122;0;35;58;25;31;0.81999999999999995;0.070000000000000007;0.080000000000000002;0.029999999999999999;18;64;68;89;0.63;0.17000000000000001;0.11;0.089999999999999997;NA;7.53300974548074;72;84;24;2; nein
2019_02_28 12:06;14;3;1;timed;47;34;1;32;48;0;0;0.28000000000000003;0.71999999999999997;0.0;0.0;97;83;7;62;0.040000000000000001;0.54000000000000004;0.35999999999999999;0.059999999999999901;0;5.416473538130049;72;84;24;2; nein
2019_02_28 12:06;14;3;1;timed;48;132;0;27;70;21;19;0.64000000000000001;0.23000000000000001;0.029999999999999999;0.10000000000000001;11;85;55;6;0.39000000000000001;0.46999999999999997;0.029999999999999999;0.11;0;3.5831630830180075;72;84;24;2; nein
2019_02_28 12:06;14;3;1;timed;49;96;0;51;54;39;7;0.17000000000000001;0.26000000000000001;0.10000000000000001;0.46999999999999997;24;96;0;0;0.28000000000000003;0.71999999999999997;0.0;0.0;1;2.6833186976859906;72;84;24;2; nein
2019_02_28 12:06;14;3;1;timed;50;2;1;59;32;0;0;0.080000000000000002;0.92000000000000004;0.0;0.0;33;38;85;1;0.28999999999999998;0.050000000000000003;0.070000000000000007;0.58999999999999997;0;2.5166641115756647;72;84;24;2; nein
2019_02_28 12:06;14;3;1;timed;51;36;0;70;17;0;0;0.33000000000000002;0.67000000000000004;0.0;0.0;84;1;12;88;0.22;0.27000000000000002;0.14000000000000001;0.37;1;5.066423922323338;72;84;24;2; nein
2019_02_28 12:06;14;3;1;timed;52;116;0;53;65;43;99;0.56999999999999995;0.37;0.050000000000000003;0.010000000000000101;57;72;11;87;0.67000000000000004;0.13;0.14999999999999999;0.050000000000000003;0;3.099951955735378;72;84;24;2; nein
2019_02_28 12:06;14;3;1;timed;53;75;0;67;80;36;81;0.81999999999999995;0.080000000000000002;0.059999999999999998;0.040000000000000001;3;97;0;0;0.32000000000000001;0.68000000000000005;0.0;0.0;0;4.599795122320302;72;84;24;2; nein
2019_02_28 12:06;14;3;1;timed;54;125;1;37;41;10;35;0.91000000000000003;0.040000000000000001;0.029999999999999999;0.02;7;13;91;93;0.26000000000000001;0.39000000000000001;0.16;0.19;0;6.099731619220165;72;84;24;2; nein
2019_02_28 12:06;14;3;1;timed;55;53;1;26;70;50;80;0.29999999999999999;0.59999999999999998;0.040000000000000001;0.059999999999999998;89;1;0;0;0.40999999999999998;0.58999999999999997;0.0;0.0;0;4.016473922997193;72;84;24;2; nein
2019_02_28 12:06;14;3;1;timed;56;85;1;31;22;82;50;0.11;0.69999999999999996;0.01;0.17999999999999999;3;99;0;0;0.62;0.38;0.0;0.0;0;3.8498007349685395;72;84;24;2; nein
2019_02_28 12:06;14;3;1;timed;57;118;0;62;52;65;68;0.40999999999999998;0.44;0.10000000000000001;0.0500000000000001;79;20;14;37;0.56999999999999995;0.23999999999999999;0.14000000000000001;0.050000000000000003;0;3.0331771627456874;72;84;24;2; nein
2019_02_28 12:06;14;3;1;timed;58;102;1;40;56;53;17;0.28000000000000003;0.26000000000000001;0.14999999999999999;0.31;1;76;29;62;0.68000000000000005;0.23000000000000001;0.050000000000000003;0.039999999999999897;0;5.016429663260624;72;84;24;2; nein
2019_02_28 12:06;14;3;1;timed;59;84;1;43;10;5;45;0.78000000000000003;0.13;0.059999999999999998;0.029999999999999999;87;1;0;0;0.57999999999999996;0.41999999999999998;0.0;0.0;1;4.616589126601411;72;84;24;2; nein
2019_02_28 12:06;14;3;1;timed;60;51;1;52;23;43;16;0.60999999999999999;0.20999999999999999;0.01;0.17000000000000001;92;7;0;0;0.14999999999999999;0.84999999999999998;0.0;0.0;0;4.416482839088985;72;84;24;2; nein
2019_02_28 12:06;14;3;1;timed;61;121;0;42;51;47;70;0.41999999999999998;0.17000000000000001;0.23999999999999999;0.17000000000000001;21;76;48;9;0.14999999999999999;0.34000000000000002;0.40999999999999998;0.10000000000000001;0;5.08325865839106;72;84;24;2; nein
2019_02_28 12:06;14;3;1;timed;62;86;0;56;30;57;88;0.20000000000000001;0.35999999999999999;0.080000000000000002;0.35999999999999999;98;2;0;0;0.77000000000000002;0.23000000000000001;0.0;0.0;0;2.7998549050371366;72;84;24;2; nein
2019_02_28 12:06;14;3;1;timed;63;37;1;14;98;0;0;0.93000000000000005;0.070000000000000007;0.0;0.0;41;2;87;66;0.17999999999999999;0.48999999999999999;0.32000000000000001;0.010000000000000101;1;4.399913019995893;72;84;24;2; nein
2019_02_28 12:06;14;3;1;timed;64;35;1;33;37;0;0;0.88;0.12;0.0;0.0;63;4;79;98;0.16;0.46000000000000002;0.17000000000000001;0.20999999999999999;1;5.249880530783685;72;84;24;2; nein
2019_02_28 12:06;14;3;1;timed;65;29;1;44;51;0;0;0.78000000000000003;0.22;0.0;0.0;74;1;68;82;0.69999999999999996;0.28000000000000003;0.01;0.01;0;3.783155193238599;72;84;24;2; nein
2019_02_28 12:06;14;3;1;timed;66;70;0;66;55;69;50;0.22;0.29999999999999999;0.29999999999999999;0.17999999999999999;2;90;0;0;0.34000000000000002;0.66000000000000003;0.0;0.0;0;2.9833352469790952;72;84;24;2; nein
2019_02_28 12:06;14;3;1;timed;67;30;1;33;30;0;0;0.71999999999999997;0.28000000000000003;0.0;0.0;9;88;1;14;0.55000000000000004;0.39000000000000001;0.01;0.049999999999999899;0;2.8666855037818095;72;84;24;2; nein
2019_02_28 12:06;14;3;1;timed;68;50;0;15;20;0;0;0.82999999999999996;0.17000000000000001;0.0;0.0;97;18;88;87;0.56999999999999995;0.39000000000000001;0.01;0.029999999999999999;1;4.083285599100236;72;84;24;2; nein
2019_02_28 12:06;14;3;1;timed;69;41;0;99;40;0;0;0.89000000000000001;0.11;0.0;0.0;1;67;52;46;0.51000000000000001;0.38;0.029999999999999999;0.080000000000000002;0;4.68323114038094;72;84;24;2; nein
2019_02_28 12:06;14;3;1;timed;70;62;1;12;45;16;50;0.20999999999999999;0.76000000000000001;0.02;0.01;92;15;0;0;0.20999999999999999;0.79000000000000004;0.0;0.0;NA;7.516341785232271;72;84;24;2; nein
2019_02_28 12:06;14;3;1;timed;71;108;0;48;72;39;70;0.14000000000000001;0.66000000000000003;0.02;0.17999999999999999;81;44;98;8;0.59999999999999998;0.029999999999999999;0.050000000000000003;0.32000000000000001;0;5.183125943325649;72;84;24;2; nein
2019_02_28 12:06;14;3;1;timed;72;131;1;83;41;81;88;0.23999999999999999;0.58999999999999997;0.10000000000000001;0.070000000000000007;82;97;4;17;0.26000000000000001;0.46999999999999997;0.11;0.16;0;2.4998329034579;72;84;24;2; nein
2019_02_28 12:06;14;3;1;timed;73;59;0;56;47;83;90;0.31;0.12;0.54000000000000004;0.029999999999999898;10;98;0;0;0.46999999999999997;0.53000000000000003;0.0;0.0;0;4.483123569977579;72;84;24;2; nein
2019_02_28 12:06;14;3;1;timed;74;57;1;52;35;23;47;0.22;0.68000000000000005;0.040000000000000001;0.059999999999999998;71;7;0;0;0.28999999999999998;0.70999999999999996;0.0;0.0;0;2.2833453818175258;72;84;24;2; nein
2019_02_28 12:06;14;3;1;timed;75;20;0;44;40;0;0;0.91000000000000003;0.089999999999999997;0.0;0.0;29;5;80;99;0.25;0.40000000000000002;0.26000000000000001;0.089999999999999997;0;4.483091497704663;72;84;24;2; nein
2019_02_28 12:06;14;4;1;control;1;127;0;89;26;62;79;0.02;0.28999999999999998;0.53000000000000003;0.16;96;6;60;13;0.53000000000000003;0.25;0.17000000000000001;0.050000000000000003;0;2.939673658207994;72;84;24;2; nein
2019_02_28 12:06;14;4;1;control;2;142;1;98;65;64;84;0.88;0.070000000000000007;0.01;0.040000000000000001;5;68;60;16;0.46000000000000002;0.080000000000000002;0.27000000000000002;0.19;0;3.433146309218955;72;84;24;2; nein
2019_02_28 12:06;14;4;1;control;3;126;1;16;55;51;42;0.68999999999999995;0.23999999999999999;0.01;0.060000000000000102;66;4;1;5;0.46999999999999997;0.38;0.089999999999999997;0.059999999999999998;0;4.733116995161254;72;84;24;2; nein
2019_02_28 12:06;14;4;1;control;4;55;1;74;55;47;48;0.60999999999999999;0.31;0.070000000000000007;0.01;97;6;0;0;0.42999999999999999;0.56999999999999995;0.0;0.0;0;2.3831937441109403;72;84;24;2; nein
2019_02_28 12:06;14;4;1;control;5;61;1;43;18;39;70;0.75;0.089999999999999997;0.089999999999999997;0.070000000000000007;16;66;0;0;0.64000000000000001;0.35999999999999999;0.0;0.0;0;5.566416866423424;72;84;24;2; nein
2019_02_28 12:06;14;4;1;control;6;35;0;33;37;0;0;0.88;0.12;0.0;0.0;63;4;79;98;0.16;0.46000000000000002;0.17000000000000001;0.20999999999999999;1;4.116642045852132;72;84;24;2; nein
2019_02_28 12:06;14;4;1;control;7;6;1;9;51;0;0;0.14999999999999999;0.84999999999999998;0.0;0.0;6;40;50;73;0.42999999999999999;0.26000000000000001;0.059999999999999998;0.25;0;6.216422735649303;72;84;24;2; nein
2019_02_28 12:06;14;4;1;control;8;81;1;67;38;52;65;0.27000000000000002;0.35999999999999999;0.01;0.35999999999999999;2;77;0;0;0.14000000000000001;0.85999999999999999;0.0;0.0;0;3.11650798375058;72;84;24;2; nein
2019_02_28 12:06;14;4;1;control;9;131;0;83;41;81;88;0.23999999999999999;0.58999999999999997;0.10000000000000001;0.070000000000000007;82;97;4;17;0.26000000000000001;0.46999999999999997;0.11;0.16;0;2.9998402800806616;72;84;24;2; nein
2019_02_28 12:06;14;4;1;control;10;129;1;12;29;81;36;0.17999999999999999;0.79000000000000004;0.01;0.02;5;19;95;92;0.47999999999999998;0.26000000000000001;0.13;0.13;0;5.599747655356623;72;84;24;2; nein
2019_02_28 12:06;14;4;1;control;11;69;0;54;34;64;49;0.34000000000000002;0.25;0.20999999999999999;0.20000000000000001;14;98;0;0;0.62;0.38;0.0;0.0;0;4.1831256226032565;72;84;24;2; nein
2019_02_28 12:06;14;4;1;control;12;92;0;90;86;65;94;0.16;0.34000000000000002;0.28000000000000003;0.22;79;22;0;0;0.35999999999999999;0.64000000000000001;0.0;0.0;0;2.5832002868542077;72;84;24;2; nein
2019_02_28 12:06;14;4;1;control;13;5;1;70;5;0;0;0.98999999999999999;0.01;0.0;0.0;92;87;47;1;0.44;0.02;0.16;0.38;0;9.483090535536576;72;84;24;2; nein
2019_02_28 12:06;14;4;1;control;14;24;0;35;27;0;0;0.070000000000000007;0.93000000000000005;0.0;0.0;62;3;81;95;0.35999999999999999;0.55000000000000004;0.01;0.080000000000000002;0;7.233161575621125;72;84;24;2; nein
2019_02_28 12:06;14;4;1;control;15;64;1;48;39;34;19;0.46000000000000002;0.5;0.02;0.02;13;92;0;0;0.68999999999999995;0.31;0.0;0.0;0;5.483109458177296;72;84;24;2; nein
2019_02_28 12:06;14;4;1;control;16;111;0;51;36;48;27;0.93000000000000005;0.01;0.01;0.049999999999999899;31;78;30;53;0.55000000000000004;0.16;0.029999999999999999;0.26000000000000001;1;9.599747334633776;72;84;24;2; nein
2019_02_28 12:06;14;4;1;control;17;16;0;64;53;0;0;0.65000000000000002;0.34999999999999998;0.0;0.0;29;17;81;46;0.10000000000000001;0.01;0.44;0.45000000000000001;0;6.283236015366583;72;84;24;2; nein
2019_02_28 12:06;14;4;1;control;18;29;1;44;51;0;0;0.78000000000000003;0.22;0.0;0.0;74;1;68;82;0.69999999999999996;0.28000000000000003;0.01;0.01;0;3.9998066041939637;72;84;24;2; nein
2019_02_28 12:06;14;4;1;control;19;49;1;21;30;0;0;0.53000000000000003;0.46999999999999997;0.0;0.0;93;99;89;25;0.44;0.02;0.11;0.42999999999999999;1;2.7499959909659992;72;84;24;2; nein
2019_02_28 12:06;14;4;1;control;20;32;1;19;81;0;0;0.93000000000000005;0.070000000000000007;0.0;0.0;1;65;41;68;0.45000000000000001;0.050000000000000003;0.059999999999999998;0.44;1;6.982991432213112;72;84;24;2; nein
2019_02_28 12:06;14;4;1;control;21;65;0;75;64;59;52;0.59999999999999998;0.22;0.14000000000000001;0.040000000000000001;1;99;0;0;0.35999999999999999;0.64000000000000001;0.0;0.0;0;5.883072831642039;72;84;24;2; nein
2019_02_28 12:06;14;4;1;control;22;62;0;12;45;16;50;0.20999999999999999;0.76000000000000001;0.02;0.01;92;15;0;0;0.20999999999999999;0.79000000000000004;0.0;0.0;0;7.649822736547776;72;84;24;2; nein
2019_02_28 12:06;14;4;1;control;23;11;1;17;36;0;0;0.14000000000000001;0.85999999999999999;0.0;0.0;19;41;34;95;0.88;0.02;0.050000000000000003;0.050000000000000003;1;4.749893038969731;72;84;24;2; nein
2019_02_28 12:06;14;4;1;control;24;67;1;44;42;8;89;0.88;0.070000000000000007;0.029999999999999999;0.02;10;63;0;0;0.39000000000000001;0.60999999999999999;0.0;0.0;0;7.6496796942101355;72;84;24;2; nein
2019_02_28 12:06;14;4;1;control;25;86;1;56;30;57;88;0.20000000000000001;0.35999999999999999;0.080000000000000002;0.35999999999999999;98;2;0;0;0.77000000000000002;0.23000000000000001;0.0;0.0;0;3.0498303697486335;72;84;24;2; nein
2019_02_28 12:06;14;4;1;control;26;53;0;26;70;50;80;0.29999999999999999;0.59999999999999998;0.040000000000000001;0.059999999999999998;89;1;0;0;0.40999999999999998;0.58999999999999997;0.0;0.0;0;2.8166540408819856;72;84;24;2; nein
2019_02_28 12:06;14;4;1;control;27;57;0;52;35;23;47;0.22;0.68000000000000005;0.040000000000000001;0.059999999999999998;71;7;0;0;0.28999999999999998;0.70999999999999996;0.0;0.0;0;4.4331578552373685;72;84;24;2; nein
2019_02_28 12:06;14;4;1;control;28;37;1;14;98;0;0;0.93000000000000005;0.070000000000000007;0.0;0.0;41;2;87;66;0.17999999999999999;0.48999999999999999;0.32000000000000001;0.010000000000000101;0;9.832958622277602;72;84;24;2; nein
2019_02_28 12:06;14;4;1;control;29;150;0;25;21;78;38;0.84999999999999998;0.059999999999999998;0.050000000000000003;0.040000000000000001;31;43;64;95;0.059999999999999998;0.45000000000000001;0.13;0.35999999999999999;1;8.533125526386357;72;84;24;2; nein
2019_02_28 12:06;14;4;1;control;30;119;1;60;58;11;18;0.25;0.72999999999999998;0.01;0.01;96;23;42;85;0.44;0.48999999999999999;0.059999999999999998;0.010000000000000101;1;6.466374787601126;72;84;24;2; nein
2019_02_28 12:06;14;4;1;control;31;124;0;37;65;15;41;0.17999999999999999;0.45000000000000001;0.02;0.34999999999999998;40;7;98;30;0.070000000000000007;0.45000000000000001;0.45000000000000001;0.029999999999999898;0;7.333020842487258;72;84;24;2; nein
2019_02_28 12:06;14;4;1;control;32;93;1;87;81;73;98;0.80000000000000004;0.040000000000000001;0.14999999999999999;0.0099999999999999499;5;71;0;0;0.51000000000000001;0.48999999999999999;0.0;0.0;0;3.81649079301269;72;84;24;2; nein
2019_02_28 12:06;14;4;1;control;33;80;0;47;39;45;10;0.13;0.76000000000000001;0.059999999999999998;0.050000000000000003;2;87;0;0;0.48999999999999999;0.51000000000000001;0.0;0.0;0;4.6497871363244485;72;84;24;2; nein
2019_02_28 12:06;14;4;1;control;34;130;0;37;79;23;95;0.94999999999999996;0.029999999999999999;0.01;0.01;94;4;58;49;0.46000000000000002;0.5;0.029999999999999999;0.01;0;4.599930788034726;72;84;24;2; nein
2019_02_28 12:06;14;4;1;control;35;41;1;99;40;0;0;0.89000000000000001;0.11;0.0;0.0;1;67;52;46;0.51000000000000001;0.38;0.029999999999999999;0.080000000000000002;0;3.6499494220256565;72;84;24;2; nein
2019_02_28 12:06;14;4;1;control;36;143;0;88;44;56;73;0.95999999999999996;0.02;0.01;0.01;20;3;87;32;0.19;0.40000000000000002;0.28000000000000003;0.13;0;4.0498098434936765;72;84;24;2; nein
2019_02_28 12:06;14;4;1;control;37;20;0;44;40;0;0;0.91000000000000003;0.089999999999999997;0.0;0.0;29;5;80;99;0.25;0.40000000000000002;0.26000000000000001;0.089999999999999997;0;5.449758142990049;72;84;24;2; nein
2019_02_28 12:06;14;4;1;control;38;70;1;66;55;69;50;0.22;0.29999999999999999;0.29999999999999999;0.17999999999999999;2;90;0;0;0.34000000000000002;0.66000000000000003;0.0;0.0;0;4.316471870371515;72;84;24;2; nein
2019_02_28 12:06;14;4;1;control;39;140;1;36;32;26;27;0.39000000000000001;0.14999999999999999;0.19;0.27000000000000002;44;3;99;25;0.29999999999999999;0.34000000000000002;0.34000000000000002;0.0199999999999999;0;4.166467925481811;72;84;24;2; nein
2019_02_28 12:06;14;4;1;control;40;125;1;37;41;10;35;0.91000000000000003;0.040000000000000001;0.029999999999999999;0.02;7;13;91;93;0.26000000000000001;0.39000000000000001;0.16;0.19;0;16.466044122467338;72;84;24;2; nein
2019_02_28 12:06;14;4;1;control;41;110;1;47;44;23;52;0.13;0.27000000000000002;0.040000000000000001;0.56000000000000005;99;2;30;22;0.28999999999999998;0.5;0.11;0.10000000000000001;0;3.6331451546170683;72;84;24;2; nein
2019_02_28 12:06;14;4;1;control;42;141;1;93;28;60;91;0.81999999999999995;0.10000000000000001;0.01;0.070000000000000007;14;85;7;89;0.45000000000000001;0.070000000000000007;0.23999999999999999;0.23999999999999999;0;6.19972494818694;72;84;24;2; nein
2019_02_28 12:06;14;4;1;control;43;43;0;60;83;0;0;0.23000000000000001;0.77000000000000002;0.0;0.0;72;5;70;12;0.29999999999999999;0.40999999999999998;0.12;0.17000000000000001;0;4.1831403758487795;72;84;24;2; nein
2019_02_28 12:06;14;4;1;control;44;23;1;54;40;0;0;0.93000000000000005;0.070000000000000007;0.0;0.0;36;23;71;86;0.02;0.41999999999999998;0.19;0.37;0;8.016468470710606;72;84;24;2; nein
2019_02_28 12:06;14;4;1;control;45;31;0;10;59;0;0;0.23999999999999999;0.76000000000000001;0.0;0.0;1;79;53;73;0.23000000000000001;0.58999999999999997;0.050000000000000003;0.13;0;6.733066641693313;72;84;24;2; nein
2019_02_28 12:06;14;4;1;control;46;137;0;71;22;28;17;0.25;0.46000000000000002;0.050000000000000003;0.23999999999999999;3;98;92;69;0.42999999999999999;0.23999999999999999;0.20000000000000001;0.13;0;18.365978310163428;72;84;24;2; nein
2019_02_28 12:06;14;4;1;control;47;28;0;47;30;0;0;0.97999999999999998;0.02;0.0;0.0;55;48;77;13;0.070000000000000007;0.26000000000000001;0.42999999999999999;0.23999999999999999;0;12.08286962172042;72;84;24;2; nein
2019_02_28 12:06;14;4;1;control;48;117;1;65;85;92;41;0.23000000000000001;0.17999999999999999;0.54000000000000004;0.050000000000000003;99;93;10;13;0.64000000000000001;0.16;0.01;0.19;0;3.366638678263371;72;84;24;2; nein
2019_02_28 12:06;14;4;1;control;49;52;0;71;51;10;54;0.22;0.12;0.19;0.46999999999999997;91;1;0;0;0.29999999999999999;0.69999999999999996;0.0;0.0;0;2.6999709425208493;72;84;24;2; nein
2019_02_28 12:06;14;4;1;control;50;21;0;64;28;0;0;0.080000000000000002;0.92000000000000004;0.0;0.0;50;1;88;13;0.57999999999999996;0.13;0.02;0.27000000000000002;0;9.116312663608824;72;84;24;2; nein
2019_02_28 12:06;14;4;1;control;51;74;1;66;47;52;44;0.41999999999999998;0.26000000000000001;0.17999999999999999;0.14000000000000001;17;99;0;0;0.47999999999999998;0.52000000000000002;0.0;0.0;0;2.9166467284035207;72;84;24;2; nein
2019_02_28 12:06;14;4;1;control;52;2;1;59;32;0;0;0.080000000000000002;0.92000000000000004;0.0;0.0;33;38;85;1;0.28999999999999998;0.050000000000000003;0.070000000000000007;0.58999999999999997;0;2.3833489739117795;72;84;24;2; nein
2019_02_28 12:06;14;4;1;control;53;17;0;81;52;0;0;0.059999999999999998;0.93999999999999995;0.0;0.0;34;3;69;41;0.01;0.22;0.75;0.02;0;23.21591182434122;72;84;24;2; nein
2019_02_28 12:06;14;4;1;control;54;27;0;44;26;0;0;0.35999999999999999;0.64000000000000001;0.0;0.0;63;10;3;5;0.58999999999999997;0.19;0.14999999999999999;0.070000000000000007;0;3.483136398886927;72;84;24;2; nein
2019_02_28 12:06;14;4;1;control;55;47;1;2;40;0;0;0.45000000000000001;0.55000000000000004;0.0;0.0;93;89;11;56;0.58999999999999997;0.070000000000000007;0.28000000000000003;0.059999999999999998;1;5.349765776190452;72;84;24;2; nein
2019_02_28 12:06;14;4;1;control;56;106;0;85;69;22;61;0.10000000000000001;0.58999999999999997;0.17999999999999999;0.13;20;79;91;84;0.55000000000000004;0.14999999999999999;0.26000000000000001;0.039999999999999897;0;11.566330912732155;72;84;24;2; nein
2019_02_28 12:06;14;4;1;control;57;88;1;77;13;12;7;0.12;0.19;0.66000000000000003;0.029999999999999898;94;2;0;0;0.40999999999999998;0.58999999999999997;0.0;0.0;0;6.116405031754766;72;84;24;2; nein
2019_02_28 12:06;14;4;1;control;58;18;1;68;50;0;0;0.029999999999999999;0.96999999999999997;0.0;0.0;34;64;15;89;0.65000000000000002;0.029999999999999999;0.050000000000000003;0.27000000000000002;0;7.866476392561708;72;84;24;2; nein
2019_02_28 12:06;14;4;1;control;59;26;1;76;41;0;0;0.57999999999999996;0.41999999999999998;0.0;0.0;61;79;84;2;0.13;0.029999999999999999;0.67000000000000004;0.17000000000000001;0;7.882996820354492;72;84;24;2; nein
2019_02_28 12:06;14;4;1;control;60;134;1;57;48;50;55;0.02;0.62;0.17999999999999999;0.17999999999999999;80;96;15;18;0.23999999999999999;0.35999999999999999;0.33000000000000002;0.070000000000000007;0;7.366378251406786;72;84;24;2; nein
2019_02_28 12:06;14;4;1;control;61;15;0;77;81;0;0;0.28000000000000003;0.71999999999999997;0.0;0.0;98;14;87;18;0.55000000000000004;0.23000000000000001;0.16;0.059999999999999901;0;3.1166619306604844;72;84;24;2; nein
2019_02_28 12:06;14;4;1;control;62;98;1;27;10;31;79;0.23000000000000001;0.67000000000000004;0.070000000000000007;0.029999999999999999;25;99;0;0;0.38;0.62;0.0;0.0;1;4.516449227347039;72;84;24;2; nein
2019_02_28 12:06;14;4;1;control;63;71;0;68;55;36;51;0.20000000000000001;0.75;0.02;0.029999999999999999;38;81;0;0;0.52000000000000002;0.47999999999999998;0.0;0.0;0;17.78263850892108;72;84;24;2; nein
2019_02_28 12:06;14;4;1;control;64;48;0;13;32;0;0;0.90000000000000002;0.10000000000000001;0.0;0.0;24;99;84;94;0.62;0.14999999999999999;0.20000000000000001;0.029999999999999999;1;2.5832204923863173;72;84;24;2; nein
2019_02_28 12:06;14;4;1;control;65;9;0;61;69;0;0;0.93999999999999995;0.060000000000000102;0.0;0.0;18;93;72;16;0.40999999999999998;0.34999999999999998;0.089999999999999997;0.14999999999999999;0;7.749673343900213;72;84;24;2; nein
2019_02_28 12:06;14;4;1;control;66;114;1;57;39;79;97;0.77000000000000002;0.02;0.13;0.080000000000000002;92;36;6;1;0.54000000000000004;0.12;0.13;0.20999999999999999;0;6.499723857729805;72;84;24;2; nein
2019_02_28 12:06;14;4;1;control;67;116;1;53;65;43;99;0.56999999999999995;0.37;0.050000000000000003;0.010000000000000101;57;72;11;87;0.67000000000000004;0.13;0.14999999999999999;0.050000000000000003;0;6.883031137686885;72;84;24;2; nein
2019_02_28 12:06;14;4;1;control;68;103;0;38;49;89;50;0.89000000000000001;0.070000000000000007;0.01;0.029999999999999999;6;64;99;27;0.70999999999999996;0.17999999999999999;0.059999999999999998;0.050000000000000003;0;7.799674338140903;72;84;24;2; nein
2019_02_28 12:06;14;4;1;control;69;102;1;40;56;53;17;0.28000000000000003;0.26000000000000001;0.14999999999999999;0.31;1;76;29;62;0.68000000000000005;0.23000000000000001;0.050000000000000003;0.039999999999999897;0;6.033065551235268;72;84;24;2; nein
2019_02_28 12:06;14;4;1;control;70;144;0;99;93;90;71;0.65000000000000002;0.32000000000000001;0.01;0.02;97;14;48;73;0.23000000000000001;0.46000000000000002;0.13;0.17999999999999999;0;4.099938485380335;72;84;24;2; nein
2019_02_28 12:06;14;4;1;control;71;78;0;74;36;34;3;0.14999999999999999;0.64000000000000001;0.13;0.080000000000000002;1;83;0;0;0.41999999999999998;0.57999999999999996;0.0;0.0;0;5.7664278992851905;72;84;24;2; nein
2019_02_28 12:06;14;4;1;control;72;56;1;28;84;37;41;0.68000000000000005;0.28000000000000003;0.02;0.0199999999999999;6;95;0;0;0.72999999999999998;0.27000000000000002;0.0;0.0;0;3.3165055462577584;72;84;24;2; nein
2019_02_28 12:06;14;4;1;control;73;75;0;67;80;36;81;0.81999999999999995;0.080000000000000002;0.059999999999999998;0.040000000000000001;3;97;0;0;0.32000000000000001;0.68000000000000005;0.0;0.0;0;7.416333382297125;72;84;24;2; nein
2019_02_28 12:06;14;4;1;control;74;108;1;48;72;39;70;0.14000000000000001;0.66000000000000003;0.02;0.17999999999999999;81;44;98;8;0.59999999999999998;0.029999999999999999;0.050000000000000003;0.32000000000000001;0;4.299815456141914;72;84;24;2; nein
2019_02_28 12:06;14;4;1;control;75;60;1;64;59;57;96;0.83999999999999997;0.13;0.02;0.01;83;6;0;0;0.54000000000000004;0.46000000000000002;0.0;0.0;0;4.883118374269543;72;84;24;2; nein
