date;id;block;order;cond;trial;gameid;leftright;oa1;oa2;oa3;oa4;pa1;pa2;pa3;pa4;ob1;ob2;ob3;ob4;pb1;pb2;pb3;pb4;choice;rt;paytrial;payout;alter;geschlecht;comment
2019_03_18 10:22;36;0;1;practice;1;50;0;17;12;21;14;0.55000000000000004;0.34000000000000002;0.059999999999999998;0.049999999999999899;13;93;0;0;0.28999999999999998;0.70999999999999996;0.0;0.0;1;7.510220759160802;17;98;20;2;nein
2019_03_18 10:22;36;0;1;practice;2;49;0;14;31;42;22;0.77000000000000002;0.089999999999999997;0.02;0.12;87;28;0;0;0.68000000000000005;0.32000000000000001;0.0;0.0;1;6.766464569232085;17;98;20;2;nein
2019_03_18 10:22;36;0;1;practice;3;53;1;47;24;95;38;0.57999999999999996;0.28000000000000003;0.02;0.12;8;22;93;96;0.54000000000000004;0.34000000000000002;0.10000000000000001;0.0199999999999999;1;6.416653730891085;17;98;20;2;nein
2019_03_18 10:22;36;0;1;practice;4;25;0;7;18;0;0;0.20999999999999999;0.79000000000000004;0.0;0.0;92;45;33;13;0.41999999999999998;0.17999999999999999;0.22;0.17999999999999999;1;6.116530702046475;17;98;20;2;nein
2019_03_18 10:22;36;0;1;practice;5;47;1;91;99;90;78;0.93000000000000005;0.040000000000000001;0.02;0.0099999999999999499;10;87;0;0;0.23000000000000001;0.77000000000000002;0.0;0.0;0;4.0331760941744506;17;98;20;2;nein
2019_03_18 10:22;36;0;1;practice;6;72;0;86;85;97;43;0.51000000000000001;0.14999999999999999;0.33000000000000002;0.0099999999999999499;72;29;10;90;0.01;0.11;0.65000000000000002;0.23000000000000001;0;8.233279174128256;17;98;20;2;nein
2019_03_18 10:22;36;0;1;practice;7;68;0;39;58;40;8;0.48999999999999999;0.44;0.02;0.050000000000000003;92;83;51;2;0.57999999999999996;0.13;0.02;0.27000000000000002;1;4.400031687304363;17;98;20;2;nein
2019_03_18 10:22;36;0;1;practice;8;60;0;39;93;27;78;0.85999999999999999;0.02;0.11;0.01;22;5;62;95;0.059999999999999998;0.56999999999999995;0.14000000000000001;0.23000000000000001;1;4.66658445500434;17;98;20;2;nein
2019_03_18 10:22;36;0;1;practice;9;57;0;39;68;59;91;0.73999999999999999;0.040000000000000001;0.14999999999999999;0.070000000000000007;9;22;40;84;0.29999999999999999;0.32000000000000001;0.040000000000000001;0.34000000000000002;1;5.583310668999729;17;98;20;2;nein
2019_03_18 10:22;36;0;1;practice;10;40;0;29;65;30;41;0.70999999999999996;0.01;0.14999999999999999;0.13;2;59;0;0;0.32000000000000001;0.68000000000000005;0.0;0.0;1;4.516658285138874;17;98;20;2;nein
2019_03_18 10:22;36;0;1;practice;11;38;0;51;89;10;60;0.57999999999999996;0.029999999999999999;0.080000000000000002;0.31;8;84;0;0;0.33000000000000002;0.67000000000000004;0.0;0.0;1;3.5331988654152156;17;98;20;2;nein
2019_03_18 10:22;36;0;1;practice;12;70;1;21;42;14;63;0.96999999999999997;0.01;0.01;0.01;70;2;6;76;0.23999999999999999;0.42999999999999999;0.01;0.32000000000000001;1;3.5498167396208373;17;98;20;2;nein
2019_03_18 10:22;36;0;1;practice;13;39;0;53;65;48;75;0.92000000000000004;0.029999999999999999;0.01;0.040000000000000001;16;83;0;0;0.31;0.68999999999999995;0.0;0.0;1;3.0832795589949455;17;98;20;2;nein
2019_03_18 10:22;36;0;1;practice;14;71;0;94;87;26;75;0.71999999999999997;0.23999999999999999;0.02;0.02;90;27;12;83;0.16;0.73999999999999999;0.02;0.080000000000000002;0;2.6833918757338324;17;98;20;2;nein
2019_03_18 10:22;36;0;1;practice;15;12;0;45;86;0;0;0.97999999999999998;0.02;0.0;0.0;6;23;95;81;0.14999999999999999;0.40999999999999998;0.050000000000000003;0.39000000000000001;1;5.816653987468271;17;98;20;2;nein
2019_03_18 10:22;36;0;1;practice;16;20;0;32;11;0;0;0.40999999999999998;0.58999999999999997;0.0;0.0;1;86;42;65;0.45000000000000001;0.38;0.050000000000000003;0.12;1;5.599913469284729;17;98;20;2;nein
2019_03_18 10:22;36;0;1;practice;17;66;0;44;18;63;36;0.47999999999999998;0.10000000000000001;0.029999999999999999;0.39000000000000001;13;93;61;53;0.52000000000000002;0.45000000000000001;0.02;0.0099999999999999707;1;3.5834280531425975;17;98;20;2;nein
2019_03_18 10:22;36;0;1;practice;18;11;1;10;44;0;0;0.48999999999999999;0.51000000000000001;0.0;0.0;88;12;54;50;0.17000000000000001;0.75;0.02;0.059999999999999998;1;3.5333874497746365;17;98;20;2;nein
2019_03_18 10:22;36;0;1;practice;19;63;0;24;82;6;96;0.91000000000000003;0.070000000000000007;0.01;0.0099999999999999603;73;10;71;22;0.31;0.51000000000000001;0.050000000000000003;0.13;1;3.6331896286301344;17;98;20;2;nein
2019_03_18 10:22;36;0;1;practice;20;73;1;99;88;95;28;0.83999999999999997;0.14000000000000001;0.01;0.01;90;93;10;74;0.080000000000000002;0.46000000000000002;0.34999999999999998;0.11;0;1.6000533039468792;17;98;20;2;nein
2019_03_18 10:22;36;0;1;practice;21;32;1;21;86;16;78;0.45000000000000001;0.41999999999999998;0.050000000000000003;0.080000000000000099;95;9;0;0;0.42999999999999999;0.56999999999999995;0.0;0.0;1;2.533408938129469;17;98;20;2;nein
2019_03_18 10:22;36;0;1;practice;22;64;1;44;60;96;45;0.53000000000000003;0.10000000000000001;0.029999999999999999;0.34000000000000002;88;20;43;31;0.47999999999999998;0.38;0.050000000000000003;0.089999999999999997;1;5.466456679478142;17;98;20;2;nein
2019_03_18 10:22;36;0;1;practice;23;69;0;38;74;27;73;0.22;0.19;0.45000000000000001;0.14000000000000001;1;97;79;84;0.28000000000000003;0.45000000000000001;0.17000000000000001;0.10000000000000001;1;4.183168011986709;17;98;20;2;nein
2019_03_18 10:22;36;0;1;practice;24;29;0;66;40;92;49;0.46999999999999997;0.10000000000000001;0.34000000000000002;0.089999999999999997;8;94;0;0;0.44;0.56000000000000005;0.0;0.0;1;1.8667606595063262;17;98;20;2;nein
2019_03_18 10:22;36;0;1;practice;25;19;1;25;73;0;0;0.69999999999999996;0.29999999999999999;0.0;0.0;87;84;1;86;0.040000000000000001;0.59999999999999998;0.28000000000000003;0.080000000000000002;1;2.399904360789151;17;98;20;2;nein
2019_03_18 10:22;36;0;1;practice;26;30;0;54;78;85;25;0.20999999999999999;0.60999999999999999;0.089999999999999997;0.090000000000000094;87;20;0;0;0.58999999999999997;0.40999999999999998;0.0;0.0;1;2.9831736566893596;17;98;20;2;nein
2019_03_18 10:22;36;0;1;practice;27;65;1;35;15;77;1;0.62;0.33000000000000002;0.029999999999999999;0.02;68;3;25;96;0.38;0.28000000000000003;0.28000000000000003;0.059999999999999901;1;5.099835533911573;17;98;20;2;nein
2019_03_18 10:22;36;0;1;practice;28;17;0;27;61;0;0;0.68999999999999995;0.31;0.0;0.0;3;91;69;43;0.29999999999999999;0.33000000000000002;0.27000000000000002;0.099999999999999895;1;3.366530060603509;17;98;20;2;nein
2019_03_18 10:22;36;0;1;practice;29;18;0;47;36;0;0;0.089999999999999997;0.91000000000000003;0.0;0.0;2;44;81;9;0.20000000000000001;0.25;0.51000000000000001;0.040000000000000001;1;3.316503568990811;17;98;20;2;nein
2019_03_18 10:22;36;0;1;practice;30;14;0;92;56;0;0;0.11;0.89000000000000001;0.0;0.0;97;31;51;4;0.58999999999999997;0.22;0.080000000000000002;0.11;1;3.8000053239802583;17;98;20;2;nein
2019_03_18 10:22;36;0;1;practice;31;58;0;44;50;85;42;0.38;0.57999999999999996;0.02;0.02;37;88;19;12;0.20000000000000001;0.29999999999999999;0.46000000000000002;0.040000000000000001;1;5.883221059356401;17;98;20;2;nein
2019_03_18 10:22;36;0;1;practice;32;42;0;23;45;91;22;0.72999999999999998;0.02;0.20000000000000001;0.050000000000000003;2;86;0;0;0.40999999999999998;0.58999999999999997;0.0;0.0;0;2.1332582630739125;17;98;20;2;nein
2019_03_18 10:22;36;0;1;practice;33;75;0;21;86;27;62;0.88;0.040000000000000001;0.070000000000000007;0.0099999999999999794;13;3;49;87;0.28999999999999998;0.39000000000000001;0.070000000000000007;0.25;1;2.7834111831807604;17;98;20;2;nein
2019_03_18 10:22;36;0;1;practice;34;22;0;84;87;0;0;0.17000000000000001;0.82999999999999996;0.0;0.0;3;24;41;83;0.68000000000000005;0.11;0.10000000000000001;0.11;0;2.9165616837635753;17;98;20;2;nein
2019_03_18 10:22;36;0;1;practice;35;5;1;23;58;0;0;0.71999999999999997;0.28000000000000003;0.0;0.0;94;12;52;3;0.11;0.84999999999999998;0.029999999999999999;0.01;1;3.5333098351229637;17;98;20;2;nein
2019_03_18 10:22;36;0;1;practice;36;4;0;40;59;0;0;0.19;0.81000000000000005;0.0;0.0;10;88;13;45;0.56000000000000005;0.28999999999999998;0.01;0.14000000000000001;1;5.966483940823309;17;98;20;2;nein
2019_03_18 10:22;36;0;1;practice;37;7;0;13;31;0;0;0.51000000000000001;0.48999999999999999;0.0;0.0;8;79;42;18;0.85999999999999999;0.089999999999999997;0.02;0.029999999999999999;0;5.883119069855638;17;98;20;2;nein
2019_03_18 10:22;36;0;1;practice;38;26;0;24;46;74;59;0.29999999999999999;0.11;0.25;0.34000000000000002;91;6;0;0;0.28999999999999998;0.70999999999999996;0.0;0.0;1;2.799870620866386;17;98;20;2;nein
2019_03_18 10:22;36;0;1;practice;39;2;1;41;60;0;0;0.97999999999999998;0.02;0.0;0.0;10;14;97;6;0.54000000000000004;0.17000000000000001;0.12;0.17000000000000001;0;5.53327455573708;17;98;20;2;nein
2019_03_18 10:22;36;0;1;practice;40;10;0;34;59;0;0;0.16;0.83999999999999997;0.0;0.0;21;61;96;7;0.19;0.01;0.5;0.29999999999999999;1;3.083252618372171;17;98;20;2;nein
2019_03_18 10:22;36;0;1;practice;41;74;0;36;46;10;12;0.11;0.19;0.65000000000000002;0.049999999999999899;92;24;79;19;0.51000000000000001;0.40999999999999998;0.02;0.059999999999999998;1;3.3498897358795148;17;98;20;2;nein
2019_03_18 10:22;36;0;1;practice;42;56;1;47;52;64;10;0.77000000000000002;0.040000000000000001;0.11;0.080000000000000002;1;5;12;99;0.14000000000000001;0.28999999999999998;0.27000000000000002;0.29999999999999999;1;2.333149666706049;17;98;20;2;nein
2019_03_18 10:22;36;0;1;practice;43;67;0;74;31;10;77;0.11;0.070000000000000007;0.77000000000000002;0.050000000000000003;2;23;8;97;0.56999999999999995;0.01;0.059999999999999998;0.35999999999999999;1;2.8832024574985553;17;98;20;2;nein
2019_03_18 10:22;36;0;1;practice;44;1;0;67;36;0;0;0.14999999999999999;0.84999999999999998;0.0;0.0;1;4;81;77;0.25;0.54000000000000004;0.14000000000000001;0.070000000000000007;0;4.599992687545637;17;98;20;2;nein
2019_03_18 10:22;36;0;1;practice;45;34;0;57;23;66;79;0.56000000000000005;0.23000000000000001;0.13;0.079999999999999905;85;9;0;0;0.56000000000000005;0.44;0.0;0.0;1;2.8665836211275746;17;98;20;2;nein
2019_03_18 10:22;36;0;1;practice;46;59;0;13;27;48;51;0.56999999999999995;0.13;0.13;0.17000000000000001;8;37;97;1;0.65000000000000002;0.16;0.14999999999999999;0.040000000000000001;1;6.14999961513422;17;98;20;2;nein
2019_03_18 10:22;36;0;1;practice;47;62;1;65;52;74;55;0.16;0.12;0.14999999999999999;0.56999999999999995;72;86;2;68;0.12;0.53000000000000003;0.22;0.13;1;4.8167033786103275;17;98;20;2;nein
2019_03_18 10:22;36;0;1;practice;48;37;0;50;66;99;12;0.26000000000000001;0.71999999999999997;0.01;0.01;22;90;0;0;0.37;0.63;0.0;0.0;1;2.0331510778814845;17;98;20;2;nein
2019_03_18 10:22;36;0;1;practice;49;46;0;79;57;98;81;0.67000000000000004;0.070000000000000007;0.20999999999999999;0.050000000000000003;1;76;0;0;0.56000000000000005;0.44;0.0;0.0;0;2.4331590317797236;17;98;20;2;nein
2019_03_18 10:22;36;0;1;practice;50;33;1;54;82;55;71;0.56000000000000005;0.20999999999999999;0.02;0.20999999999999999;13;99;0;0;0.5;0.5;0.0;0.0;1;2.5999173179452555;17;98;20;2;nein
2019_03_18 10:22;36;0;1;practice;51;55;0;53;11;80;74;0.31;0.37;0.28000000000000003;0.039999999999999897;6;93;98;96;0.69999999999999996;0.22;0.050000000000000003;0.029999999999999999;1;4.183244985195415;17;98;20;2;nein
2019_03_18 10:22;36;0;1;practice;52;6;0;42;59;0;0;0.35999999999999999;0.64000000000000001;0.0;0.0;77;19;6;7;0.44;0.14999999999999999;0.17999999999999999;0.23000000000000001;1;4.633224266573052;17;98;20;2;nein
2019_03_18 10:22;36;0;1;practice;53;43;0;11;17;21;44;0.16;0.46000000000000002;0.25;0.13;2;66;0;0;0.44;0.56000000000000005;0.0;0.0;0;4.666644429962616;17;98;20;2;nein
2019_03_18 10:22;36;0;1;practice;54;52;1;17;61;57;59;0.070000000000000007;0.050000000000000003;0.33000000000000002;0.55000000000000004;12;93;94;62;0.71999999999999997;0.16;0.080000000000000002;0.040000000000000001;1;2.566715245314299;17;98;20;2;nein
2019_03_18 10:22;36;0;1;practice;55;54;0;69;80;22;55;0.27000000000000002;0.31;0.059999999999999998;0.35999999999999999;52;2;49;90;0.059999999999999998;0.33000000000000002;0.20000000000000001;0.40999999999999998;1;3.183214516634507;17;98;20;2;nein
2019_03_18 10:22;36;0;1;practice;56;28;0;37;83;75;8;0.83999999999999997;0.070000000000000007;0.01;0.080000000000000002;94;2;0;0;0.19;0.81000000000000005;0.0;0.0;1;4.1833399188190015;17;98;20;2;nein
2019_03_18 10:22;36;0;1;practice;57;41;0;19;54;51;8;0.76000000000000001;0.070000000000000007;0.16;0.0099999999999999794;2;77;0;0;0.54000000000000004;0.46000000000000002;0.0;0.0;1;4.300006286144708;17;98;20;2;nein
2019_03_18 10:22;36;0;1;practice;58;21;1;59;69;0;0;0.34000000000000002;0.66000000000000003;0.0;0.0;64;18;5;24;0.14999999999999999;0.040000000000000001;0.51000000000000001;0.29999999999999999;0;3.583190398361694;17;98;20;2;nein
2019_03_18 10:22;36;0;1;practice;59;3;0;20;70;0;0;0.13;0.87;0.0;0.0;95;19;80;73;0.31;0.57999999999999996;0.029999999999999999;0.080000000000000002;1;4.849998460535971;17;98;20;2;nein
2019_03_18 10:22;36;0;1;practice;60;23;0;99;93;0;0;0.57999999999999996;0.41999999999999998;0.0;0.0;64;10;80;81;0.13;0.55000000000000004;0.02;0.29999999999999999;0;3.6001142410696048;17;98;20;2;nein
2019_03_18 10:22;36;0;1;practice;61;51;1;38;13;51;84;0.91000000000000003;0.070000000000000007;0.01;0.0099999999999999603;4;89;35;16;0.80000000000000004;0.089999999999999997;0.059999999999999998;0.050000000000000003;0;7.733130359259121;17;98;20;2;nein
2019_03_18 10:22;36;0;1;practice;62;13;1;15;25;0;0;0.29999999999999999;0.69999999999999996;0.0;0.0;3;43;35;73;0.44;0.40000000000000002;0.01;0.14999999999999999;1;4.666491124989079;17;98;20;2;nein
2019_03_18 10:22;36;0;1;practice;63;16;0;50;42;0;0;0.32000000000000001;0.68000000000000005;0.0;0.0;97;2;56;31;0.35999999999999999;0.16;0.16;0.32000000000000001;1;4.26652871357237;17;98;20;2;nein
2019_03_18 10:22;36;0;1;practice;64;36;0;56;89;86;77;0.66000000000000003;0.080000000000000002;0.14999999999999999;0.11;29;91;0;0;0.40999999999999998;0.58999999999999997;0.0;0.0;1;7.966635642187612;17;98;20;2;nein
2019_03_18 10:22;36;0;1;practice;65;31;1;72;59;40;92;0.59999999999999998;0.34999999999999998;0.02;0.029999999999999999;97;29;0;0;0.38;0.62;0.0;0.0;1;5.6665491756166375;17;98;20;2;nein
2019_03_18 10:22;36;0;1;practice;66;44;1;69;48;22;63;0.39000000000000001;0.40999999999999998;0.19;0.01;1;94;0;0;0.22;0.78000000000000003;0.0;0.0;1;5.183440946155315;17;98;20;2;nein
2019_03_18 10:22;36;0;1;practice;67;48;1;20;25;24;35;0.32000000000000001;0.13;0.48999999999999999;0.059999999999999901;44;76;0;0;0.29999999999999999;0.69999999999999996;0.0;0.0;1;3.08348866954384;17;98;20;2;nein
2019_03_18 10:22;36;0;1;practice;68;8;1;20;44;0;0;0.26000000000000001;0.73999999999999999;0.0;0.0;99;3;69;24;0.20999999999999999;0.60999999999999999;0.12;0.060000000000000102;1;3.0666684199450174;17;98;20;2;nein
2019_03_18 10:22;36;0;1;practice;69;15;0;24;59;0;0;0.56999999999999995;0.42999999999999999;0.0;0.0;9;8;80;22;0.31;0.10000000000000001;0.55000000000000004;0.039999999999999897;1;3.050037396150401;17;98;20;2;nein
2019_03_18 10:22;36;0;1;practice;70;61;0;51;48;56;88;0.91000000000000003;0.02;0.01;0.059999999999999998;78;21;14;82;0.55000000000000004;0.29999999999999999;0.070000000000000007;0.080000000000000002;0;4.749847977914214;17;98;20;2;nein
2019_03_18 10:22;36;0;1;practice;71;24;1;19;38;0;0;0.89000000000000001;0.11;0.0;0.0;45;76;95;57;0.29999999999999999;0.22;0.40000000000000002;0.080000000000000002;1;2.2832479358357887;17;98;20;2;nein
2019_03_18 10:22;36;0;1;practice;72;35;0;84;95;4;35;0.89000000000000001;0.050000000000000003;0.01;0.050000000000000003;5;98;0;0;0.19;0.81000000000000005;0.0;0.0;1;1.9666760531217733;17;98;20;2;nein
2019_03_18 10:22;36;0;1;practice;73;9;1;57;44;0;0;0.14999999999999999;0.84999999999999998;0.0;0.0;38;35;64;95;0.34000000000000002;0.45000000000000001;0.089999999999999997;0.12;1;3.983161148542422;17;98;20;2;nein
2019_03_18 10:22;36;0;1;practice;74;45;1;37;40;75;23;0.54000000000000004;0.38;0.059999999999999998;0.02;1;90;0;0;0.28000000000000003;0.71999999999999997;0.0;0.0;1;2.2499223853483272;17;98;20;2;nein
2019_03_18 10:22;36;0;1;practice;75;27;1;68;43;98;36;0.54000000000000004;0.44;0.01;0.0099999999999999603;97;13;0;0;0.27000000000000002;0.72999999999999998;0.0;0.0;0;7.099833288860282;17;98;20;2;nein
2019_03_18 10:22;36;1;1;timed;1;84;1;43;10;5;45;0.78000000000000003;0.13;0.059999999999999998;0.029999999999999999;87;1;0;0;0.57999999999999996;0.41999999999999998;0.0;0.0;1;2.0556936440661957;17;98;20;2;nein
2019_03_18 10:22;36;1;1;timed;2;38;0;40;70;0;0;0.53000000000000003;0.46999999999999997;0.0;0.0;97;90;6;96;0.56999999999999995;0.070000000000000007;0.27000000000000002;0.089999999999999997;1;1.1999023081707492;17;98;20;2;nein
2019_03_18 10:22;36;1;1;timed;3;125;0;37;41;10;35;0.91000000000000003;0.040000000000000001;0.029999999999999999;0.02;7;13;91;93;0.26000000000000001;0.39000000000000001;0.16;0.19;0;1.69987376393874;17;98;20;2;nein
2019_03_18 10:22;36;1;1;timed;4;94;0;84;86;93;39;0.78000000000000003;0.20000000000000001;0.01;0.0099999999999999603;9;83;0;0;0.46999999999999997;0.53000000000000003;0.0;0.0;0;1.3334392784017837;17;98;20;2;nein
2019_03_18 10:22;36;1;1;timed;5;19;0;22;53;0;0;0.13;0.87;0.0;0.0;4;93;96;65;0.46999999999999997;0.059999999999999998;0.26000000000000001;0.20999999999999999;1;1.0166143462665787;17;98;20;2;nein
2019_03_18 10:22;36;1;1;timed;6;35;1;33;37;0;0;0.88;0.12;0.0;0.0;63;4;79;98;0.16;0.46000000000000002;0.17000000000000001;0.20999999999999999;1;1.4499500957035707;17;98;20;2;nein
2019_03_18 10:22;36;1;1;timed;7;55;0;74;55;47;48;0.60999999999999999;0.31;0.070000000000000007;0.01;97;6;0;0;0.42999999999999999;0.56999999999999995;0.0;0.0;1;1.6499107752224518;17;98;20;2;nein
2019_03_18 10:22;36;1;1;timed;8;39;0;14;33;0;0;0.78000000000000003;0.22;0.0;0.0;93;84;1;25;0.14000000000000001;0.23999999999999999;0.39000000000000001;0.23000000000000001;1;1.36657784813724;17;98;20;2;nein
2019_03_18 10:22;36;1;1;timed;9;71;0;68;55;36;51;0.20000000000000001;0.75;0.02;0.029999999999999999;38;81;0;0;0.52000000000000002;0.47999999999999998;0.0;0.0;0;1.2331967486525173;17;98;20;2;nein
2019_03_18 10:22;36;1;1;timed;10;70;1;66;55;69;50;0.22;0.29999999999999999;0.29999999999999999;0.17999999999999999;2;90;0;0;0.34000000000000002;0.66000000000000003;0.0;0.0;0;1.133386231032091;17;98;20;2;nein
2019_03_18 10:22;36;1;1;timed;11;25;0;50;53;0;0;0.82999999999999996;0.17000000000000001;0.0;0.0;83;16;97;4;0.45000000000000001;0.29999999999999999;0.11;0.14000000000000001;1;1.3332186218713105;17;98;20;2;nein
2019_03_18 10:22;36;1;1;timed;12;134;0;57;48;50;55;0.02;0.62;0.17999999999999999;0.17999999999999999;80;96;15;18;0.23999999999999999;0.35999999999999999;0.33000000000000002;0.070000000000000007;1;2.066530830335978;17;98;20;2;nein
2019_03_18 10:22;36;1;1;timed;13;40;0;45;49;0;0;0.68999999999999995;0.31;0.0;0.0;2;92;65;73;0.23999999999999999;0.59999999999999998;0.11;0.050000000000000003;1;2.083259674249348;17;98;20;2;nein
2019_03_18 10:22;36;1;1;timed;14;143;1;88;44;56;73;0.95999999999999996;0.02;0.01;0.01;20;3;87;32;0.19;0.40000000000000002;0.28000000000000003;0.13;0;1.9833984826018423;17;98;20;2;nein
2019_03_18 10:22;36;1;1;timed;15;123;0;26;24;51;92;0.72999999999999998;0.16;0.070000000000000007;0.040000000000000001;6;90;82;49;0.64000000000000001;0.25;0.050000000000000003;0.059999999999999998;1;1.7498922375089023;17;98;20;2;nein
2019_03_18 10:22;36;1;1;timed;16;52;0;71;51;10;54;0.22;0.12;0.19;0.46999999999999997;91;1;0;0;0.29999999999999999;0.69999999999999996;0.0;0.0;1;1.56657765570435;17;98;20;2;nein
2019_03_18 10:22;36;1;1;timed;17;122;0;35;58;25;31;0.81999999999999995;0.070000000000000007;0.080000000000000002;0.029999999999999999;18;64;68;89;0.63;0.17000000000000001;0.11;0.089999999999999997;0;1.6833739153198621;17;98;20;2;nein
2019_03_18 10:22;36;1;1;timed;18;115;0;50;28;61;79;0.83999999999999997;0.040000000000000001;0.059999999999999998;0.059999999999999998;1;26;97;55;0.45000000000000001;0.080000000000000002;0.40999999999999998;0.060000000000000102;1;1.583238185895425;17;98;20;2;nein
2019_03_18 10:22;36;1;1;timed;19;30;0;33;30;0;0;0.71999999999999997;0.28000000000000003;0.0;0.0;9;88;1;14;0.55000000000000004;0.39000000000000001;0.01;0.049999999999999899;1;1.3331365171161451;17;98;20;2;nein
2019_03_18 10:22;36;1;1;timed;20;89;0;26;41;13;56;0.059999999999999998;0.40999999999999998;0.050000000000000003;0.47999999999999998;5;97;0;0;0.37;0.63;0.0;0.0;1;1.5000291856749755;17;98;20;2;nein
2019_03_18 10:22;36;1;1;timed;21;50;1;15;20;0;0;0.82999999999999996;0.17000000000000001;0.0;0.0;97;18;88;87;0.56999999999999995;0.39000000000000001;0.01;0.029999999999999999;1;1.2002801183334668;17;98;20;2;nein
2019_03_18 10:22;36;1;1;timed;22;23;0;54;40;0;0;0.93000000000000005;0.070000000000000007;0.0;0.0;36;23;71;86;0.02;0.41999999999999998;0.19;0.37;1;1.8499157143369303;17;98;20;2;nein
2019_03_18 10:22;36;1;1;timed;23;46;1;5;19;0;0;0.32000000000000001;0.68000000000000005;0.0;0.0;88;38;97;66;0.60999999999999999;0.20000000000000001;0.040000000000000001;0.14999999999999999;1;1.2001075700582078;17;98;20;2;nein
2019_03_18 10:22;36;1;1;timed;24;92;0;90;86;65;94;0.16;0.34000000000000002;0.28000000000000003;0.22;79;22;0;0;0.35999999999999999;0.64000000000000001;0.0;0.0;1;1.3666022229863302;17;98;20;2;nein
2019_03_18 10:22;36;1;1;timed;25;109;0;75;28;16;56;0.19;0.070000000000000007;0.059999999999999998;0.68000000000000005;3;50;98;44;0.5;0.02;0.34999999999999998;0.13;1;1.96655706537058;17;98;20;2;nein
2019_03_18 10:22;36;1;1;timed;26;96;0;51;54;39;7;0.17000000000000001;0.26000000000000001;0.10000000000000001;0.46999999999999997;24;96;0;0;0.28000000000000003;0.71999999999999997;0.0;0.0;1;1.533249860165597;17;98;20;2;nein
2019_03_18 10:22;36;1;1;timed;27;133;0;59;88;60;36;0.67000000000000004;0.070000000000000007;0.12;0.14000000000000001;7;91;66;61;0.25;0.68999999999999995;0.01;0.0500000000000001;1;1.9499122505421838;17;98;20;2;nein
2019_03_18 10:22;36;1;1;timed;28;10;0;45;62;0;0;0.059999999999999998;0.93999999999999995;0.0;0.0;17;99;28;67;0.58999999999999997;0.34000000000000002;0.01;0.059999999999999998;1;1.4003100737409113;17;98;20;2;nein
2019_03_18 10:22;36;1;1;timed;29;29;1;44;51;0;0;0.78000000000000003;0.22;0.0;0.0;74;1;68;82;0.69999999999999996;0.28000000000000003;0.01;0.01;1;1.399931942855801;17;98;20;2;nein
2019_03_18 10:22;36;1;1;timed;30;61;0;43;18;39;70;0.75;0.089999999999999997;0.089999999999999997;0.070000000000000007;16;66;0;0;0.64000000000000001;0.35999999999999999;0.0;0.0;0;1.2665441082144753;17;98;20;2;nein
2019_03_18 10:22;36;1;1;timed;31;112;1;70;44;98;64;0.02;0.75;0.12;0.11;33;2;63;85;0.23999999999999999;0.31;0.080000000000000002;0.37;0;1.9332491545783341;17;98;20;2;nein
2019_03_18 10:22;36;1;1;timed;32;36;1;70;17;0;0;0.33000000000000002;0.67000000000000004;0.0;0.0;84;1;12;88;0.22;0.27000000000000002;0.14000000000000001;0.37;1;2.0665750899297564;17;98;20;2;nein
2019_03_18 10:22;36;1;1;timed;33;32;1;19;81;0;0;0.93000000000000005;0.070000000000000007;0.0;0.0;1;65;41;68;0.45000000000000001;0.050000000000000003;0.059999999999999998;0.44;1;1.3001310468871452;17;98;20;2;nein
2019_03_18 10:22;36;1;1;timed;34;1;1;22;51;0;0;0.26000000000000001;0.73999999999999999;0.0;0.0;14;11;92;31;0.29999999999999999;0.40999999999999998;0.14999999999999999;0.14000000000000001;1;1.4666160781634971;17;98;20;2;nein
2019_03_18 10:22;36;1;1;timed;35;142;0;98;65;64;84;0.88;0.070000000000000007;0.01;0.040000000000000001;5;68;60;16;0.46000000000000002;0.080000000000000002;0.27000000000000002;0.19;0;1.7000809501569165;17;98;20;2;nein
2019_03_18 10:22;36;1;1;timed;36;65;1;75;64;59;52;0.59999999999999998;0.22;0.14000000000000001;0.040000000000000001;1;99;0;0;0.35999999999999999;0.64000000000000001;0.0;0.0;1;1.5832551841449458;17;98;20;2;nein
2019_03_18 10:22;36;1;1;timed;37;103;1;38;49;89;50;0.89000000000000001;0.070000000000000007;0.01;0.029999999999999999;6;64;99;27;0.70999999999999996;0.17999999999999999;0.059999999999999998;0.050000000000000003;1;1.549940538196097;17;98;20;2;nein
2019_03_18 10:22;36;1;1;timed;38;37;1;14;98;0;0;0.93000000000000005;0.070000000000000007;0.0;0.0;41;2;87;66;0.17999999999999999;0.48999999999999999;0.32000000000000001;0.010000000000000101;0;1.3333911701465695;17;98;20;2;nein
2019_03_18 10:22;36;1;1;timed;39;120;0;64;40;48;51;0.19;0.02;0.070000000000000007;0.71999999999999997;97;9;79;94;0.23000000000000001;0.54000000000000004;0.01;0.22;1;1.5664670067171755;17;98;20;2;nein
2019_03_18 10:22;36;1;1;timed;40;17;0;81;52;0;0;0.059999999999999998;0.93999999999999995;0.0;0.0;34;3;69;41;0.01;0.22;0.75;0.02;0;1.950069083454764;17;98;20;2;nein
2019_03_18 10:22;36;1;1;timed;41;127;0;89;26;62;79;0.02;0.28999999999999998;0.53000000000000003;0.16;96;6;60;13;0.53000000000000003;0.25;0.17000000000000001;0.050000000000000003;1;1.4667241613769875;17;98;20;2;nein
2019_03_18 10:22;36;1;1;timed;42;79;0;52;46;29;22;0.17999999999999999;0.51000000000000001;0.23999999999999999;0.070000000000000104;93;14;0;0;0.45000000000000001;0.55000000000000004;0.0;0.0;1;1.3999444510009198;17;98;20;2;nein
2019_03_18 10:22;36;1;1;timed;43;49;1;21;30;0;0;0.53000000000000003;0.46999999999999997;0.0;0.0;93;99;89;25;0.44;0.02;0.11;0.42999999999999999;1;1.5001061588827724;17;98;20;2;nein
2019_03_18 10:22;36;1;1;timed;44;126;0;16;55;51;42;0.68999999999999995;0.23999999999999999;0.01;0.060000000000000102;66;4;1;5;0.46999999999999997;0.38;0.089999999999999997;0.059999999999999998;1;1.7332525542278745;17;98;20;2;nein
2019_03_18 10:22;36;1;1;timed;45;111;0;51;36;48;27;0.93000000000000005;0.01;0.01;0.049999999999999899;31;78;30;53;0.55000000000000004;0.16;0.029999999999999999;0.26000000000000001;1;1.5165133189311746;17;98;20;2;nein
2019_03_18 10:22;36;1;1;timed;46;21;1;64;28;0;0;0.080000000000000002;0.92000000000000004;0.0;0.0;50;1;88;13;0.57999999999999996;0.13;0.02;0.27000000000000002;1;1.3997456035467621;17;98;20;2;nein
2019_03_18 10:22;36;1;1;timed;47;136;1;29;67;14;75;0.46000000000000002;0.29999999999999999;0.20999999999999999;0.0300000000000001;70;86;1;85;0.31;0.39000000000000001;0.27000000000000002;0.029999999999999898;1;1.6499033986237919;17;98;20;2;nein
2019_03_18 10:22;36;1;1;timed;48;102;0;40;56;53;17;0.28000000000000003;0.26000000000000001;0.14999999999999999;0.31;1;76;29;62;0.68000000000000005;0.23000000000000001;0.050000000000000003;0.039999999999999897;0;1.4166604660467783;17;98;20;2;nein
2019_03_18 10:22;36;1;1;timed;49;147;0;39;43;76;28;0.14000000000000001;0.10000000000000001;0.10000000000000001;0.66000000000000003;6;31;68;85;0.27000000000000002;0.20000000000000001;0.22;0.31;0;1.700068121289405;17;98;20;2;nein
2019_03_18 10:22;36;1;1;timed;50;107;0;52;48;13;63;0.68000000000000005;0.19;0.050000000000000003;0.079999999999999905;54;91;33;3;0.19;0.17999999999999999;0.33000000000000002;0.29999999999999999;1;1.2167552713817713;17;98;20;2;nein
2019_03_18 10:22;36;1;1;timed;51;5;1;70;5;0;0;0.98999999999999999;0.01;0.0;0.0;92;87;47;1;0.44;0.02;0.16;0.38;1;1.4665965141393826;17;98;20;2;nein
2019_03_18 10:22;36;1;1;timed;52;95;1;93;88;68;85;0.83999999999999997;0.14000000000000001;0.01;0.01;2;82;0;0;0.41999999999999998;0.57999999999999996;0.0;0.0;0;1.5332197123252627;17;98;20;2;nein
2019_03_18 10:22;36;1;1;timed;53;99;0;8;24;15;73;0.56000000000000005;0.35999999999999999;0.070000000000000007;0.0099999999999999499;88;12;0;0;0.52000000000000002;0.47999999999999998;0.0;0.0;1;1.3000659403815007;17;98;20;2;nein
2019_03_18 10:22;36;1;1;timed;54;3;0;53;40;0;0;0.31;0.68999999999999995;0.0;0.0;96;24;7;88;0.11;0.27000000000000002;0.58999999999999997;0.029999999999999999;1;1.4999461187544512;17;98;20;2;nein
2019_03_18 10:22;36;1;1;timed;55;26;0;76;41;0;0;0.57999999999999996;0.41999999999999998;0.0;0.0;61;79;84;2;0.13;0.029999999999999999;0.67000000000000004;0.17000000000000001;1;1.6332156070875499;17;98;20;2;nein
2019_03_18 10:22;36;1;1;timed;56;141;1;93;28;60;91;0.81999999999999995;0.10000000000000001;0.01;0.070000000000000007;14;85;7;89;0.45000000000000001;0.070000000000000007;0.23999999999999999;0.23999999999999999;0;2.0498481703471043;17;98;20;2;nein
2019_03_18 10:22;36;1;1;timed;57;81;1;67;38;52;65;0.27000000000000002;0.35999999999999999;0.01;0.35999999999999999;2;77;0;0;0.14000000000000001;0.85999999999999999;0.0;0.0;0;1.3666051094814975;17;98;20;2;nein
2019_03_18 10:22;36;1;1;timed;58;149;0;14;89;73;53;0.93999999999999995;0.01;0.01;0.040000000000000001;97;45;6;13;0.34000000000000002;0.01;0.40999999999999998;0.23999999999999999;1;1.7665896506950958;17;98;20;2;nein
2019_03_18 10:22;36;1;1;timed;59;58;1;37;58;76;34;0.20999999999999999;0.57999999999999996;0.19;0.020000000000000101;86;5;0;0;0.47999999999999998;0.52000000000000002;0.0;0.0;1;1.9001753706261297;17;98;20;2;nein
2019_03_18 10:22;36;1;1;timed;60;86;1;56;30;57;88;0.20000000000000001;0.35999999999999999;0.080000000000000002;0.35999999999999999;98;2;0;0;0.77000000000000002;0.23000000000000001;0.0;0.0;1;1.4666350007446454;17;98;20;2;nein
2019_03_18 10:22;36;1;1;timed;61;88;1;77;13;12;7;0.12;0.19;0.66000000000000003;0.029999999999999898;94;2;0;0;0.40999999999999998;0.58999999999999997;0.0;0.0;1;1.416596000985919;17;98;20;2;nein
2019_03_18 10:22;36;1;1;timed;62;14;0;36;40;0;0;0.54000000000000004;0.46000000000000002;0.0;0.0;99;70;1;11;0.16;0.089999999999999997;0.080000000000000002;0.67000000000000004;1;1.2999152011816477;17;98;20;2;nein
2019_03_18 10:22;36;1;1;timed;63;138;1;8;20;43;51;0.38;0.5;0.02;0.10000000000000001;72;82;70;1;0.39000000000000001;0.050000000000000003;0.070000000000000007;0.48999999999999999;0;1.933224138285368;17;98;20;2;nein
2019_03_18 10:22;36;1;1;timed;64;47;1;2;40;0;0;0.45000000000000001;0.55000000000000004;0.0;0.0;93;89;11;56;0.58999999999999997;0.070000000000000007;0.28000000000000003;0.059999999999999998;1;1.3665550768955654;17;98;20;2;nein
2019_03_18 10:22;36;1;1;timed;65;78;1;74;36;34;3;0.14999999999999999;0.64000000000000001;0.13;0.080000000000000002;1;83;0;0;0.41999999999999998;0.57999999999999996;0.0;0.0;1;1.49991949885316;17;98;20;2;nein
2019_03_18 10:22;36;1;1;timed;66;150;0;25;21;78;38;0.84999999999999998;0.059999999999999998;0.050000000000000003;0.040000000000000001;31;43;64;95;0.059999999999999998;0.45000000000000001;0.13;0.35999999999999999;1;1.483210218962995;17;98;20;2;nein
2019_03_18 10:22;36;1;1;timed;67;83;0;17;12;7;41;0.65000000000000002;0.19;0.089999999999999997;0.070000000000000007;6;84;0;0;0.72999999999999998;0.27000000000000002;0.0;0.0;1;1.6332598666822378;17;98;20;2;nein
2019_03_18 10:22;36;1;1;timed;68;9;0;61;69;0;0;0.93999999999999995;0.060000000000000102;0.0;0.0;18;93;72;16;0.40999999999999998;0.34999999999999998;0.089999999999999997;0.14999999999999999;1;1.8665874697881009;17;98;20;2;nein
2019_03_18 10:22;36;1;1;timed;69;148;1;37;63;55;10;0.72999999999999998;0.070000000000000007;0.029999999999999999;0.17000000000000001;80;14;23;70;0.46999999999999997;0.10000000000000001;0.23000000000000001;0.20000000000000001;0;2.9166867652265864;17;98;20;2;nein
2019_03_18 10:22;36;1;1;timed;70;6;1;9;51;0;0;0.14999999999999999;0.84999999999999998;0.0;0.0;6;40;50;73;0.42999999999999999;0.26000000000000001;0.059999999999999998;0.25;1;1.433308488091825;17;98;20;2;nein
2019_03_18 10:22;36;1;1;timed;71;34;0;32;48;0;0;0.28000000000000003;0.71999999999999997;0.0;0.0;97;83;7;62;0.040000000000000001;0.54000000000000004;0.35999999999999999;0.059999999999999901;1;1.6501019253564664;17;98;20;2;nein
2019_03_18 10:22;36;1;1;timed;72;110;1;47;44;23;52;0.13;0.27000000000000002;0.040000000000000001;0.56000000000000005;99;2;30;22;0.28999999999999998;0.5;0.11;0.10000000000000001;1;1.7499012177158875;17;98;20;2;nein
2019_03_18 10:22;36;1;1;timed;73;16;0;64;53;0;0;0.65000000000000002;0.34999999999999998;0.0;0.0;29;17;81;46;0.10000000000000001;0.01;0.44;0.45000000000000001;1;1.4665961934178995;17;98;20;2;nein
2019_03_18 10:22;36;1;1;timed;74;91;0;74;81;86;48;0.93000000000000005;0.02;0.01;0.039999999999999897;7;64;0;0;0.13;0.87;0.0;0.0;0;1.6332524900835779;17;98;20;2;nein
2019_03_18 10:22;36;1;1;timed;75;51;0;52;23;43;16;0.60999999999999999;0.20999999999999999;0.01;0.17000000000000001;92;7;0;0;0.14999999999999999;0.84999999999999998;0.0;0.0;0;1.4832018801989761;17;98;20;2;nein
2019_03_18 10:22;36;2;1;control;1;22;0;32;55;0;0;0.39000000000000001;0.60999999999999999;0.0;0.0;93;72;59;22;0.20000000000000001;0.11;0.14000000000000001;0.55000000000000004;1;6.42532219702025;17;98;20;2;nein
2019_03_18 10:22;36;2;1;control;2;115;0;50;28;61;79;0.83999999999999997;0.040000000000000001;0.059999999999999998;0.059999999999999998;1;26;97;55;0.45000000000000001;0.080000000000000002;0.40999999999999998;0.060000000000000102;1;3.349900640417218;17;98;20;2;nein
2019_03_18 10:22;36;2;1;control;3;31;1;10;59;0;0;0.23999999999999999;0.76000000000000001;0.0;0.0;1;79;53;73;0.23000000000000001;0.58999999999999997;0.050000000000000003;0.13;1;4.0832295264090135;17;98;20;2;nein
2019_03_18 10:22;36;2;1;control;4;34;1;32;48;0;0;0.28000000000000003;0.71999999999999997;0.0;0.0;97;83;7;62;0.040000000000000001;0.54000000000000004;0.35999999999999999;0.059999999999999901;1;4.366706136817811;17;98;20;2;nein
2019_03_18 10:22;36;2;1;control;5;150;0;25;21;78;38;0.84999999999999998;0.059999999999999998;0.050000000000000003;0.040000000000000001;31;43;64;95;0.059999999999999998;0.45000000000000001;0.13;0.35999999999999999;1;6.38321560708755;17;98;20;2;nein
2019_03_18 10:22;36;2;1;control;6;92;0;90;86;65;94;0.16;0.34000000000000002;0.28000000000000003;0.22;79;22;0;0;0.35999999999999999;0.64000000000000001;0.0;0.0;0;4.78320784562311;17;98;20;2;nein
2019_03_18 10:22;36;2;1;control;7;26;1;76;41;0;0;0.57999999999999996;0.41999999999999998;0.0;0.0;61;79;84;2;0.13;0.029999999999999999;0.67000000000000004;0.17000000000000001;1;7.033296044090093;17;98;20;2;nein
2019_03_18 10:22;36;2;1;control;8;60;1;64;59;57;96;0.83999999999999997;0.13;0.02;0.01;83;6;0;0;0.54000000000000004;0.46000000000000002;0.0;0.0;1;4.06655328085526;17;98;20;2;nein
2019_03_18 10:22;36;2;1;control;9;137;0;71;22;28;17;0.25;0.46000000000000002;0.050000000000000003;0.23999999999999999;3;98;92;69;0.42999999999999999;0.23999999999999999;0.20000000000000001;0.13;1;3.6835022039995238;17;98;20;2;nein
2019_03_18 10:22;36;2;1;control;10;105;0;49;74;63;58;0.84999999999999998;0.080000000000000002;0.02;0.050000000000000003;97;5;86;8;0.25;0.52000000000000002;0.070000000000000007;0.16;1;8.633246717092334;17;98;20;2;nein
2019_03_18 10:22;36;2;1;control;11;23;0;54;40;0;0;0.93000000000000005;0.070000000000000007;0.0;0.0;36;23;71;86;0.02;0.41999999999999998;0.19;0.37;1;4.683384178413689;17;98;20;2;nein
2019_03_18 10:22;36;2;1;control;12;71;1;68;55;36;51;0.20000000000000001;0.75;0.02;0.029999999999999999;38;81;0;0;0.52000000000000002;0.47999999999999998;0.0;0.0;1;8.733279494850649;17;98;20;2;nein
2019_03_18 10:22;36;2;1;control;13;140;0;36;32;26;27;0.39000000000000001;0.14999999999999999;0.19;0.27000000000000002;44;3;99;25;0.29999999999999999;0.34000000000000002;0.34000000000000002;0.0199999999999999;1;2.249907952871581;17;98;20;2;nein
2019_03_18 10:22;36;2;1;control;14;114;1;57;39;79;97;0.77000000000000002;0.02;0.13;0.080000000000000002;92;36;6;1;0.54000000000000004;0.12;0.13;0.20999999999999999;1;3.96649035525661;17;98;20;2;nein
2019_03_18 10:22;36;2;1;control;15;70;1;66;55;69;50;0.22;0.29999999999999999;0.29999999999999999;0.17999999999999999;2;90;0;0;0.34000000000000002;0.66000000000000003;0.0;0.0;1;1.9333976487250766;17;98;20;2;nein
2019_03_18 10:22;36;2;1;control;16;112;1;70;44;98;64;0.02;0.75;0.12;0.11;33;2;63;85;0.23999999999999999;0.31;0.080000000000000002;0.37;1;8.583168589286288;17;98;20;2;nein
2019_03_18 10:22;36;2;1;control;17;143;1;88;44;56;73;0.95999999999999996;0.02;0.01;0.01;20;3;87;32;0.19;0.40000000000000002;0.28000000000000003;0.13;0;5.216541029285509;17;98;20;2;nein
2019_03_18 10:22;36;2;1;control;18;117;1;65;85;92;41;0.23000000000000001;0.17999999999999999;0.54000000000000004;0.050000000000000003;99;93;10;13;0.64000000000000001;0.16;0.01;0.19;1;3.9998813329711993;17;98;20;2;nein
2019_03_18 10:22;36;2;1;control;19;37;1;14;98;0;0;0.93000000000000005;0.070000000000000007;0.0;0.0;41;2;87;66;0.17999999999999999;0.48999999999999999;0.32000000000000001;0.010000000000000101;1;4.116584262570541;17;98;20;2;nein
2019_03_18 10:22;36;2;1;control;20;30;0;33;30;0;0;0.71999999999999997;0.28000000000000003;0.0;0.0;9;88;1;14;0.55000000000000004;0.39000000000000001;0.01;0.049999999999999899;1;1.9333094502580934;17;98;20;2;nein
2019_03_18 10:22;36;2;1;control;21;132;0;27;70;21;19;0.64000000000000001;0.23000000000000001;0.029999999999999999;0.10000000000000001;11;85;55;6;0.39000000000000001;0.46999999999999997;0.029999999999999999;0.11;1;6.983223368552899;17;98;20;2;nein
2019_03_18 10:22;36;2;1;control;22;139;1;44;31;16;8;0.79000000000000004;0.070000000000000007;0.13;0.0099999999999999499;92;58;2;88;0.55000000000000004;0.070000000000000007;0.34000000000000002;0.039999999999999897;1;3.8665387200899204;17;98;20;2;nein
2019_03_18 10:22;36;2;1;control;23;78;1;74;36;34;3;0.14999999999999999;0.64000000000000001;0.13;0.080000000000000002;1;83;0;0;0.41999999999999998;0.57999999999999996;0.0;0.0;1;7.149891211198337;17;98;20;2;nein
2019_03_18 10:22;36;2;1;control;24;97;0;17;33;32;74;0.94999999999999996;0.01;0.029999999999999999;0.01;76;23;0;0;0.33000000000000002;0.67000000000000004;0.0;0.0;1;5.666538912521901;17;98;20;2;nein
2019_03_18 10:22;36;2;1;control;25;49;0;21;30;0;0;0.53000000000000003;0.46999999999999997;0.0;0.0;93;99;89;25;0.44;0.02;0.11;0.42999999999999999;1;3.7498787671966056;17;98;20;2;nein
2019_03_18 10:22;36;2;1;control;26;146;0;25;5;64;35;0.94999999999999996;0.02;0.01;0.02;47;97;12;79;0.20999999999999999;0.029999999999999999;0.02;0.73999999999999999;1;5.583191360527053;17;98;20;2;nein
2019_03_18 10:22;36;2;1;control;27;57;0;52;35;23;47;0.22;0.68000000000000005;0.040000000000000001;0.059999999999999998;71;7;0;0;0.28999999999999998;0.70999999999999996;0.0;0.0;0;5.166426339205827;17;98;20;2;nein
2019_03_18 10:22;36;2;1;control;28;76;0;39;62;9;28;0.01;0.51000000000000001;0.26000000000000001;0.22;77;7;0;0;0.57999999999999996;0.41999999999999998;0.0;0.0;1;6.5665135113640645;17;98;20;2;nein
2019_03_18 10:22;36;2;1;control;29;74;0;66;47;52;44;0.41999999999999998;0.26000000000000001;0.17999999999999999;0.14000000000000001;17;99;0;0;0.47999999999999998;0.52000000000000002;0.0;0.0;0;5.299806797247584;17;98;20;2;nein
2019_03_18 10:22;36;2;1;control;30;56;0;28;84;37;41;0.68000000000000005;0.28000000000000003;0.02;0.0199999999999999;6;95;0;0;0.72999999999999998;0.27000000000000002;0.0;0.0;1;11.24989416183871;17;98;20;2;nein
2019_03_18 10:22;36;2;1;control;31;36;1;70;17;0;0;0.33000000000000002;0.67000000000000004;0.0;0.0;84;1;12;88;0.22;0.27000000000000002;0.14000000000000001;0.37;1;6.666505236744342;17;98;20;2;nein
2019_03_18 10:22;36;2;1;control;32;32;1;19;81;0;0;0.93000000000000005;0.070000000000000007;0.0;0.0;1;65;41;68;0.45000000000000001;0.050000000000000003;0.059999999999999998;0.44;0;8.633188987187168;17;98;20;2;nein
2019_03_18 10:22;36;2;1;control;33;35;0;33;37;0;0;0.88;0.12;0.0;0.0;63;4;79;98;0.16;0.46000000000000002;0.17000000000000001;0.20999999999999999;1;3.849889094435639;17;98;20;2;nein
2019_03_18 10:22;36;2;1;control;34;43;1;60;83;0;0;0.23000000000000001;0.77000000000000002;0.0;0.0;72;5;70;12;0.29999999999999999;0.40999999999999998;0.12;0.17000000000000001;0;4.983224009995865;17;98;20;2;nein
2019_03_18 10:22;36;2;1;control;35;113;1;85;65;39;64;0.44;0.34000000000000002;0.13;0.089999999999999997;87;2;4;35;0.67000000000000004;0.17000000000000001;0.11;0.049999999999999899;1;5.033225485315597;17;98;20;2;nein
2019_03_18 10:22;36;2;1;control;36;100;0;27;14;59;52;0.02;0.95999999999999996;0.01;0.01;17;98;0;0;0.48999999999999999;0.51000000000000001;0.0;0.0;1;3.433411119036464;17;98;20;2;nein
2019_03_18 10:22;36;2;1;control;37;121;1;42;51;47;70;0.41999999999999998;0.17000000000000001;0.23999999999999999;0.17000000000000001;21;76;48;9;0.14999999999999999;0.34000000000000002;0.40999999999999998;0.10000000000000001;0;11.399955355539532;17;98;20;2;nein
2019_03_18 10:22;36;2;1;control;38;99;0;8;24;15;73;0.56000000000000005;0.35999999999999999;0.070000000000000007;0.0099999999999999499;88;12;0;0;0.52000000000000002;0.47999999999999998;0.0;0.0;1;5.366509855136428;17;98;20;2;nein
2019_03_18 10:22;36;2;1;control;39;72;1;63;82;51;61;0.01;0.96999999999999997;0.01;0.01;92;12;0;0;0.89000000000000001;0.11;0.0;0.0;1;2.466560914031106;17;98;20;2;nein
2019_03_18 10:22;36;2;1;control;40;119;1;60;58;11;18;0.25;0.72999999999999998;0.01;0.01;96;23;42;85;0.44;0.48999999999999999;0.059999999999999998;0.010000000000000101;1;3.549888902002749;17;98;20;2;nein
2019_03_18 10:22;36;2;1;control;41;138;0;8;20;43;51;0.38;0.5;0.02;0.10000000000000001;72;82;70;1;0.39000000000000001;0.050000000000000003;0.070000000000000007;0.48999999999999999;0;8.149815520878292;17;98;20;2;nein
2019_03_18 10:22;36;2;1;control;42;10;1;45;62;0;0;0.059999999999999998;0.93999999999999995;0.0;0.0;17;99;28;67;0.58999999999999997;0.34000000000000002;0.01;0.059999999999999998;1;3.0666132558126264;17;98;20;2;nein
2019_03_18 10:22;36;2;1;control;43;28;0;47;30;0;0;0.97999999999999998;0.02;0.0;0.0;55;48;77;13;0.070000000000000007;0.26000000000000001;0.42999999999999999;0.23999999999999999;1;3.0664990788873183;17;98;20;2;nein
2019_03_18 10:22;36;2;1;control;44;68;0;84;27;55;62;0.01;0.050000000000000003;0.40999999999999998;0.53000000000000003;9;82;0;0;0.37;0.63;0.0;0.0;1;3.683143637138528;17;98;20;2;nein
2019_03_18 10:22;36;2;1;control;45;81;0;67;38;52;65;0.27000000000000002;0.35999999999999999;0.01;0.35999999999999999;2;77;0;0;0.14000000000000001;0.85999999999999999;0.0;0.0;0;7.799841755912894;17;98;20;2;nein
2019_03_18 10:22;36;2;1;control;46;61;1;43;18;39;70;0.75;0.089999999999999997;0.089999999999999997;0.070000000000000007;16;66;0;0;0.64000000000000001;0.35999999999999999;0.0;0.0;1;4.299846246016386;17;98;20;2;nein
2019_03_18 10:22;36;2;1;control;47;8;1;50;36;0;0;0.080000000000000002;0.92000000000000004;0.0;0.0;6;19;84;29;0.54000000000000004;0.070000000000000007;0.17000000000000001;0.22;0;7.499779984913403;17;98;20;2;nein
2019_03_18 10:22;36;2;1;control;48;141;1;93;28;60;91;0.81999999999999995;0.10000000000000001;0.01;0.070000000000000007;14;85;7;89;0.45000000000000001;0.070000000000000007;0.23999999999999999;0.23999999999999999;0;7.949716931027069;17;98;20;2;nein
2019_03_18 10:22;36;2;1;control;49;7;1;49;29;0;0;0.95999999999999996;0.040000000000000001;0.0;0.0;23;99;64;25;0.68999999999999995;0.12;0.059999999999999998;0.13;1;3.11676001806336;17;98;20;2;nein
2019_03_18 10:22;36;2;1;control;50;122;0;35;58;25;31;0.81999999999999995;0.070000000000000007;0.080000000000000002;0.029999999999999999;18;64;68;89;0.63;0.17000000000000001;0.11;0.089999999999999997;1;6.633325614631758;17;98;20;2;nein
2019_03_18 10:22;36;2;1;control;51;50;0;15;20;0;0;0.82999999999999996;0.17000000000000001;0.0;0.0;97;18;88;87;0.56999999999999995;0.39000000000000001;0.01;0.029999999999999999;1;2.4666904855985194;17;98;20;2;nein
2019_03_18 10:22;36;2;1;control;52;89;1;26;41;13;56;0.059999999999999998;0.40999999999999998;0.050000000000000003;0.47999999999999998;5;97;0;0;0.37;0.63;0.0;0.0;1;3.7165439157815854;17;98;20;2;nein
2019_03_18 10:22;36;2;1;control;53;135;1;48;60;41;51;0.14000000000000001;0.40000000000000002;0.089999999999999997;0.37;94;1;85;65;0.64000000000000001;0.29999999999999999;0.01;0.050000000000000003;1;4.166559438711374;17;98;20;2;nein
2019_03_18 10:22;36;2;1;control;54;67;0;44;42;8;89;0.88;0.070000000000000007;0.029999999999999999;0.02;10;63;0;0;0.39000000000000001;0.60999999999999999;0.0;0.0;0;8.049803590030933;17;98;20;2;nein
2019_03_18 10:22;36;2;1;control;55;27;0;44;26;0;0;0.35999999999999999;0.64000000000000001;0.0;0.0;63;10;3;5;0.58999999999999997;0.19;0.14999999999999999;0.070000000000000007;1;3.450123606143279;17;98;20;2;nein
2019_03_18 10:22;36;2;1;control;56;90;1;27;44;50;72;0.68000000000000005;0.28999999999999998;0.02;0.0099999999999999707;6;96;0;0;0.46999999999999997;0.53000000000000003;0.0;0.0;1;2.000073765992056;17;98;20;2;nein
2019_03_18 10:22;36;2;1;control;57;14;1;36;40;0;0;0.54000000000000004;0.46000000000000002;0.0;0.0;99;70;1;11;0.16;0.089999999999999997;0.080000000000000002;0.67000000000000004;1;4.416710177910318;17;98;20;2;nein
2019_03_18 10:22;36;2;1;control;58;88;1;77;13;12;7;0.12;0.19;0.66000000000000003;0.029999999999999898;94;2;0;0;0.40999999999999998;0.58999999999999997;0.0;0.0;0;4.316577014260474;17;98;20;2;nein
2019_03_18 10:22;36;2;1;control;59;102;0;40;56;53;17;0.28000000000000003;0.26000000000000001;0.14999999999999999;0.31;1;76;29;62;0.68000000000000005;0.23000000000000001;0.050000000000000003;0.039999999999999897;1;4.516723070923035;17;98;20;2;nein
2019_03_18 10:22;36;2;1;control;60;3;1;53;40;0;0;0.31;0.68999999999999995;0.0;0.0;96;24;7;88;0.11;0.27000000000000002;0.58999999999999997;0.029999999999999999;1;4.766431214176009;17;98;20;2;nein
2019_03_18 10:22;36;2;1;control;61;54;0;44;79;78;52;0.79000000000000004;0.19;0.01;0.0099999999999999603;96;1;0;0;0.28000000000000003;0.71999999999999997;0.0;0.0;0;3.2998616406584915;17;98;20;2;nein
2019_03_18 10:22;36;2;1;control;62;107;1;52;48;13;63;0.68000000000000005;0.19;0.050000000000000003;0.079999999999999905;54;91;33;3;0.19;0.17999999999999999;0.33000000000000002;0.29999999999999999;1;3.7165429536162264;17;98;20;2;nein
2019_03_18 10:22;36;2;1;control;63;130;0;37;79;23;95;0.94999999999999996;0.029999999999999999;0.01;0.01;94;4;58;49;0.46000000000000002;0.5;0.029999999999999999;0.01;1;3.33339020798212;17;98;20;2;nein
2019_03_18 10:22;36;2;1;control;64;45;1;97;87;0;0;0.71999999999999997;0.28000000000000003;0.0;0.0;96;11;14;4;0.25;0.029999999999999999;0.14000000000000001;0.57999999999999996;0;2.350081206734103;17;98;20;2;nein
2019_03_18 10:22;36;2;1;control;65;69;0;54;34;64;49;0.34000000000000002;0.25;0.20999999999999999;0.20000000000000001;14;98;0;0;0.62;0.38;0.0;0.0;1;4.8165754106512395;17;98;20;2;nein
2019_03_18 10:22;36;2;1;control;66;94;0;84;86;93;39;0.78000000000000003;0.20000000000000001;0.01;0.0099999999999999603;9;83;0;0;0.46999999999999997;0.53000000000000003;0.0;0.0;0;4.233202200920459;17;98;20;2;nein
2019_03_18 10:22;36;2;1;control;67;12;0;53;68;0;0;0.31;0.68999999999999995;0.0;0.0;69;54;97;29;0.25;0.20999999999999999;0.20000000000000001;0.34000000000000002;1;5.366633653712597;17;98;20;2;nein
2019_03_18 10:22;36;2;1;control;68;18;1;68;50;0;0;0.029999999999999999;0.96999999999999997;0.0;0.0;34;64;15;89;0.65000000000000002;0.029999999999999999;0.050000000000000003;0.27000000000000002;0;3.1000661328153;17;98;20;2;nein
2019_03_18 10:22;36;2;1;control;69;17;0;81;52;0;0;0.059999999999999998;0.93999999999999995;0.0;0.0;34;3;69;41;0.01;0.22;0.75;0.02;0;5.049866451483467;17;98;20;2;nein
2019_03_18 10:22;36;2;1;control;70;59;0;56;47;83;90;0.31;0.12;0.54000000000000004;0.029999999999999898;10;98;0;0;0.46999999999999997;0.53000000000000003;0.0;0.0;1;4.133311502876495;17;98;20;2;nein
2019_03_18 10:22;36;2;1;control;71;145;1;91;89;90;74;0.57999999999999996;0.29999999999999999;0.11;0.010000000000000101;2;75;84;39;0.32000000000000001;0.27000000000000002;0.39000000000000001;0.0199999999999999;0;5.849840986181334;17;98;20;2;nein
2019_03_18 10:22;36;2;1;control;72;63;0;56;78;42;36;0.93000000000000005;0.040000000000000001;0.01;0.0199999999999999;2;72;0;0;0.32000000000000001;0.68000000000000005;0.0;0.0;0;4.73321823700644;17;98;20;2;nein
2019_03_18 10:22;36;2;1;control;73;127;0;89;26;62;79;0.02;0.28999999999999998;0.53000000000000003;0.16;96;6;60;13;0.53000000000000003;0.25;0.17000000000000001;0.050000000000000003;1;5.28315588870646;17;98;20;2;nein
2019_03_18 10:22;36;2;1;control;74;33;0;27;70;0;0;0.88;0.12;0.0;0.0;93;3;77;16;0.080000000000000002;0.40000000000000002;0.5;0.02;1;2.399925207699198;17;98;20;2;nein
2019_03_18 10:22;36;2;1;control;75;21;0;64;28;0;0;0.080000000000000002;0.92000000000000004;0.0;0.0;50;1;88;13;0.57999999999999996;0.13;0.02;0.27000000000000002;1;5.899868439958482;17;98;20;2;nein
2019_03_18 10:22;36;3;1;timed;1;98;0;27;10;31;79;0.23000000000000001;0.67000000000000004;0.070000000000000007;0.029999999999999999;25;99;0;0;0.38;0.62;0.0;0.0;1;1.168888840424188;17;98;20;2;nein
2019_03_18 10:22;36;3;1;timed;2;57;1;52;35;23;47;0.22;0.68000000000000005;0.040000000000000001;0.059999999999999998;71;7;0;0;0.28999999999999998;0.70999999999999996;0.0;0.0;0;1.4999518917456953;17;98;20;2;nein
2019_03_18 10:22;36;3;1;timed;3;146;0;25;5;64;35;0.94999999999999996;0.02;0.01;0.02;47;97;12;79;0.20999999999999999;0.029999999999999999;0.02;0.73999999999999999;0;1.3665271741083416;17;98;20;2;nein
2019_03_18 10:22;36;3;1;timed;4;73;0;65;68;70;47;0.25;0.23000000000000001;0.20999999999999999;0.31;27;95;0;0;0.45000000000000001;0.55000000000000004;0.0;0.0;1;1.433423627182492;17;98;20;2;nein
2019_03_18 10:22;36;3;1;timed;5;15;1;77;81;0;0;0.28000000000000003;0.71999999999999997;0.0;0.0;98;14;87;18;0.55000000000000004;0.23000000000000001;0.16;0.059999999999999901;1;1.483283984955051;17;98;20;2;nein
2019_03_18 10:22;36;3;1;timed;6;31;1;10;59;0;0;0.23999999999999999;0.76000000000000001;0.0;0.0;1;79;53;73;0.23000000000000001;0.58999999999999997;0.050000000000000003;0.13;1;1.1333317083435759;17;98;20;2;nein
2019_03_18 10:22;36;3;1;timed;7;69;0;54;34;64;49;0.34000000000000002;0.25;0.20999999999999999;0.20000000000000001;14;98;0;0;0.62;0.38;0.0;0.0;0;2.016595102964857;17;98;20;2;nein
2019_03_18 10:22;36;3;1;timed;8;76;1;39;62;9;28;0.01;0.51000000000000001;0.26000000000000001;0.22;77;7;0;0;0.57999999999999996;0.41999999999999998;0.0;0.0;0;1.2667525773194939;17;98;20;2;nein
2019_03_18 10:22;36;3;1;timed;9;140;1;36;32;26;27;0.39000000000000001;0.14999999999999999;0.19;0.27000000000000002;44;3;99;25;0.29999999999999999;0.34000000000000002;0.34000000000000002;0.0199999999999999;1;1.616654821345037;17;98;20;2;nein
2019_03_18 10:22;36;3;1;timed;10;56;1;28;84;37;41;0.68000000000000005;0.28000000000000003;0.02;0.0199999999999999;6;95;0;0;0.72999999999999998;0.27000000000000002;0.0;0.0;1;1.5665555259065513;17;98;20;2;nein
2019_03_18 10:22;36;3;1;timed;11;87;1;10;30;63;4;0.56999999999999995;0.12;0.16;0.14999999999999999;86;2;0;0;0.42999999999999999;0.56999999999999995;0.0;0.0;0;1.3998969841895814;17;98;20;2;nein
2019_03_18 10:22;36;3;1;timed;12;137;0;71;22;28;17;0.25;0.46000000000000002;0.050000000000000003;0.23999999999999999;3;98;92;69;0.42999999999999999;0.23999999999999999;0.20000000000000001;0.13;0;1.9332392122050805;17;98;20;2;nein
2019_03_18 10:22;36;3;1;timed;13;4;1;40;43;0;0;0.58999999999999997;0.40999999999999998;0.0;0.0;2;33;88;81;0.69999999999999996;0.14000000000000001;0.13;0.029999999999999999;1;1.2999334823198296;17;98;20;2;nein
2019_03_18 10:22;36;3;1;timed;14;121;1;42;51;47;70;0.41999999999999998;0.17000000000000001;0.23999999999999999;0.17000000000000001;21;76;48;9;0.14999999999999999;0.34000000000000002;0.40999999999999998;0.10000000000000001;1;1.4165459683990775;17;98;20;2;nein
2019_03_18 10:22;36;3;1;timed;15;54;0;44;79;78;52;0.79000000000000004;0.19;0.01;0.0099999999999999603;96;1;0;0;0.28000000000000003;0.71999999999999997;0.0;0.0;1;1.2167738732405269;17;98;20;2;nein
2019_03_18 10:22;36;3;1;timed;16;60;0;64;59;57;96;0.83999999999999997;0.13;0.02;0.01;83;6;0;0;0.54000000000000004;0.46000000000000002;0.0;0.0;0;1.2665983101815073;17;98;20;2;nein
2019_03_18 10:22;36;3;1;timed;17;7;0;49;29;0;0;0.95999999999999996;0.040000000000000001;0.0;0.0;23;99;64;25;0.68999999999999995;0.12;0.059999999999999998;0.13;1;1.3000450934714536;17;98;20;2;nein
2019_03_18 10:22;36;3;1;timed;18;108;1;48;72;39;70;0.14000000000000001;0.66000000000000003;0.02;0.17999999999999999;81;44;98;8;0.59999999999999998;0.029999999999999999;0.050000000000000003;0.32000000000000001;1;1.3164554607355967;17;98;20;2;nein
2019_03_18 10:22;36;3;1;timed;19;85;1;31;22;82;50;0.11;0.69999999999999996;0.01;0.17999999999999999;3;99;0;0;0.62;0.38;0.0;0.0;1;1.3833105407111361;17;98;20;2;nein
2019_03_18 10:22;36;3;1;timed;20;77;1;24;17;99;41;0.17999999999999999;0.13;0.10000000000000001;0.58999999999999997;12;97;0;0;0.59999999999999998;0.40000000000000002;0.0;0.0;1;1.466864316759711;17;98;20;2;nein
2019_03_18 10:22;36;3;1;timed;21;97;0;17;33;32;74;0.94999999999999996;0.01;0.029999999999999999;0.01;76;23;0;0;0.33000000000000002;0.67000000000000004;0.0;0.0;0;1.5998214221563103;17;98;20;2;nein
2019_03_18 10:22;36;3;1;timed;22;118;0;62;52;65;68;0.40999999999999998;0.44;0.10000000000000001;0.0500000000000001;79;20;14;37;0.56999999999999995;0.23999999999999999;0.14000000000000001;0.050000000000000003;1;1.5166018381205504;17;98;20;2;nein
2019_03_18 10:22;36;3;1;timed;23;113;1;85;65;39;64;0.44;0.34000000000000002;0.13;0.089999999999999997;87;2;4;35;0.67000000000000004;0.17000000000000001;0.11;0.049999999999999899;0;1.5165989516244736;17;98;20;2;nein
2019_03_18 10:22;36;3;1;timed;24;11;0;17;36;0;0;0.14000000000000001;0.85999999999999999;0.0;0.0;19;41;34;95;0.88;0.02;0.050000000000000003;0.050000000000000003;1;1.366590035561785;17;98;20;2;nein
2019_03_18 10:22;36;3;1;timed;25;22;1;32;55;0;0;0.39000000000000001;0.60999999999999999;0.0;0.0;93;72;59;22;0.20000000000000001;0.11;0.14000000000000001;0.55000000000000004;1;1.3334036782935073;17;98;20;2;nein
2019_03_18 10:22;36;3;1;timed;26;104;1;55;85;93;3;0.87;0.02;0.089999999999999997;0.02;1;2;90;8;0.35999999999999999;0.070000000000000007;0.40000000000000002;0.17000000000000001;0;1.4332664735493381;17;98;20;2;nein
2019_03_18 10:22;36;3;1;timed;27;106;1;85;69;22;61;0.10000000000000001;0.58999999999999997;0.17999999999999999;0.13;20;79;91;84;0.55000000000000004;0.14999999999999999;0.26000000000000001;0.039999999999999897;0;1.449858690018118;17;98;20;2;nein
2019_03_18 10:22;36;3;1;timed;28;100;1;27;14;59;52;0.02;0.95999999999999996;0.01;0.01;17;98;0;0;0.48999999999999999;0.51000000000000001;0.0;0.0;0;1.1999391911658677;17;98;20;2;nein
2019_03_18 10:22;36;3;1;timed;29;24;1;35;27;0;0;0.070000000000000007;0.93000000000000005;0.0;0.0;62;3;81;95;0.35999999999999999;0.55000000000000004;0.01;0.080000000000000002;1;1.233454288178109;17;98;20;2;nein
2019_03_18 10:22;36;3;1;timed;30;139;0;44;31;16;8;0.79000000000000004;0.070000000000000007;0.13;0.0099999999999999499;92;58;2;88;0.55000000000000004;0.070000000000000007;0.34000000000000002;0.039999999999999897;1;1.8165475078640156;17;98;20;2;nein
2019_03_18 10:22;36;3;1;timed;31;8;0;50;36;0;0;0.080000000000000002;0.92000000000000004;0.0;0.0;6;19;84;29;0.54000000000000004;0.070000000000000007;0.17000000000000001;0.22;1;1.316724225521284;17;98;20;2;nein
2019_03_18 10:22;36;3;1;timed;32;66;0;89;23;27;15;0.070000000000000007;0.54000000000000004;0.17000000000000001;0.22;9;73;0;0;0.72999999999999998;0.27000000000000002;0.0;0.0;0;1.2000729321143808;17;98;20;2;nein
2019_03_18 10:22;36;3;1;timed;33;63;0;56;78;42;36;0.93000000000000005;0.040000000000000001;0.01;0.0199999999999999;2;72;0;0;0.32000000000000001;0.68000000000000005;0.0;0.0;0;1.3167367336682219;17;98;20;2;nein
2019_03_18 10:22;36;3;1;timed;34;28;0;47;30;0;0;0.97999999999999998;0.02;0.0;0.0;55;48;77;13;0.070000000000000007;0.26000000000000001;0.42999999999999999;0.23999999999999999;1;1.2332259343265832;17;98;20;2;nein
2019_03_18 10:22;36;3;1;timed;35;93;0;87;81;73;98;0.80000000000000004;0.040000000000000001;0.14999999999999999;0.0099999999999999499;5;71;0;0;0.51000000000000001;0.48999999999999999;0.0;0.0;0;1.53326814130196;17;98;20;2;nein
2019_03_18 10:22;36;3;1;timed;36;130;1;37;79;23;95;0.94999999999999996;0.029999999999999999;0.01;0.01;94;4;58;49;0.46000000000000002;0.5;0.029999999999999999;0.01;0;1.3999194347088633;17;98;20;2;nein
2019_03_18 10:22;36;3;1;timed;37;144;0;99;93;90;71;0.65000000000000002;0.32000000000000001;0.01;0.02;97;14;48;73;0.23000000000000001;0.46000000000000002;0.13;0.17999999999999999;0;1.5332838566655482;17;98;20;2;nein
2019_03_18 10:22;36;3;1;timed;38;124;0;37;65;15;41;0.17999999999999999;0.45000000000000001;0.02;0.34999999999999998;40;7;98;30;0.070000000000000007;0.45000000000000001;0.45000000000000001;0.029999999999999898;1;1.8667443026997717;17;98;20;2;nein
2019_03_18 10:22;36;3;1;timed;39;135;0;48;60;41;51;0.14000000000000001;0.40000000000000002;0.089999999999999997;0.37;94;1;85;65;0.64000000000000001;0.29999999999999999;0.01;0.050000000000000003;1;1.3834019463956793;17;98;20;2;nein
2019_03_18 10:22;36;3;1;timed;40;68;1;84;27;55;62;0.01;0.050000000000000003;0.40999999999999998;0.53000000000000003;9;82;0;0;0.37;0.63;0.0;0.0;0;1.699887875694003;17;98;20;2;nein
2019_03_18 10:22;36;3;1;timed;41;74;0;66;47;52;44;0.41999999999999998;0.26000000000000001;0.17999999999999999;0.14000000000000001;17;99;0;0;0.47999999999999998;0.52000000000000002;0.0;0.0;1;1.2999177669562414;17;98;20;2;nein
2019_03_18 10:22;36;3;1;timed;42;131;0;83;41;81;88;0.23999999999999999;0.58999999999999997;0.10000000000000001;0.070000000000000007;82;97;4;17;0.26000000000000001;0.46999999999999997;0.11;0.16;0;1.4998922375089023;17;98;20;2;nein
2019_03_18 10:22;36;3;1;timed;43;132;0;27;70;21;19;0.64000000000000001;0.23000000000000001;0.029999999999999999;0.10000000000000001;11;85;55;6;0.39000000000000001;0.46999999999999997;0.029999999999999999;0.11;1;1.316730319233102;17;98;20;2;nein
2019_03_18 10:22;36;3;1;timed;44;105;1;49;74;63;58;0.84999999999999998;0.080000000000000002;0.02;0.050000000000000003;97;5;86;8;0.25;0.52000000000000002;0.070000000000000007;0.16;1;1.2998962786023185;17;98;20;2;nein
2019_03_18 10:22;36;3;1;timed;45;44;1;79;74;0;0;0.71999999999999997;0.28000000000000003;0.0;0.0;3;67;15;36;0.41999999999999998;0.53000000000000003;0.02;0.029999999999999999;1;1.7333904645593066;17;98;20;2;nein
2019_03_18 10:22;36;3;1;timed;46;33;0;27;70;0;0;0.88;0.12;0.0;0.0;93;3;77;16;0.080000000000000002;0.40000000000000002;0.5;0.02;1;1.1999055153864902;17;98;20;2;nein
2019_03_18 10:22;36;3;1;timed;47;59;0;56;47;83;90;0.31;0.12;0.54000000000000004;0.029999999999999898;10;98;0;0;0.46999999999999997;0.53000000000000003;0.0;0.0;1;1.3165641853920533;17;98;20;2;nein
2019_03_18 10:22;36;3;1;timed;48;145;1;91;89;90;74;0.57999999999999996;0.29999999999999999;0.11;0.010000000000000101;2;75;84;39;0.32000000000000001;0.27000000000000002;0.39000000000000001;0.0199999999999999;0;1.683326127786131;17;98;20;2;nein
2019_03_18 10:22;36;3;1;timed;49;20;1;44;40;0;0;0.91000000000000003;0.089999999999999997;0.0;0.0;29;5;80;99;0.25;0.40000000000000002;0.26000000000000001;0.089999999999999997;1;1.099927260318509;17;98;20;2;nein
2019_03_18 10:22;36;3;1;timed;50;64;1;48;39;34;19;0.46000000000000002;0.5;0.02;0.02;13;92;0;0;0.68999999999999995;0.31;0.0;0.0;0;1.9665868924885217;17;98;20;2;nein
2019_03_18 10:22;36;3;1;timed;51;119;0;60;58;11;18;0.25;0.72999999999999998;0.01;0.01;96;23;42;85;0.44;0.48999999999999999;0.059999999999999998;0.010000000000000101;1;1.2167527056080871;17;98;20;2;nein
2019_03_18 10:22;36;3;1;timed;52;117;1;65;85;92;41;0.23000000000000001;0.17999999999999999;0.54000000000000004;0.050000000000000003;99;93;10;13;0.64000000000000001;0.16;0.01;0.19;0;1.2832514637739223;17;98;20;2;nein
2019_03_18 10:22;36;3;1;timed;53;18;0;68;50;0;0;0.029999999999999999;0.96999999999999997;0.0;0.0;34;64;15;89;0.65000000000000002;0.029999999999999999;0.050000000000000003;0.27000000000000002;1;1.2999052588093036;17;98;20;2;nein
2019_03_18 10:22;36;3;1;timed;54;128;1;70;49;27;54;0.27000000000000002;0.53000000000000003;0.02;0.17999999999999999;72;97;6;20;0.29999999999999999;0.39000000000000001;0.22;0.0899999999999999;1;1.366656104231879;17;98;20;2;nein
2019_03_18 10:22;36;3;1;timed;55;72;1;63;82;51;61;0.01;0.96999999999999997;0.01;0.01;92;12;0;0;0.89000000000000001;0.11;0.0;0.0;1;1.7667387862866235;17;98;20;2;nein
2019_03_18 10:22;36;3;1;timed;56;41;1;99;40;0;0;0.89000000000000001;0.11;0.0;0.0;1;67;52;46;0.51000000000000001;0.38;0.029999999999999999;0.080000000000000002;0;1.150087172158237;17;98;20;2;nein
2019_03_18 10:22;36;3;1;timed;57;67;0;44;42;8;89;0.88;0.070000000000000007;0.029999999999999999;0.02;10;63;0;0;0.39000000000000001;0.60999999999999999;0.0;0.0;0;1.1665732297442446;17;98;20;2;nein
2019_03_18 10:22;36;3;1;timed;58;43;1;60;83;0;0;0.23000000000000001;0.77000000000000002;0.0;0.0;72;5;70;12;0.29999999999999999;0.40999999999999998;0.12;0.17000000000000001;1;1.5498844118992565;17;98;20;2;nein
2019_03_18 10:22;36;3;1;timed;59;48;0;13;32;0;0;0.90000000000000002;0.10000000000000001;0.0;0.0;24;99;84;94;0.62;0.14999999999999999;0.20000000000000001;0.029999999999999999;1;1.2665864434784453;17;98;20;2;nein
2019_03_18 10:22;36;3;1;timed;60;13;1;52;56;0;0;0.46999999999999997;0.53000000000000003;0.0;0.0;94;71;27;2;0.089999999999999997;0.31;0.57999999999999996;0.020000000000000101;1;1.2833521703878432;17;98;20;2;nein
2019_03_18 10:22;36;3;1;timed;61;45;0;97;87;0;0;0.71999999999999997;0.28000000000000003;0.0;0.0;96;11;14;4;0.25;0.029999999999999999;0.14000000000000001;0.57999999999999996;0;1.5666116522043012;17;98;20;2;nein
2019_03_18 10:22;36;3;1;timed;62;53;1;26;70;50;80;0.29999999999999999;0.59999999999999998;0.040000000000000001;0.059999999999999998;89;1;0;0;0.40999999999999998;0.58999999999999997;0.0;0.0;0;1.283567695370948;17;98;20;2;nein
2019_03_18 10:22;36;3;1;timed;63;82;0;78;66;30;27;0.28999999999999998;0.58999999999999997;0.080000000000000002;0.040000000000000001;90;6;0;0;0.82999999999999996;0.17000000000000001;0.0;0.0;1;1.2332118225713202;17;98;20;2;nein
2019_03_18 10:22;36;3;1;timed;64;90;0;27;44;50;72;0.68000000000000005;0.28999999999999998;0.02;0.0099999999999999707;6;96;0;0;0.46999999999999997;0.53000000000000003;0.0;0.0;1;1.3665958085521197;17;98;20;2;nein
2019_03_18 10:22;36;3;1;timed;65;116;1;53;65;43;99;0.56999999999999995;0.37;0.050000000000000003;0.010000000000000101;57;72;11;87;0.67000000000000004;0.13;0.14999999999999999;0.050000000000000003;0;1.7833845632794691;17;98;20;2;nein
2019_03_18 10:22;36;3;1;timed;66;2;1;59;32;0;0;0.080000000000000002;0.92000000000000004;0.0;0.0;33;38;85;1;0.28999999999999998;0.050000000000000003;0.070000000000000007;0.58999999999999997;1;1.4332748123142665;17;98;20;2;nein
2019_03_18 10:22;36;3;1;timed;67;27;0;44;26;0;0;0.35999999999999999;0.64000000000000001;0.0;0.0;63;10;3;5;0.58999999999999997;0.19;0.14999999999999999;0.070000000000000007;1;1.4000676081341226;17;98;20;2;nein
2019_03_18 10:22;36;3;1;timed;68;42;0;70;48;0;0;0.79000000000000004;0.20999999999999999;0.0;0.0;51;8;12;67;0.19;0.26000000000000001;0.28999999999999998;0.26000000000000001;1;1.4332459473607742;17;98;20;2;nein
2019_03_18 10:22;36;3;1;timed;69;101;1;30;96;61;45;0.65000000000000002;0.14000000000000001;0.11;0.10000000000000001;3;98;63;89;0.75;0.19;0.040000000000000001;0.02;1;1.549945028300499;17;98;20;2;nein
2019_03_18 10:22;36;3;1;timed;70;114;1;57;39;79;97;0.77000000000000002;0.02;0.13;0.080000000000000002;92;36;6;1;0.54000000000000004;0.12;0.13;0.20999999999999999;1;1.699795828565584;17;98;20;2;nein
2019_03_18 10:22;36;3;1;timed;71;80;0;47;39;45;10;0.13;0.76000000000000001;0.059999999999999998;0.050000000000000003;2;87;0;0;0.48999999999999999;0.51000000000000001;0.0;0.0;0;1.4332834717997684;17;98;20;2;nein
2019_03_18 10:22;36;3;1;timed;72;75;0;67;80;36;81;0.81999999999999995;0.080000000000000002;0.059999999999999998;0.040000000000000001;3;97;0;0;0.32000000000000001;0.68000000000000005;0.0;0.0;0;1.6499290563597242;17;98;20;2;nein
2019_03_18 10:22;36;3;1;timed;73;62;1;12;45;16;50;0.20999999999999999;0.76000000000000001;0.02;0.01;92;15;0;0;0.20999999999999999;0.79000000000000004;0.0;0.0;1;1.6333955319614688;17;98;20;2;nein
2019_03_18 10:22;36;3;1;timed;74;12;0;53;68;0;0;0.31;0.68999999999999995;0.0;0.0;69;54;97;29;0.25;0.20999999999999999;0.20000000000000001;0.34000000000000002;1;1.566572203434589;17;98;20;2;nein
2019_03_18 10:22;36;3;1;timed;75;129;1;12;29;81;36;0.17999999999999999;0.79000000000000004;0.01;0.02;5;19;95;92;0.47999999999999998;0.26000000000000001;0.13;0.13;1;1.816562581783728;17;98;20;2;nein
2019_03_18 10:22;36;4;1;control;1;85;0;31;22;82;50;0.11;0.69999999999999996;0.01;0.17999999999999999;3;99;0;0;0.62;0.38;0.0;0.0;0;3.7837437715843407;17;98;20;2;nein
2019_03_18 10:22;36;4;1;control;2;38;1;40;70;0;0;0.53000000000000003;0.46999999999999997;0.0;0.0;97;90;6;96;0.56999999999999995;0.070000000000000007;0.27000000000000002;0.089999999999999997;1;2.633272054106783;17;98;20;2;nein
2019_03_18 10:22;36;4;1;control;3;66;1;89;23;27;15;0.070000000000000007;0.54000000000000004;0.17000000000000001;0.22;9;73;0;0;0.72999999999999998;0.27000000000000002;0.0;0.0;0;5.233168845863474;17;98;20;2;nein
2019_03_18 10:22;36;4;1;control;4;40;0;45;49;0;0;0.68999999999999995;0.31;0.0;0.0;2;92;65;73;0.23999999999999999;0.59999999999999998;0.11;0.050000000000000003;1;3.7164890723706776;17;98;20;2;nein
2019_03_18 10:22;36;4;1;control;5;116;1;53;65;43;99;0.56999999999999995;0.37;0.050000000000000003;0.010000000000000101;57;72;11;87;0.67000000000000004;0.13;0.14999999999999999;0.050000000000000003;0;7.449968697561417;17;98;20;2;nein
2019_03_18 10:22;36;4;1;control;6;75;0;67;80;36;81;0.81999999999999995;0.080000000000000002;0.059999999999999998;0.040000000000000001;3;97;0;0;0.32000000000000001;0.68000000000000005;0.0;0.0;1;3.3333706439580055;17;98;20;2;nein
2019_03_18 10:22;36;4;1;control;7;128;1;70;49;27;54;0.27000000000000002;0.53000000000000003;0.02;0.17999999999999999;72;97;6;20;0.29999999999999999;0.39000000000000001;0.22;0.0899999999999999;1;4.766548598317968;17;98;20;2;nein
2019_03_18 10:22;36;4;1;control;8;51;1;52;23;43;16;0.60999999999999999;0.20999999999999999;0.01;0.17000000000000001;92;7;0;0;0.14999999999999999;0.84999999999999998;0.0;0.0;0;2.7166555269332093;17;98;20;2;nein
2019_03_18 10:22;36;4;1;control;9;86;1;56;30;57;88;0.20000000000000001;0.35999999999999999;0.080000000000000002;0.35999999999999999;98;2;0;0;0.77000000000000002;0.23000000000000001;0.0;0.0;1;1.7167315379756474;17;98;20;2;nein
2019_03_18 10:22;36;4;1;control;10;11;1;17;36;0;0;0.14000000000000001;0.85999999999999999;0.0;0.0;19;41;34;95;0.88;0.02;0.050000000000000003;0.050000000000000003;1;8.599819177105019;17;98;20;2;nein
2019_03_18 10:22;36;4;1;control;11;46;0;5;19;0;0;0.32000000000000001;0.68000000000000005;0.0;0.0;88;38;97;66;0.60999999999999999;0.20000000000000001;0.040000000000000001;0.14999999999999999;1;3.2000055805574448;17;98;20;2;nein
2019_03_18 10:22;36;4;1;control;12;29;1;44;51;0;0;0.78000000000000003;0.22;0.0;0.0;74;1;68;82;0.69999999999999996;0.28000000000000003;0.01;0.01;0;3.8665268533868584;17;98;20;2;nein
2019_03_18 10:22;36;4;1;control;13;109;1;75;28;16;56;0.19;0.070000000000000007;0.059999999999999998;0.68000000000000005;3;50;98;44;0.5;0.02;0.34999999999999998;0.13;1;2.9333395980975183;17;98;20;2;nein
2019_03_18 10:22;36;4;1;control;14;84;0;43;10;5;45;0.78000000000000003;0.13;0.059999999999999998;0.029999999999999999;87;1;0;0;0.57999999999999996;0.41999999999999998;0.0;0.0;0;3.699877291877783;17;98;20;2;nein
2019_03_18 10:22;36;4;1;control;15;108;1;48;72;39;70;0.14000000000000001;0.66000000000000003;0.02;0.17999999999999999;81;44;98;8;0.59999999999999998;0.029999999999999999;0.050000000000000003;0.32000000000000001;1;7.099833930303248;17;98;20;2;nein
2019_03_18 10:22;36;4;1;control;16;120;1;64;40;48;51;0.19;0.02;0.070000000000000007;0.71999999999999997;97;9;79;94;0.23000000000000001;0.54000000000000004;0.01;0.22;1;3.0165425046052405;17;98;20;2;nein
2019_03_18 10:22;36;4;1;control;17;15;0;77;81;0;0;0.28000000000000003;0.71999999999999997;0.0;0.0;98;14;87;18;0.55000000000000004;0.23000000000000001;0.16;0.059999999999999901;1;2.8833817409285984;17;98;20;2;nein
2019_03_18 10:22;36;4;1;control;18;93;0;87;81;73;98;0.80000000000000004;0.040000000000000001;0.14999999999999999;0.0099999999999999499;5;71;0;0;0.51000000000000001;0.48999999999999999;0.0;0.0;0;2.0999112242334377;17;98;20;2;nein
2019_03_18 10:22;36;4;1;control;19;125;0;37;41;10;35;0.91000000000000003;0.040000000000000001;0.029999999999999999;0.02;7;13;91;93;0.26000000000000001;0.39000000000000001;0.16;0.19;1;3.7998882605588733;17;98;20;2;nein
2019_03_18 10:22;36;4;1;control;20;129;1;12;29;81;36;0.17999999999999999;0.79000000000000004;0.01;0.02;5;19;95;92;0.47999999999999998;0.26000000000000001;0.13;0.13;1;2.7331627521516566;17;98;20;2;nein
2019_03_18 10:22;36;4;1;control;21;25;0;50;53;0;0;0.82999999999999996;0.17000000000000001;0.0;0.0;83;16;97;4;0.45000000000000001;0.29999999999999999;0.11;0.14000000000000001;1;5.499995830617991;17;98;20;2;nein
2019_03_18 10:22;36;4;1;control;22;13;1;52;56;0;0;0.46999999999999997;0.53000000000000003;0.0;0.0;94;71;27;2;0.089999999999999997;0.31;0.57999999999999996;0.020000000000000101;0;4.6664446203431;17;98;20;2;nein
2019_03_18 10:22;36;4;1;control;23;133;1;59;88;60;36;0.67000000000000004;0.070000000000000007;0.12;0.14000000000000001;7;91;66;61;0.25;0.68999999999999995;0.01;0.0500000000000001;1;3.0998631159782235;17;98;20;2;nein
2019_03_18 10:22;36;4;1;control;24;103;1;38;49;89;50;0.89000000000000001;0.070000000000000007;0.01;0.029999999999999999;6;64;99;27;0.70999999999999996;0.17999999999999999;0.059999999999999998;0.050000000000000003;1;4.149871005732166;17;98;20;2;nein
2019_03_18 10:22;36;4;1;control;25;124;0;37;65;15;41;0.17999999999999999;0.45000000000000001;0.02;0.34999999999999998;40;7;98;30;0.070000000000000007;0.45000000000000001;0.45000000000000001;0.029999999999999898;1;6.033129910249954;17;98;20;2;nein
2019_03_18 10:22;36;4;1;control;26;19;0;22;53;0;0;0.13;0.87;0.0;0.0;4;93;96;65;0.46999999999999997;0.059999999999999998;0.26000000000000001;0.20999999999999999;1;3.0665709205486564;17;98;20;2;nein
2019_03_18 10:22;36;4;1;control;27;73;0;65;68;70;47;0.25;0.23000000000000001;0.20999999999999999;0.31;27;95;0;0;0.45000000000000001;0.55000000000000004;0.0;0.0;1;9.316537244769279;17;98;20;2;nein
2019_03_18 10:22;36;4;1;control;28;52;0;71;51;10;54;0.22;0.12;0.19;0.46999999999999997;91;1;0;0;0.29999999999999999;0.69999999999999996;0.0;0.0;0;2.983381805072895;17;98;20;2;nein
2019_03_18 10:22;36;4;1;control;29;2;0;59;32;0;0;0.080000000000000002;0.92000000000000004;0.0;0.0;33;38;85;1;0.28999999999999998;0.050000000000000003;0.070000000000000007;0.58999999999999997;1;3.316562261062245;17;98;20;2;nein
2019_03_18 10:22;36;4;1;control;30;20;0;44;40;0;0;0.91000000000000003;0.089999999999999997;0.0;0.0;29;5;80;99;0.25;0.40000000000000002;0.26000000000000001;0.089999999999999997;1;3.0832221498103536;17;98;20;2;nein
2019_03_18 10:22;36;4;1;control;31;55;1;74;55;47;48;0.60999999999999999;0.31;0.070000000000000007;0.01;97;6;0;0;0.42999999999999999;0.56999999999999995;0.0;0.0;0;4.1167375675431686;17;98;20;2;nein
2019_03_18 10:22;36;4;1;control;32;131;0;83;41;81;88;0.23999999999999999;0.58999999999999997;0.10000000000000001;0.070000000000000007;82;97;4;17;0.26000000000000001;0.46999999999999997;0.11;0.16;1;2.9000332909126882;17;98;20;2;nein
2019_03_18 10:22;36;4;1;control;33;98;0;27;10;31;79;0.23000000000000001;0.67000000000000004;0.070000000000000007;0.029999999999999999;25;99;0;0;0.38;0.62;0.0;0.0;1;2.1999690182838094;17;98;20;2;nein
2019_03_18 10:22;36;4;1;control;34;126;1;16;55;51;42;0.68999999999999995;0.23999999999999999;0.01;0.060000000000000102;66;4;1;5;0.46999999999999997;0.38;0.089999999999999997;0.059999999999999998;0;4.100071585084152;17;98;20;2;nein
2019_03_18 10:22;36;4;1;control;35;96;0;51;54;39;7;0.17000000000000001;0.26000000000000001;0.10000000000000001;0.46999999999999997;24;96;0;0;0.28000000000000003;0.71999999999999997;0.0;0.0;1;2.366542568749537;17;98;20;2;nein
2019_03_18 10:22;36;4;1;control;36;47;0;2;40;0;0;0.45000000000000001;0.55000000000000004;0.0;0.0;93;89;11;56;0.58999999999999997;0.070000000000000007;0.28000000000000003;0.059999999999999998;1;1.8000473385227451;17;98;20;2;nein
2019_03_18 10:22;36;4;1;control;37;53;1;26;70;50;80;0.29999999999999999;0.59999999999999998;0.040000000000000001;0.059999999999999998;89;1;0;0;0.40999999999999998;0.58999999999999997;0.0;0.0;0;3.6001783854098903;17;98;20;2;nein
2019_03_18 10:22;36;4;1;control;38;80;1;47;39;45;10;0.13;0.76000000000000001;0.059999999999999998;0.050000000000000003;2;87;0;0;0.48999999999999999;0.51000000000000001;0.0;0.0;0;8.166639939858214;17;98;20;2;nein
2019_03_18 10:22;36;4;1;control;39;1;1;22;51;0;0;0.26000000000000001;0.73999999999999999;0.0;0.0;14;11;92;31;0.29999999999999999;0.40999999999999998;0.14999999999999999;0.14000000000000001;1;6.4498432953769225;17;98;20;2;nein
2019_03_18 10:22;36;4;1;control;40;41;1;99;40;0;0;0.89000000000000001;0.11;0.0;0.0;1;67;52;46;0.51000000000000001;0.38;0.029999999999999999;0.080000000000000002;0;2.366584262570541;17;98;20;2;nein
2019_03_18 10:22;36;4;1;control;41;148;1;37;63;55;10;0.72999999999999998;0.070000000000000007;0.029999999999999999;0.17000000000000001;80;14;23;70;0.46999999999999997;0.10000000000000001;0.23000000000000001;0.20000000000000001;1;6.416486634884677;17;98;20;2;nein
2019_03_18 10:22;36;4;1;control;42;136;0;29;67;14;75;0.46000000000000002;0.29999999999999999;0.20999999999999999;0.0300000000000001;70;86;1;85;0.31;0.39000000000000001;0.27000000000000002;0.029999999999999898;1;8.783114194886366;17;98;20;2;nein
2019_03_18 10:22;36;4;1;control;43;6;0;9;51;0;0;0.14999999999999999;0.84999999999999998;0.0;0.0;6;40;50;73;0.42999999999999999;0.26000000000000001;0.059999999999999998;0.25;1;2.3832797514278354;17;98;20;2;nein
2019_03_18 10:22;36;4;1;control;44;147;1;39;43;76;28;0.14000000000000001;0.10000000000000001;0.10000000000000001;0.66000000000000003;6;31;68;85;0.27000000000000002;0.20000000000000001;0.22;0.31;1;6.53315268148981;17;98;20;2;nein
2019_03_18 10:22;36;4;1;control;45;65;1;75;64;59;52;0.59999999999999998;0.22;0.14000000000000001;0.040000000000000001;1;99;0;0;0.35999999999999999;0.64000000000000001;0.0;0.0;0;6.833354607872934;17;98;20;2;nein
2019_03_18 10:22;36;4;1;control;46;91;0;74;81;86;48;0.93000000000000005;0.02;0.01;0.039999999999999897;7;64;0;0;0.13;0.87;0.0;0.0;0;1.6665873414995076;17;98;20;2;nein
2019_03_18 10:22;36;4;1;control;47;77;1;24;17;99;41;0.17999999999999999;0.13;0.10000000000000001;0.58999999999999997;12;97;0;0;0.59999999999999998;0.40000000000000002;0.0;0.0;1;8.133308616381328;17;98;20;2;nein
2019_03_18 10:22;36;4;1;control;48;110;1;47;44;23;52;0.13;0.27000000000000002;0.040000000000000001;0.56000000000000005;99;2;30;22;0.28999999999999998;0.5;0.11;0.10000000000000001;1;3.566519284354399;17;98;20;2;nein
2019_03_18 10:22;36;4;1;control;49;149;1;14;89;73;53;0.93999999999999995;0.01;0.01;0.040000000000000001;97;45;6;13;0.34000000000000002;0.01;0.40999999999999998;0.23999999999999999;0;3.6167789406435986;17;98;20;2;nein
2019_03_18 10:22;36;4;1;control;50;39;0;14;33;0;0;0.78000000000000003;0.22;0.0;0.0;93;84;1;25;0.14000000000000001;0.23999999999999999;0.39000000000000001;0.23000000000000001;1;1.4999377799904323;17;98;20;2;nein
2019_03_18 10:22;36;4;1;control;51;82;0;78;66;30;27;0.28999999999999998;0.58999999999999997;0.080000000000000002;0.040000000000000001;90;6;0;0;0.82999999999999996;0.17000000000000001;0.0;0.0;0;5.183315543969911;17;98;20;2;nein
2019_03_18 10:22;36;4;1;control;52;16;1;64;53;0;0;0.65000000000000002;0.34999999999999998;0.0;0.0;29;17;81;46;0.10000000000000001;0.01;0.44;0.45000000000000001;1;2.4998880681259834;17;98;20;2;nein
2019_03_18 10:22;36;4;1;control;53;118;1;62;52;65;68;0.40999999999999998;0.44;0.10000000000000001;0.0500000000000001;79;20;14;37;0.56999999999999995;0.23999999999999999;0.14000000000000001;0.050000000000000003;0;3.099819497826502;17;98;20;2;nein
2019_03_18 10:22;36;4;1;control;54;9;0;61;69;0;0;0.93999999999999995;0.060000000000000102;0.0;0.0;18;93;72;16;0.40999999999999998;0.34999999999999998;0.089999999999999997;0.14999999999999999;0;6.633297391122142;17;98;20;2;nein
2019_03_18 10:22;36;4;1;control;55;104;0;55;85;93;3;0.87;0.02;0.089999999999999997;0.02;1;2;90;8;0.35999999999999999;0.070000000000000007;0.40000000000000002;0.17000000000000001;1;5.266658285139783;17;98;20;2;nein
2019_03_18 10:22;36;4;1;control;56;101;1;30;96;61;45;0.65000000000000002;0.14000000000000001;0.11;0.10000000000000001;3;98;63;89;0.75;0.19;0.040000000000000001;0.02;0;4.7165256346434035;17;98;20;2;nein
2019_03_18 10:22;36;4;1;control;57;83;0;17;12;7;41;0.65000000000000002;0.19;0.089999999999999997;0.070000000000000007;6;84;0;0;0.72999999999999998;0.27000000000000002;0.0;0.0;0;3.999827451724741;17;98;20;2;nein
2019_03_18 10:22;36;4;1;control;58;58;0;37;58;76;34;0.20999999999999999;0.57999999999999996;0.19;0.020000000000000101;86;5;0;0;0.47999999999999998;0.52000000000000002;0.0;0.0;1;3.816541414152198;17;98;20;2;nein
2019_03_18 10:22;36;4;1;control;59;111;0;51;36;48;27;0.93000000000000005;0.01;0.01;0.049999999999999899;31;78;30;53;0.55000000000000004;0.16;0.029999999999999999;0.26000000000000001;1;6.683291810563787;17;98;20;2;nein
2019_03_18 10:22;36;4;1;control;60;64;1;48;39;34;19;0.46000000000000002;0.5;0.02;0.02;13;92;0;0;0.68999999999999995;0.31;0.0;0.0;0;3.7333878987856224;17;98;20;2;nein
2019_03_18 10:22;36;4;1;control;61;134;1;57;48;50;55;0.02;0.62;0.17999999999999999;0.17999999999999999;80;96;15;18;0.23999999999999999;0.35999999999999999;0.33000000000000002;0.070000000000000007;1;3.2831841122169863;17;98;20;2;nein
2019_03_18 10:22;36;4;1;control;62;95;1;93;88;68;85;0.83999999999999997;0.14000000000000001;0.01;0.01;2;82;0;0;0.41999999999999998;0.57999999999999996;0.0;0.0;0;3.5501615154480533;17;98;20;2;nein
2019_03_18 10:22;36;4;1;control;63;5;1;70;5;0;0;0.98999999999999999;0.01;0.0;0.0;92;87;47;1;0.44;0.02;0.16;0.38;1;1.8667327567191023;17;98;20;2;nein
2019_03_18 10:22;36;4;1;control;64;87;1;10;30;63;4;0.56999999999999995;0.12;0.16;0.14999999999999999;86;2;0;0;0.42999999999999999;0.56999999999999995;0.0;0.0;0;2.31659882333679;17;98;20;2;nein
2019_03_18 10:22;36;4;1;control;65;123;1;26;24;51;92;0.72999999999999998;0.16;0.070000000000000007;0.040000000000000001;6;90;82;49;0.64000000000000001;0.25;0.050000000000000003;0.059999999999999998;1;4.533221957377464;17;98;20;2;nein
2019_03_18 10:22;36;4;1;control;66;62;1;12;45;16;50;0.20999999999999999;0.76000000000000001;0.02;0.01;92;15;0;0;0.20999999999999999;0.79000000000000004;0.0;0.0;1;4.783348963170283;17;98;20;2;nein
2019_03_18 10:22;36;4;1;control;67;106;0;85;69;22;61;0.10000000000000001;0.58999999999999997;0.17999999999999999;0.13;20;79;91;84;0.55000000000000004;0.14999999999999999;0.26000000000000001;0.039999999999999897;1;4.216643660229238;17;98;20;2;nein
2019_03_18 10:22;36;4;1;control;68;142;1;98;65;64;84;0.88;0.070000000000000007;0.01;0.040000000000000001;5;68;60;16;0.46000000000000002;0.080000000000000002;0.27000000000000002;0.19;0;3.299922257059734;17;98;20;2;nein
2019_03_18 10:22;36;4;1;control;69;42;0;70;48;0;0;0.79000000000000004;0.20999999999999999;0.0;0.0;51;8;12;67;0.19;0.26000000000000001;0.28999999999999998;0.26000000000000001;0;3.6665584765460153;17;98;20;2;nein
2019_03_18 10:22;36;4;1;control;70;24;0;35;27;0;0;0.070000000000000007;0.93000000000000005;0.0;0.0;62;3;81;95;0.35999999999999999;0.55000000000000004;0.01;0.080000000000000002;1;2.6498921733646057;17;98;20;2;nein
2019_03_18 10:22;36;4;1;control;71;4;1;40;43;0;0;0.58999999999999997;0.40999999999999998;0.0;0.0;2;33;88;81;0.69999999999999996;0.14000000000000001;0.13;0.029999999999999999;0;2.833394056641737;17;98;20;2;nein
2019_03_18 10:22;36;4;1;control;72;144;1;99;93;90;71;0.65000000000000002;0.32000000000000001;0.01;0.02;97;14;48;73;0.23000000000000001;0.46000000000000002;0.13;0.17999999999999999;0;3.2998943542716006;17;98;20;2;nein
2019_03_18 10:22;36;4;1;control;73;79;0;52;46;29;22;0.17999999999999999;0.51000000000000001;0.23999999999999999;0.070000000000000104;93;14;0;0;0.45000000000000001;0.55000000000000004;0.0;0.0;1;7.566303438649811;17;98;20;2;nein
2019_03_18 10:22;36;4;1;control;74;48;0;13;32;0;0;0.90000000000000002;0.10000000000000001;0.0;0.0;24;99;84;94;0.62;0.14999999999999999;0.20000000000000001;0.029999999999999999;1;4.366423260276861;17;98;20;2;nein
2019_03_18 10:22;36;4;1;control;75;44;0;79;74;0;0;0.71999999999999997;0.28000000000000003;0.0;0.0;3;67;15;36;0.41999999999999998;0.53000000000000003;0.02;0.029999999999999999;0;2.466571497847326;17;98;20;2;nein
