date;id;block;order;cond;trial;gameid;leftright;oa1;oa2;oa3;oa4;pa1;pa2;pa3;pa4;ob1;ob2;ob3;ob4;pb1;pb2;pb3;pb4;choice;rt;paytrial;payout;alter;geschlecht;comment
2019_02_22 11:21;9;0;0;practice;1;48;0;20;25;24;35;0.32000000000000001;0.13;0.48999999999999999;0.059999999999999901;44;76;0;0;0.29999999999999999;0.69999999999999996;0.0;0.0;1;5.5580486625203775;39;9;20;2;das experiment war interessant
2019_02_22 11:21;9;0;0;practice;2;31;0;72;59;40;92;0.59999999999999998;0.34999999999999998;0.02;0.029999999999999999;97;29;0;0;0.38;0.62;0.0;0.0;0;4.112811718108787;39;9;20;2;das experiment war interessant
2019_02_22 11:21;9;0;0;practice;3;60;1;39;93;27;78;0.85999999999999999;0.02;0.11;0.01;22;5;62;95;0.059999999999999998;0.56999999999999995;0.14000000000000001;0.23000000000000001;0;5.714043147165285;39;9;20;2;das experiment war interessant
2019_02_22 11:21;9;0;0;practice;4;52;1;17;61;57;59;0.070000000000000007;0.050000000000000003;0.33000000000000002;0.55000000000000004;12;93;94;62;0.71999999999999997;0.16;0.080000000000000002;0.040000000000000001;0;5.263582716372184;39;9;20;2;das experiment war interessant
2019_02_22 11:21;9;0;0;practice;5;19;1;25;73;0;0;0.69999999999999996;0.29999999999999999;0.0;0.0;87;84;1;86;0.040000000000000001;0.59999999999999998;0.28000000000000003;0.080000000000000002;1;4.312946041829491;39;9;20;2;das experiment war interessant
2019_02_22 11:21;9;0;0;practice;6;65;1;35;15;77;1;0.62;0.33000000000000002;0.029999999999999999;0.02;68;3;25;96;0.38;0.28000000000000003;0.28000000000000003;0.059999999999999901;1;4.933266321149858;39;9;20;2;das experiment war interessant
2019_02_22 11:21;9;0;0;practice;7;75;0;21;86;27;62;0.88;0.040000000000000001;0.070000000000000007;0.0099999999999999794;13;3;49;87;0.28999999999999998;0.39000000000000001;0.070000000000000007;0.25;0;5.013594022273537;39;9;20;2;das experiment war interessant
2019_02_22 11:21;9;0;0;practice;8;57;0;39;68;59;91;0.73999999999999999;0.040000000000000001;0.14999999999999999;0.070000000000000007;9;22;40;84;0.29999999999999999;0.32000000000000001;0.040000000000000001;0.34000000000000002;1;4.85330329545468;39;9;20;2;das experiment war interessant
2019_02_22 11:21;9;0;0;practice;9;24;1;19;38;0;0;0.89000000000000001;0.11;0.0;0.0;45;76;95;57;0.29999999999999999;0.22;0.40000000000000002;0.080000000000000002;1;3.8726310931178887;39;9;20;2;das experiment war interessant
2019_02_22 11:21;9;0;0;practice;10;34;0;57;23;66;79;0.56000000000000005;0.23000000000000001;0.13;0.079999999999999905;85;9;0;0;0.56000000000000005;0.44;0.0;0.0;1;2.8119182472746616;39;9;20;2;das experiment war interessant
2019_02_22 11:21;9;0;0;practice;11;68;1;39;58;40;8;0.48999999999999999;0.44;0.02;0.050000000000000003;92;83;51;2;0.57999999999999996;0.13;0.02;0.27000000000000002;1;1.5611530543083063;39;9;20;2;das experiment war interessant
2019_02_22 11:21;9;0;0;practice;12;61;0;51;48;56;88;0.91000000000000003;0.02;0.01;0.059999999999999998;78;21;14;82;0.55000000000000004;0.29999999999999999;0.070000000000000007;0.080000000000000002;0;2.46172046618085;39;9;20;2;das experiment war interessant
2019_02_22 11:21;9;0;0;practice;13;2;0;41;60;0;0;0.97999999999999998;0.02;0.0;0.0;10;14;97;6;0.54000000000000004;0.17000000000000001;0.12;0.17000000000000001;0;3.83273521645242;39;9;20;2;das experiment war interessant
2019_02_22 11:21;9;0;0;practice;14;67;1;74;31;10;77;0.11;0.070000000000000007;0.77000000000000002;0.050000000000000003;2;23;8;97;0.56999999999999995;0.01;0.059999999999999998;0.35999999999999999;0;3.682612743881691;39;9;20;2;das experiment war interessant
2019_02_22 11:21;9;0;0;practice;15;50;1;17;12;21;14;0.55000000000000004;0.34000000000000002;0.059999999999999998;0.049999999999999899;13;93;0;0;0.28999999999999998;0.70999999999999996;0.0;0.0;1;3.6624821471014;39;9;20;2;das experiment war interessant
2019_02_22 11:21;9;0;0;practice;16;56;1;47;52;64;10;0.77000000000000002;0.040000000000000001;0.11;0.080000000000000002;1;5;12;99;0.14000000000000001;0.28999999999999998;0.27000000000000002;0.29999999999999999;0;3.4522876567480125;39;9;20;2;das experiment war interessant
2019_02_22 11:21;9;0;0;practice;17;58;0;44;50;85;42;0.38;0.57999999999999996;0.02;0.02;37;88;19;12;0.20000000000000001;0.29999999999999999;0.46000000000000002;0.040000000000000001;0;3.4025028858104633;39;9;20;2;das experiment war interessant
2019_02_22 11:21;9;0;0;practice;18;25;0;7;18;0;0;0.20999999999999999;0.79000000000000004;0.0;0.0;92;45;33;13;0.41999999999999998;0.17999999999999999;0.22;0.17999999999999999;1;2.391804136259452;39;9;20;2;das experiment war interessant
2019_02_22 11:21;9;0;0;practice;19;40;1;29;65;30;41;0.70999999999999996;0.01;0.14999999999999999;0.13;2;59;0;0;0.32000000000000001;0.68000000000000005;0.0;0.0;1;2.8719549842353445;39;9;20;2;das experiment war interessant
2019_02_22 11:21;9;0;0;practice;20;35;1;84;95;4;35;0.89000000000000001;0.050000000000000003;0.01;0.050000000000000003;5;98;0;0;0.19;0.81000000000000005;0.0;0.0;1;2.3115040183256497;39;9;20;2;das experiment war interessant
2019_02_22 11:21;9;0;0;practice;21;69;0;38;74;27;73;0.22;0.19;0.45000000000000001;0.14000000000000001;1;97;79;84;0.28000000000000003;0.45000000000000001;0.17000000000000001;0.10000000000000001;0;3.2421512193850504;39;9;20;2;das experiment war interessant
2019_02_22 11:21;9;0;0;practice;22;70;0;21;42;14;63;0.96999999999999997;0.01;0.01;0.01;70;2;6;76;0.23999999999999999;0.42999999999999999;0.01;0.32000000000000001;0;2.92210410986263;39;9;20;2;das experiment war interessant
2019_02_22 11:21;9;0;0;practice;23;51;0;38;13;51;84;0.91000000000000003;0.070000000000000007;0.01;0.0099999999999999603;4;89;35;16;0.80000000000000004;0.089999999999999997;0.059999999999999998;0.050000000000000003;0;2.9721066597048775;39;9;20;2;das experiment war interessant
2019_02_22 11:21;9;0;0;practice;24;59;0;13;27;48;51;0.56999999999999995;0.13;0.13;0.17000000000000001;8;37;97;1;0.65000000000000002;0.16;0.14999999999999999;0.040000000000000001;0;4.733356511766033;39;9;20;2;das experiment war interessant
2019_02_22 11:21;9;0;0;practice;25;54;0;69;80;22;55;0.27000000000000002;0.31;0.059999999999999998;0.35999999999999999;52;2;49;90;0.059999999999999998;0.33000000000000002;0.20000000000000001;0.40999999999999998;1;3.8930051275874575;39;9;20;2;das experiment war interessant
2019_02_22 11:21;9;0;0;practice;26;20;0;32;11;0;0;0.40999999999999998;0.58999999999999997;0.0;0.0;1;86;42;65;0.45000000000000001;0.38;0.050000000000000003;0.12;1;2.501691074046903;39;9;20;2;das experiment war interessant
2019_02_22 11:21;9;0;0;practice;27;38;0;51;89;10;60;0.57999999999999996;0.029999999999999999;0.080000000000000002;0.31;8;84;0;0;0.33000000000000002;0.67000000000000004;0.0;0.0;1;2.8321386497900676;39;9;20;2;das experiment war interessant
2019_02_22 11:21;9;0;0;practice;28;43;1;11;17;21;44;0.16;0.46000000000000002;0.25;0.13;2;66;0;0;0.44;0.56000000000000005;0.0;0.0;1;2.051544963325796;39;9;20;2;das experiment war interessant
2019_02_22 11:21;9;0;0;practice;29;21;1;59;69;0;0;0.34000000000000002;0.66000000000000003;0.0;0.0;64;18;5;24;0.14999999999999999;0.040000000000000001;0.51000000000000001;0.29999999999999999;0;2.031370105147289;39;9;20;2;das experiment war interessant
2019_02_22 11:21;9;0;0;practice;30;17;1;27;61;0;0;0.68999999999999995;0.31;0.0;0.0;3;91;69;43;0.29999999999999999;0.33000000000000002;0.27000000000000002;0.099999999999999895;0;2.7119740871967224;39;9;20;2;das experiment war interessant
2019_02_22 11:21;9;0;0;practice;31;6;1;42;59;0;0;0.35999999999999999;0.64000000000000001;0.0;0.0;77;19;6;7;0.44;0.14999999999999999;0.17999999999999999;0.23000000000000001;1;2.791906322356226;39;9;20;2;das experiment war interessant
2019_02_22 11:21;9;0;0;practice;32;18;0;47;36;0;0;0.089999999999999997;0.91000000000000003;0.0;0.0;2;44;81;9;0.20000000000000001;0.25;0.51000000000000001;0.040000000000000001;0;1.79133284859563;39;9;20;2;das experiment war interessant
2019_02_22 11:21;9;0;0;practice;33;42;1;23;45;91;22;0.72999999999999998;0.02;0.20000000000000001;0.050000000000000003;2;86;0;0;0.40999999999999998;0.58999999999999997;0.0;0.0;0;2.5919817591729952;39;9;20;2;das experiment war interessant
2019_02_22 11:21;9;0;0;practice;34;72;1;86;85;97;43;0.51000000000000001;0.14999999999999999;0.33000000000000002;0.0099999999999999499;72;29;10;90;0.01;0.11;0.65000000000000002;0.23000000000000001;0;2.211598346419123;39;9;20;2;das experiment war interessant
2019_02_22 11:21;9;0;0;practice;35;55;1;53;11;80;74;0.31;0.37;0.28000000000000003;0.039999999999999897;6;93;98;96;0.69999999999999996;0.22;0.050000000000000003;0.029999999999999999;0;2.571858860024804;39;9;20;2;das experiment war interessant
2019_02_22 11:21;9;0;0;practice;36;7;1;13;31;0;0;0.51000000000000001;0.48999999999999999;0.0;0.0;8;79;42;18;0.85999999999999999;0.089999999999999997;0.02;0.029999999999999999;0;2.872041582621023;39;9;20;2;das experiment war interessant
2019_02_22 11:21;9;0;0;practice;37;9;0;57;44;0;0;0.14999999999999999;0.84999999999999998;0.0;0.0;38;35;64;95;0.34000000000000002;0.45000000000000001;0.089999999999999997;0.12;0;2.3916107331970125;39;9;20;2;das experiment war interessant
2019_02_22 11:21;9;0;0;practice;38;30;0;54;78;85;25;0.20999999999999999;0.60999999999999999;0.089999999999999997;0.090000000000000094;87;20;0;0;0.58999999999999997;0.40999999999999998;0.0;0.0;0;2.3315544314154977;39;9;20;2;das experiment war interessant
2019_02_22 11:21;9;0;0;practice;39;62;0;65;52;74;55;0.16;0.12;0.14999999999999999;0.56999999999999995;72;86;2;68;0.12;0.53000000000000003;0.22;0.13;1;2.721956636018149;39;9;20;2;das experiment war interessant
2019_02_22 11:21;9;0;0;practice;40;66;1;44;18;63;36;0.47999999999999998;0.10000000000000001;0.029999999999999999;0.39000000000000001;13;93;61;53;0.52000000000000002;0.45000000000000001;0.02;0.0099999999999999707;0;2.731957466719905;39;9;20;2;das experiment war interessant
2019_02_22 11:21;9;0;0;practice;41;45;0;37;40;75;23;0.54000000000000004;0.38;0.059999999999999998;0.02;1;90;0;0;0.28000000000000003;0.71999999999999997;0.0;0.0;1;1.9914126474068325;39;9;20;2;das experiment war interessant
2019_02_22 11:21;9;0;0;practice;42;16;1;50;42;0;0;0.32000000000000001;0.68000000000000005;0.0;0.0;97;2;56;31;0.35999999999999999;0.16;0.16;0.32000000000000001;0;1.8314237319991662;39;9;20;2;das experiment war interessant
2019_02_22 11:21;9;0;0;practice;43;15;0;24;59;0;0;0.56999999999999995;0.42999999999999999;0.0;0.0;9;8;80;22;0.31;0.10000000000000001;0.55000000000000004;0.039999999999999897;0;2.3119302748273185;39;9;20;2;das experiment war interessant
2019_02_22 11:21;9;0;0;practice;44;3;1;20;70;0;0;0.13;0.87;0.0;0.0;95;19;80;73;0.31;0.57999999999999996;0.029999999999999999;0.080000000000000002;1;1.5509918562220264;39;9;20;2;das experiment war interessant
2019_02_22 11:21;9;0;0;practice;45;33;1;54;82;55;71;0.56000000000000005;0.20999999999999999;0.02;0.20999999999999999;13;99;0;0;0.5;0.5;0.0;0.0;1;1.8412003691028076;39;9;20;2;das experiment war interessant
2019_02_22 11:21;9;0;0;practice;46;14;0;92;56;0;0;0.11;0.89000000000000001;0.0;0.0;97;31;51;4;0.58999999999999997;0.22;0.080000000000000002;0.11;1;1.511083791636338;39;9;20;2;das experiment war interessant
2019_02_22 11:21;9;0;0;practice;47;36;0;56;89;86;77;0.66000000000000003;0.080000000000000002;0.14999999999999999;0.11;29;91;0;0;0.40999999999999998;0.58999999999999997;0.0;0.0;0;1.4510855428488867;39;9;20;2;das experiment war interessant
2019_02_22 11:21;9;0;0;practice;48;23;0;99;93;0;0;0.57999999999999996;0.41999999999999998;0.0;0.0;64;10;80;81;0.13;0.55000000000000004;0.02;0.29999999999999999;0;2.9919925358608452;39;9;20;2;das experiment war interessant
2019_02_22 11:21;9;0;0;practice;49;49;1;14;31;42;22;0.77000000000000002;0.089999999999999997;0.02;0.12;87;28;0;0;0.68000000000000005;0.32000000000000001;0.0;0.0;1;2.0013448408681143;39;9;20;2;das experiment war interessant
2019_02_22 11:21;9;0;0;practice;50;22;0;84;87;0;0;0.17000000000000001;0.82999999999999996;0.0;0.0;3;24;41;83;0.68000000000000005;0.11;0.10000000000000001;0.11;0;2.271540145889958;39;9;20;2;das experiment war interessant
2019_02_22 11:21;9;0;0;practice;51;27;1;68;43;98;36;0.54000000000000004;0.44;0.01;0.0099999999999999603;97;13;0;0;0.27000000000000002;0.72999999999999998;0.0;0.0;0;1.7110394660921884;39;9;20;2;das experiment war interessant
2019_02_22 11:21;9;0;0;practice;52;73;0;99;88;95;28;0.83999999999999997;0.14000000000000001;0.01;0.01;90;93;10;74;0.080000000000000002;0.46000000000000002;0.34999999999999998;0.11;0;1.5710509291511698;39;9;20;2;das experiment war interessant
2019_02_22 11:21;9;0;0;practice;53;28;1;37;83;75;8;0.83999999999999997;0.070000000000000007;0.01;0.080000000000000002;94;2;0;0;0.19;0.81000000000000005;0.0;0.0;0;2.2316304776268225;39;9;20;2;das experiment war interessant
2019_02_22 11:21;9;0;0;practice;54;26;1;24;46;74;59;0.29999999999999999;0.11;0.25;0.34000000000000002;91;6;0;0;0.28999999999999998;0.70999999999999996;0.0;0.0;0;3.0321838092440885;39;9;20;2;das experiment war interessant
2019_02_22 11:21;9;0;0;practice;55;32;1;21;86;16;78;0.45000000000000001;0.41999999999999998;0.050000000000000003;0.080000000000000099;95;9;0;0;0.42999999999999999;0.56999999999999995;0.0;0.0;1;1.6711288356273144;39;9;20;2;das experiment war interessant
2019_02_22 11:21;9;0;0;practice;56;63;1;24;82;6;96;0.91000000000000003;0.070000000000000007;0.01;0.0099999999999999603;73;10;71;22;0.31;0.51000000000000001;0.050000000000000003;0.13;1;2.6920882110407547;39;9;20;2;das experiment war interessant
2019_02_22 11:21;9;0;0;practice;57;4;1;40;59;0;0;0.19;0.81000000000000005;0.0;0.0;10;88;13;45;0.56000000000000005;0.28999999999999998;0.01;0.14000000000000001;1;3.1120887819488416;39;9;20;2;das experiment war interessant
2019_02_22 11:21;9;0;0;practice;58;71;1;94;87;26;75;0.71999999999999997;0.23999999999999999;0.02;0.02;90;27;12;83;0.16;0.73999999999999999;0.02;0.080000000000000002;1;2.251484280308432;39;9;20;2;das experiment war interessant
2019_02_22 11:21;9;0;0;practice;59;12;1;45;86;0;0;0.97999999999999998;0.02;0.0;0.0;6;23;95;81;0.14999999999999999;0.40999999999999998;0.050000000000000003;0.39000000000000001;0;2.5516785493546195;39;9;20;2;das experiment war interessant
2019_02_22 11:21;9;0;0;practice;60;11;1;10;44;0;0;0.48999999999999999;0.51000000000000001;0.0;0.0;88;12;54;50;0.17000000000000001;0.75;0.02;0.059999999999999998;0;3.8325976212399837;39;9;20;2;das experiment war interessant
2019_02_22 11:21;9;0;0;practice;61;44;1;69;48;22;63;0.39000000000000001;0.40999999999999998;0.19;0.01;1;94;0;0;0.22;0.78000000000000003;0.0;0.0;1;1.921401700727074;39;9;20;2;das experiment war interessant
2019_02_22 11:21;9;0;0;practice;62;8;0;20;44;0;0;0.26000000000000001;0.73999999999999999;0.0;0.0;99;3;69;24;0.20999999999999999;0.60999999999999999;0.12;0.060000000000000102;1;2.7519405255116;39;9;20;2;das experiment war interessant
2019_02_22 11:21;9;0;0;practice;63;64;1;44;60;96;45;0.53000000000000003;0.10000000000000001;0.029999999999999999;0.34000000000000002;88;20;43;31;0.47999999999999998;0.38;0.050000000000000003;0.089999999999999997;0;2.21147037324954;39;9;20;2;das experiment war interessant
2019_02_22 11:21;9;0;0;practice;64;5;0;23;58;0;0;0.71999999999999997;0.28000000000000003;0.0;0.0;94;12;52;3;0.11;0.84999999999999998;0.029999999999999999;0.01;0;1.9114108128032967;39;9;20;2;das experiment war interessant
2019_02_22 11:21;9;0;0;practice;65;53;1;47;24;95;38;0.57999999999999996;0.28000000000000003;0.02;0.12;8;22;93;96;0.54000000000000004;0.34000000000000002;0.10000000000000001;0.0199999999999999;0;1.9612699942044856;39;9;20;2;das experiment war interessant
2019_02_22 11:21;9;0;0;practice;66;37;1;50;66;99;12;0.26000000000000001;0.71999999999999997;0.01;0.01;22;90;0;0;0.37;0.63;0.0;0.0;1;1.511117468786324;39;9;20;2;das experiment war interessant
2019_02_22 11:21;9;0;0;practice;67;13;1;15;25;0;0;0.29999999999999999;0.69999999999999996;0.0;0.0;3;43;35;73;0.44;0.40000000000000002;0.01;0.14999999999999999;0;1.6310876661118527;39;9;20;2;das experiment war interessant
2019_02_22 11:21;9;0;0;practice;68;29;1;66;40;92;49;0.46999999999999997;0.10000000000000001;0.34000000000000002;0.089999999999999997;8;94;0;0;0.44;0.56000000000000005;0.0;0.0;0;1.741327732876016;39;9;20;2;das experiment war interessant
2019_02_22 11:21;9;0;0;practice;69;1;0;67;36;0;0;0.14999999999999999;0.84999999999999998;0.0;0.0;1;4;81;77;0.25;0.54000000000000004;0.14000000000000001;0.070000000000000007;1;1.791351451211085;39;9;20;2;das experiment war interessant
2019_02_22 11:21;9;0;0;practice;70;10;0;34;59;0;0;0.16;0.83999999999999997;0.0;0.0;21;61;96;7;0.19;0.01;0.5;0.29999999999999999;0;1.5111158651125152;39;9;20;2;das experiment war interessant
2019_02_22 11:21;9;0;0;practice;71;41;1;19;54;51;8;0.76000000000000001;0.070000000000000007;0.16;0.0099999999999999794;2;77;0;0;0.54000000000000004;0.46000000000000002;0.0;0.0;0;1.8311873504771938;39;9;20;2;das experiment war interessant
2019_02_22 11:21;9;0;0;practice;72;39;1;53;65;48;75;0.92000000000000004;0.029999999999999999;0.01;0.040000000000000001;16;83;0;0;0.31;0.68999999999999995;0.0;0.0;1;1.4711032409923064;39;9;20;2;das experiment war interessant
2019_02_22 11:21;9;0;0;practice;73;47;1;91;99;90;78;0.93000000000000005;0.040000000000000001;0.02;0.0099999999999999499;10;87;0;0;0.23000000000000001;0.77000000000000002;0.0;0.0;1;1.6311328897154453;39;9;20;2;das experiment war interessant
2019_02_22 11:21;9;0;0;practice;74;74;0;36;46;10;12;0.11;0.19;0.65000000000000002;0.049999999999999899;92;24;79;19;0.51000000000000001;0.40999999999999998;0.02;0.059999999999999998;1;2.451640093255264;39;9;20;2;das experiment war interessant
2019_02_22 11:21;9;0;0;practice;75;46;0;79;57;98;81;0.67000000000000004;0.070000000000000007;0.20999999999999999;0.050000000000000003;1;76;0;0;0.56000000000000005;0.44;0.0;0.0;1;2.111443784337098;39;9;20;2;das experiment war interessant
2019_02_22 11:21;9;1;0;control;1;135;1;48;60;41;51;0.14000000000000001;0.40000000000000002;0.089999999999999997;0.37;94;1;85;65;0.64000000000000001;0.29999999999999999;0.01;0.050000000000000003;1;2.5346148183962214;39;9;20;2;das experiment war interessant
2019_02_22 11:21;9;1;0;control;2;124;1;37;65;15;41;0.17999999999999999;0.45000000000000001;0.02;0.34999999999999998;40;7;98;30;0.070000000000000007;0.45000000000000001;0.45000000000000001;0.029999999999999898;1;2.801818309530063;39;9;20;2;das experiment war interessant
2019_02_22 11:21;9;1;0;control;3;52;0;71;51;10;54;0.22;0.12;0.19;0.46999999999999997;91;1;0;0;0.29999999999999999;0.69999999999999996;0.0;0.0;0;2.9920274959513335;39;9;20;2;das experiment war interessant
2019_02_22 11:21;9;1;0;control;4;116;0;53;65;43;99;0.56999999999999995;0.37;0.050000000000000003;0.010000000000000101;57;72;11;87;0.67000000000000004;0.13;0.14999999999999999;0.050000000000000003;1;2.8118986824538297;39;9;20;2;das experiment war interessant
2019_02_22 11:21;9;1;0;control;5;37;0;14;98;0;0;0.93000000000000005;0.070000000000000007;0.0;0.0;41;2;87;66;0.17999999999999999;0.48999999999999999;0.32000000000000001;0.010000000000000101;1;2.031501285666309;39;9;20;2;das experiment war interessant
2019_02_22 11:21;9;1;0;control;6;18;0;68;50;0;0;0.029999999999999999;0.96999999999999997;0.0;0.0;34;64;15;89;0.65000000000000002;0.029999999999999999;0.050000000000000003;0.27000000000000002;0;2.521593307676085;39;9;20;2;das experiment war interessant
2019_02_22 11:21;9;1;0;control;7;56;1;28;84;37;41;0.68000000000000005;0.28000000000000003;0.02;0.0199999999999999;6;95;0;0;0.72999999999999998;0.27000000000000002;0.0;0.0;0;3.3522668410605547;39;9;20;2;das experiment war interessant
2019_02_22 11:21;9;1;0;control;8;133;1;59;88;60;36;0.67000000000000004;0.070000000000000007;0.12;0.14000000000000001;7;91;66;61;0.25;0.68999999999999995;0.01;0.0500000000000001;1;1.6911513447921607;39;9;20;2;das experiment war interessant
2019_02_22 11:21;9;1;0;control;9;113;0;85;65;39;64;0.44;0.34000000000000002;0.13;0.089999999999999997;87;2;4;35;0.67000000000000004;0.17000000000000001;0.11;0.049999999999999899;1;3.2121535382975708;39;9;20;2;das experiment war interessant
2019_02_22 11:21;9;1;0;control;10;121;1;42;51;47;70;0.41999999999999998;0.17000000000000001;0.23999999999999999;0.17000000000000001;21;76;48;9;0.14999999999999999;0.34000000000000002;0.40999999999999998;0.10000000000000001;1;3.682629422090031;39;9;20;2;das experiment war interessant
2019_02_22 11:21;9;1;0;control;11;141;0;93;28;60;91;0.81999999999999995;0.10000000000000001;0.01;0.070000000000000007;14;85;7;89;0.45000000000000001;0.070000000000000007;0.23999999999999999;0.23999999999999999;0;2.1314040709585242;39;9;20;2;das experiment war interessant
2019_02_22 11:21;9;1;0;control;12;65;1;75;64;59;52;0.59999999999999998;0.22;0.14000000000000001;0.040000000000000001;1;99;0;0;0.35999999999999999;0.64000000000000001;0.0;0.0;1;2.031302109377066;39;9;20;2;das experiment war interessant
2019_02_22 11:21;9;1;0;control;13;94;0;84;86;93;39;0.78000000000000003;0.20000000000000001;0.01;0.0099999999999999603;9;83;0;0;0.46999999999999997;0.53000000000000003;0.0;0.0;0;2.111554437829909;39;9;20;2;das experiment war interessant
2019_02_22 11:21;9;1;0;control;14;29;0;44;51;0;0;0.78000000000000003;0.22;0.0;0.0;74;1;68;82;0.69999999999999996;0.28000000000000003;0.01;0.01;0;2.5518687450712605;39;9;20;2;das experiment war interessant
2019_02_22 11:21;9;1;0;control;15;28;1;47;30;0;0;0.97999999999999998;0.02;0.0;0.0;55;48;77;13;0.070000000000000007;0.26000000000000001;0.42999999999999999;0.23999999999999999;0;2.1115069690858945;39;9;20;2;das experiment war interessant
2019_02_22 11:21;9;1;0;control;16;87;1;10;30;63;4;0.56999999999999995;0.12;0.16;0.14999999999999999;86;2;0;0;0.42999999999999999;0.56999999999999995;0.0;0.0;1;2.1914863522542873;39;9;20;2;das experiment war interessant
2019_02_22 11:21;9;1;0;control;17;148;0;37;63;55;10;0.72999999999999998;0.070000000000000007;0.029999999999999999;0.17000000000000001;80;14;23;70;0.46999999999999997;0.10000000000000001;0.23000000000000001;0.20000000000000001;1;3.442335898462261;39;9;20;2;das experiment war interessant
2019_02_22 11:21;9;1;0;control;18;32;1;19;81;0;0;0.93000000000000005;0.070000000000000007;0.0;0.0;1;65;41;68;0.45000000000000001;0.050000000000000003;0.059999999999999998;0.44;1;3.2822257453153725;39;9;20;2;das experiment war interessant
2019_02_22 11:21;9;1;0;control;19;54;1;44;79;78;52;0.79000000000000004;0.19;0.01;0.0099999999999999603;96;1;0;0;0.28000000000000003;0.71999999999999997;0.0;0.0;0;2.391720424486266;39;9;20;2;das experiment war interessant
2019_02_22 11:21;9;1;0;control;20;73;1;65;68;70;47;0.25;0.23000000000000001;0.20999999999999999;0.31;27;95;0;0;0.45000000000000001;0.55000000000000004;0.0;0.0;1;1.8312460449396895;39;9;20;2;das experiment war interessant
2019_02_22 11:21;9;1;0;control;21;22;0;32;55;0;0;0.39000000000000001;0.60999999999999999;0.0;0.0;93;72;59;22;0.20000000000000001;0.11;0.14000000000000001;0.55000000000000004;0;2.1514528803745634;39;9;20;2;das experiment war interessant
2019_02_22 11:21;9;1;0;control;22;74;1;66;47;52;44;0.41999999999999998;0.26000000000000001;0.17999999999999999;0.14000000000000001;17;99;0;0;0.47999999999999998;0.52000000000000002;0.0;0.0;1;3.11211091264704;39;9;20;2;das experiment war interessant
2019_02_22 11:21;9;1;0;control;23;95;0;93;88;68;85;0.83999999999999997;0.14000000000000001;0.01;0.01;2;82;0;0;0.41999999999999998;0.57999999999999996;0.0;0.0;0;2.071380163390131;39;9;20;2;das experiment war interessant
2019_02_22 11:21;9;1;0;control;24;36;1;70;17;0;0;0.33000000000000002;0.67000000000000004;0.0;0.0;84;1;12;88;0.22;0.27000000000000002;0.14000000000000001;0.37;1;2.9519972314174083;39;9;20;2;das experiment war interessant
2019_02_22 11:21;9;1;0;control;25;3;0;53;40;0;0;0.31;0.68999999999999995;0.0;0.0;96;24;7;88;0.11;0.27000000000000002;0.58999999999999997;0.029999999999999999;0;2.3915934135184216;39;9;20;2;das experiment war interessant
2019_02_22 11:21;9;1;0;control;26;35;1;33;37;0;0;0.88;0.12;0.0;0.0;63;4;79;98;0.16;0.46000000000000002;0.17000000000000001;0.20999999999999999;0;4.633271869861346;39;9;20;2;das experiment war interessant
2019_02_22 11:21;9;1;0;control;27;104;1;55;85;93;3;0.87;0.02;0.089999999999999997;0.02;1;2;90;8;0.35999999999999999;0.070000000000000007;0.40000000000000002;0.17000000000000001;1;2.501688828902843;39;9;20;2;das experiment war interessant
2019_02_22 11:21;9;1;0;control;28;117;1;65;85;92;41;0.23000000000000001;0.17999999999999999;0.54000000000000004;0.050000000000000003;99;93;10;13;0.64000000000000001;0.16;0.01;0.19;1;2.3715795641910518;39;9;20;2;das experiment war interessant
2019_02_22 11:21;9;1;0;control;29;138;1;8;20;43;51;0.38;0.5;0.02;0.10000000000000001;72;82;70;1;0.39000000000000001;0.050000000000000003;0.070000000000000007;0.48999999999999999;1;4.453162300451368;39;9;20;2;das experiment war interessant
2019_02_22 11:21;9;1;0;control;30;91;1;74;81;86;48;0.93000000000000005;0.02;0.01;0.039999999999999897;7;64;0;0;0.13;0.87;0.0;0.0;1;2.4316509405070974;39;9;20;2;das experiment war interessant
2019_02_22 11:21;9;1;0;control;31;25;1;50;53;0;0;0.82999999999999996;0.17000000000000001;0.0;0.0;83;16;97;4;0.45000000000000001;0.29999999999999999;0.11;0.14000000000000001;1;4.152771100258178;39;9;20;2;das experiment war interessant
2019_02_22 11:21;9;1;0;control;32;77;1;24;17;99;41;0.17999999999999999;0.13;0.10000000000000001;0.58999999999999997;12;97;0;0;0.59999999999999998;0.40000000000000002;0.0;0.0;1;4.923360427937951;39;9;20;2;das experiment war interessant
2019_02_22 11:21;9;1;0;control;33;66;1;89;23;27;15;0.070000000000000007;0.54000000000000004;0.17000000000000001;0.22;9;73;0;0;0.72999999999999998;0.27000000000000002;0.0;0.0;1;6.034230738514452;39;9;20;2;das experiment war interessant
2019_02_22 11:21;9;1;0;control;34;5;1;70;5;0;0;0.98999999999999999;0.01;0.0;0.0;92;87;47;1;0.44;0.02;0.16;0.38;0;2.1515612887251336;39;9;20;2;das experiment war interessant
2019_02_22 11:21;9;1;0;control;35;88;0;77;13;12;7;0.12;0.19;0.66000000000000003;0.029999999999999898;94;2;0;0;0.40999999999999998;0.58999999999999997;0.0;0.0;1;2.7920294845062017;39;9;20;2;das experiment war interessant
2019_02_22 11:21;9;1;0;control;36;112;0;70;44;98;64;0.02;0.75;0.12;0.11;33;2;63;85;0.23999999999999999;0.31;0.080000000000000002;0.37;0;2.6518914851658337;39;9;20;2;das experiment war interessant
2019_02_22 11:21;9;1;0;control;37;38;1;40;70;0;0;0.53000000000000003;0.46999999999999997;0.0;0.0;97;90;6;96;0.56999999999999995;0.070000000000000007;0.27000000000000002;0.089999999999999997;0;2.1113985607335053;39;9;20;2;das experiment war interessant
2019_02_22 11:21;9;1;0;control;38;2;0;59;32;0;0;0.080000000000000002;0.92000000000000004;0.0;0.0;33;38;85;1;0.28999999999999998;0.050000000000000003;0.070000000000000007;0.58999999999999997;1;1.971483151321081;39;9;20;2;das experiment war interessant
2019_02_22 11:21;9;1;0;control;39;20;0;44;40;0;0;0.91000000000000003;0.089999999999999997;0.0;0.0;29;5;80;99;0.25;0.40000000000000002;0.26000000000000001;0.089999999999999997;0;2.031625410019842;39;9;20;2;das experiment war interessant
2019_02_22 11:21;9;1;0;control;40;76;1;39;62;9;28;0.01;0.51000000000000001;0.26000000000000001;0.22;77;7;0;0;0.57999999999999996;0.41999999999999998;0.0;0.0;0;3.1922846610850684;39;9;20;2;das experiment war interessant
2019_02_22 11:21;9;1;0;control;41;93;1;87;81;73;98;0.80000000000000004;0.040000000000000001;0.14999999999999999;0.0099999999999999499;5;71;0;0;0.51000000000000001;0.48999999999999999;0.0;0.0;0;2.962120262065582;39;9;20;2;das experiment war interessant
2019_02_22 11:21;9;1;0;control;42;34;1;32;48;0;0;0.28000000000000003;0.71999999999999997;0.0;0.0;97;83;7;62;0.040000000000000001;0.54000000000000004;0.35999999999999999;0.059999999999999901;1;2.591887463151579;39;9;20;2;das experiment war interessant
2019_02_22 11:21;9;1;0;control;43;72;0;63;82;51;61;0.01;0.96999999999999997;0.01;0.01;92;12;0;0;0.89000000000000001;0.11;0.0;0.0;1;2.6718267544765695;39;9;20;2;das experiment war interessant
2019_02_22 11:21;9;1;0;control;44;99;1;8;24;15;73;0.56000000000000005;0.35999999999999999;0.070000000000000007;0.0099999999999999499;88;12;0;0;0.52000000000000002;0.47999999999999998;0.0;0.0;1;3.0220303087935463;39;9;20;2;das experiment war interessant
2019_02_22 11:21;9;1;0;control;45;49;0;21;30;0;0;0.53000000000000003;0.46999999999999997;0.0;0.0;93;99;89;25;0.44;0.02;0.11;0.42999999999999999;1;1.8212201969254238;39;9;20;2;das experiment war interessant
2019_02_22 11:21;9;1;0;control;46;123;0;26;24;51;92;0.72999999999999998;0.16;0.070000000000000007;0.040000000000000001;6;90;82;49;0.64000000000000001;0.25;0.050000000000000003;0.059999999999999998;0;2.8118688541217125;39;9;20;2;das experiment war interessant
2019_02_22 11:21;9;1;0;control;47;59;0;56;47;83;90;0.31;0.12;0.54000000000000004;0.029999999999999898;10;98;0;0;0.46999999999999997;0.53000000000000003;0.0;0.0;1;2.9119660046817444;39;9;20;2;das experiment war interessant
2019_02_22 11:21;9;1;0;control;48;75;1;67;80;36;81;0.81999999999999995;0.080000000000000002;0.059999999999999998;0.040000000000000001;3;97;0;0;0.32000000000000001;0.68000000000000005;0.0;0.0;1;1.4711022787887487;39;9;20;2;das experiment war interessant
2019_02_22 11:21;9;1;0;control;49;111;1;51;36;48;27;0.93000000000000005;0.01;0.01;0.049999999999999899;31;78;30;53;0.55000000000000004;0.16;0.029999999999999999;0.26000000000000001;1;2.651711552962297;39;9;20;2;das experiment war interessant
2019_02_22 11:21;9;1;0;control;50;27;1;44;26;0;0;0.35999999999999999;0.64000000000000001;0.0;0.0;63;10;3;5;0.58999999999999997;0.19;0.14999999999999999;0.070000000000000007;1;2.8320414671561593;39;9;20;2;das experiment war interessant
2019_02_22 11:21;9;1;0;control;51;55;0;74;55;47;48;0.60999999999999999;0.31;0.070000000000000007;0.01;97;6;0;0;0.42999999999999999;0.56999999999999995;0.0;0.0;1;2.1516963180620223;39;9;20;2;das experiment war interessant
2019_02_22 11:21;9;1;0;control;52;150;1;25;21;78;38;0.84999999999999998;0.059999999999999998;0.050000000000000003;0.040000000000000001;31;43;64;95;0.059999999999999998;0.45000000000000001;0.13;0.35999999999999999;1;2.4117435751213634;39;9;20;2;das experiment war interessant
2019_02_22 11:21;9;1;0;control;53;47;1;2;40;0;0;0.45000000000000001;0.55000000000000004;0.0;0.0;93;89;11;56;0.58999999999999997;0.070000000000000007;0.28000000000000003;0.059999999999999998;0;1.71113632799279;39;9;20;2;das experiment war interessant
2019_02_22 11:21;9;1;0;control;54;137;0;71;22;28;17;0.25;0.46000000000000002;0.050000000000000003;0.23999999999999999;3;98;92;69;0.42999999999999999;0.23999999999999999;0.20000000000000001;0.13;1;2.7820235220460745;39;9;20;2;das experiment war interessant
2019_02_22 11:21;9;1;0;control;55;64;1;48;39;34;19;0.46000000000000002;0.5;0.02;0.02;13;92;0;0;0.68999999999999995;0.31;0.0;0.0;0;2.1114187670245883;39;9;20;2;das experiment war interessant
2019_02_22 11:21;9;1;0;control;56;98;0;27;10;31;79;0.23000000000000001;0.67000000000000004;0.070000000000000007;0.029999999999999999;25;99;0;0;0.38;0.62;0.0;0.0;0;1.7913585073783906;39;9;20;2;das experiment war interessant
2019_02_22 11:21;9;1;0;control;57;62;0;12;45;16;50;0.20999999999999999;0.76000000000000001;0.02;0.01;92;15;0;0;0.20999999999999999;0.79000000000000004;0.0;0.0;0;2.071528663585923;39;9;20;2;das experiment war interessant
2019_02_22 11:21;9;1;0;control;58;1;0;22;51;0;0;0.26000000000000001;0.73999999999999999;0.0;0.0;14;11;92;31;0.29999999999999999;0.40999999999999998;0.14999999999999999;0.14000000000000001;1;2.2315082776840427;39;9;20;2;das experiment war interessant
2019_02_22 11:21;9;1;0;control;59;140;1;36;32;26;27;0.39000000000000001;0.14999999999999999;0.19;0.27000000000000002;44;3;99;25;0.29999999999999999;0.34000000000000002;0.34000000000000002;0.0199999999999999;1;3.692630894262038;39;9;20;2;das experiment war interessant
2019_02_22 11:21;9;1;0;control;60;108;1;48;72;39;70;0.14000000000000001;0.66000000000000003;0.02;0.17999999999999999;81;44;98;8;0.59999999999999998;0.029999999999999999;0.050000000000000003;0.32000000000000001;1;2.2514711301828356;39;9;20;2;das experiment war interessant
2019_02_22 11:21;9;1;0;control;61;7;1;49;29;0;0;0.95999999999999996;0.040000000000000001;0.0;0.0;23;99;64;25;0.68999999999999995;0.12;0.059999999999999998;0.13;0;2.151428504534124;39;9;20;2;das experiment war interessant
2019_02_22 11:21;9;1;0;control;62;15;0;77;81;0;0;0.28000000000000003;0.71999999999999997;0.0;0.0;98;14;87;18;0.55000000000000004;0.23000000000000001;0.16;0.059999999999999901;0;2.391520606726772;39;9;20;2;das experiment war interessant
2019_02_22 11:21;9;1;0;control;63;125;1;37;41;10;35;0.91000000000000003;0.040000000000000001;0.029999999999999999;0.02;7;13;91;93;0.26000000000000001;0.39000000000000001;0.16;0.19;1;2.131547439397764;39;9;20;2;das experiment war interessant
2019_02_22 11:21;9;1;0;control;64;100;1;27;14;59;52;0.02;0.95999999999999996;0.01;0.01;17;98;0;0;0.48999999999999999;0.51000000000000001;0.0;0.0;1;2.191427337058485;39;9;20;2;das experiment war interessant
2019_02_22 11:21;9;1;0;control;65;17;0;81;52;0;0;0.059999999999999998;0.93999999999999995;0.0;0.0;34;3;69;41;0.01;0.22;0.75;0.02;1;1.911215164596797;39;9;20;2;das experiment war interessant
2019_02_22 11:21;9;1;0;control;66;102;0;40;56;53;17;0.28000000000000003;0.26000000000000001;0.14999999999999999;0.31;1;76;29;62;0.68000000000000005;0.23000000000000001;0.050000000000000003;0.039999999999999897;0;2.2915212802708993;39;9;20;2;das experiment war interessant
2019_02_22 11:21;9;1;0;control;67;127;0;89;26;62;79;0.02;0.28999999999999998;0.53000000000000003;0.16;96;6;60;13;0.53000000000000003;0.25;0.17000000000000001;0.050000000000000003;0;2.0915402677674138;39;9;20;2;das experiment war interessant
2019_02_22 11:21;9;1;0;control;68;143;0;88;44;56;73;0.95999999999999996;0.02;0.01;0.01;20;3;87;32;0.19;0.40000000000000002;0.28000000000000003;0.13;0;2.5717379430188885;39;9;20;2;das experiment war interessant
2019_02_22 11:21;9;1;0;control;69;139;1;44;31;16;8;0.79000000000000004;0.070000000000000007;0.13;0.0099999999999999499;92;58;2;88;0.55000000000000004;0.070000000000000007;0.34000000000000002;0.039999999999999897;1;2.0413577857252676;39;9;20;2;das experiment war interessant
2019_02_22 11:21;9;1;0;control;70;82;0;78;66;30;27;0.28999999999999998;0.58999999999999997;0.080000000000000002;0.040000000000000001;90;6;0;0;0.82999999999999996;0.17000000000000001;0.0;0.0;1;2.83189585357286;39;9;20;2;das experiment war interessant
2019_02_22 11:21;9;1;0;control;71;96;0;51;54;39;7;0.17000000000000001;0.26000000000000001;0.10000000000000001;0.46999999999999997;24;96;0;0;0.28000000000000003;0.71999999999999997;0.0;0.0;1;3.592529253417524;39;9;20;2;das experiment war interessant
2019_02_22 11:21;9;1;0;control;72;149;0;14;89;73;53;0.93999999999999995;0.01;0.01;0.040000000000000001;97;45;6;13;0.34000000000000002;0.01;0.40999999999999998;0.23999999999999999;1;2.8819160438270046;39;9;20;2;das experiment war interessant
2019_02_22 11:21;9;1;0;control;73;107;0;52;48;13;63;0.68000000000000005;0.19;0.050000000000000003;0.079999999999999905;54;91;33;3;0.19;0.17999999999999999;0.33000000000000002;0.29999999999999999;1;2.6119093308479933;39;9;20;2;das experiment war interessant
2019_02_22 11:21;9;1;0;control;74;12;1;53;68;0;0;0.31;0.68999999999999995;0.0;0.0;69;54;97;29;0.25;0.20999999999999999;0.20000000000000001;0.34000000000000002;0;2.9519805532090686;39;9;20;2;das experiment war interessant
2019_02_22 11:21;9;1;0;control;75;45;0;97;87;0;0;0.71999999999999997;0.28000000000000003;0.0;0.0;96;11;14;4;0.25;0.029999999999999999;0.14000000000000001;0.57999999999999996;0;1.9914004594847938;39;9;20;2;das experiment war interessant
2019_02_22 11:21;9;2;0;timed;1;37;0;14;98;0;0;0.93000000000000005;0.070000000000000007;0.0;0.0;41;2;87;66;0.17999999999999999;0.48999999999999999;0.32000000000000001;0.010000000000000101;NA;1.913833322481878;39;9;20;2;das experiment war interessant
2019_02_22 11:21;9;2;0;timed;2;93;0;87;81;73;98;0.80000000000000004;0.040000000000000001;0.14999999999999999;0.0099999999999999499;5;71;0;0;0.51000000000000001;0.48999999999999999;0.0;0.0;0;1.561044645959555;39;9;20;2;das experiment war interessant
2019_02_22 11:21;9;2;0;timed;3;140;1;36;32;26;27;0.39000000000000001;0.14999999999999999;0.19;0.27000000000000002;44;3;99;25;0.29999999999999999;0.34000000000000002;0.34000000000000002;0.0199999999999999;1;1.2507491562264477;39;9;20;2;das experiment war interessant
2019_02_22 11:21;9;2;0;timed;4;58;1;37;58;76;34;0.20999999999999999;0.57999999999999996;0.19;0.020000000000000101;86;5;0;0;0.47999999999999998;0.52000000000000002;0.0;0.0;0;0.9107549102081975;39;9;20;2;das experiment war interessant
2019_02_22 11:21;9;2;0;timed;5;133;1;59;88;60;36;0.67000000000000004;0.070000000000000007;0.12;0.14000000000000001;7;91;66;61;0.25;0.68999999999999995;0.01;0.0500000000000001;1;1.0107927248373016;39;9;20;2;das experiment war interessant
2019_02_22 11:21;9;2;0;timed;6;5;0;70;5;0;0;0.98999999999999999;0.01;0.0;0.0;92;87;47;1;0.44;0.02;0.16;0.38;0;1.0306895059748058;39;9;20;2;das experiment war interessant
2019_02_22 11:21;9;2;0;timed;7;89;1;26;41;13;56;0.059999999999999998;0.40999999999999998;0.050000000000000003;0.47999999999999998;5;97;0;0;0.37;0.63;0.0;0.0;1;1.2007559076937468;39;9;20;2;das experiment war interessant
2019_02_22 11:21;9;2;0;timed;8;56;1;28;84;37;41;0.68000000000000005;0.28000000000000003;0.02;0.0199999999999999;6;95;0;0;0.72999999999999998;0.27000000000000002;0.0;0.0;0;0.9506228829486645;39;9;20;2;das experiment war interessant
2019_02_22 11:21;9;2;0;timed;9;65;0;75;64;59;52;0.59999999999999998;0.22;0.14000000000000001;0.040000000000000001;1;99;0;0;0.35999999999999999;0.64000000000000001;0.0;0.0;0;0.8403305364190601;39;9;20;2;das experiment war interessant
2019_02_22 11:21;9;2;0;timed;10;107;0;52;48;13;63;0.68000000000000005;0.19;0.050000000000000003;0.079999999999999905;54;91;33;3;0.19;0.17999999999999999;0.33000000000000002;0.29999999999999999;1;0.8507229842689412;39;9;20;2;das experiment war interessant
2019_02_22 11:21;9;2;0;timed;11;45;1;97;87;0;0;0.71999999999999997;0.28000000000000003;0.0;0.0;96;11;14;4;0.25;0.029999999999999999;0.14000000000000001;0.57999999999999996;0;0.9912186028723227;39;9;20;2;das experiment war interessant
2019_02_22 11:21;9;2;0;timed;12;97;1;17;33;32;74;0.94999999999999996;0.01;0.029999999999999999;0.01;76;23;0;0;0.33000000000000002;0.67000000000000004;0.0;0.0;1;1.2810015007180482;39;9;20;2;das experiment war interessant
2019_02_22 11:21;9;2;0;timed;13;30;0;33;30;0;0;0.71999999999999997;0.28000000000000003;0.0;0.0;9;88;1;14;0.55000000000000004;0.39000000000000001;0.01;0.049999999999999899;0;1.3109459398347099;39;9;20;2;das experiment war interessant
2019_02_22 11:21;9;2;0;timed;14;2;0;59;32;0;0;0.080000000000000002;0.92000000000000004;0.0;0.0;33;38;85;1;0.28999999999999998;0.050000000000000003;0.070000000000000007;0.58999999999999997;1;0.9105939013570605;39;9;20;2;das experiment war interessant
2019_02_22 11:21;9;2;0;timed;15;90;0;27;44;50;72;0.68000000000000005;0.28999999999999998;0.02;0.0099999999999999707;6;96;0;0;0.46999999999999997;0.53000000000000003;0.0;0.0;0;0.9604145945868368;39;9;20;2;das experiment war interessant
2019_02_22 11:21;9;2;0;timed;16;10;0;45;62;0;0;0.059999999999999998;0.93999999999999995;0.0;0.0;17;99;28;67;0.58999999999999997;0.34000000000000002;0.01;0.059999999999999998;0;1.0708137457932025;39;9;20;2;das experiment war interessant
2019_02_22 11:21;9;2;0;timed;17;88;0;77;13;12;7;0.12;0.19;0.66000000000000003;0.029999999999999898;94;2;0;0;0.40999999999999998;0.58999999999999997;0.0;0.0;1;1.1909192931889265;39;9;20;2;das experiment war interessant
2019_02_22 11:21;9;2;0;timed;18;112;0;70;44;98;64;0.02;0.75;0.12;0.11;33;2;63;85;0.23999999999999999;0.31;0.080000000000000002;0.37;0;1.010736275518866;39;9;20;2;das experiment war interessant
2019_02_22 11:21;9;2;0;timed;19;101;1;30;96;61;45;0.65000000000000002;0.14000000000000001;0.11;0.10000000000000001;3;98;63;89;0.75;0.19;0.040000000000000001;0.02;1;1.250835754612126;39;9;20;2;das experiment war interessant
2019_02_22 11:21;9;2;0;timed;20;18;0;68;50;0;0;0.029999999999999999;0.96999999999999997;0.0;0.0;34;64;15;89;0.65000000000000002;0.029999999999999999;0.050000000000000003;0.27000000000000002;1;1.0707030923003913;39;9;20;2;das experiment war interessant
2019_02_22 11:21;9;2;0;timed;21;136;1;29;67;14;75;0.46000000000000002;0.29999999999999999;0.20999999999999999;0.0300000000000001;70;86;1;85;0.31;0.39000000000000001;0.27000000000000002;0.029999999999999898;1;1.1307366219116375;39;9;20;2;das experiment war interessant
2019_02_22 11:21;9;2;0;timed;22;14;0;36;40;0;0;0.54000000000000004;0.46000000000000002;0.0;0.0;99;70;1;11;0.16;0.089999999999999997;0.080000000000000002;0.67000000000000004;1;1.070737090185503;39;9;20;2;das experiment war interessant
2019_02_22 11:21;9;2;0;timed;23;144;1;99;93;90;71;0.65000000000000002;0.32000000000000001;0.01;0.02;97;14;48;73;0.23000000000000001;0.46000000000000002;0.13;0.17999999999999999;1;1.1408048069170036;39;9;20;2;das experiment war interessant
2019_02_22 11:21;9;2;0;timed;24;52;0;71;51;10;54;0.22;0.12;0.19;0.46999999999999997;91;1;0;0;0.29999999999999999;0.69999999999999996;0.0;0.0;1;1.1508790858806606;39;9;20;2;das experiment war interessant
2019_02_22 11:21;9;2;0;timed;25;26;0;76;41;0;0;0.57999999999999996;0.41999999999999998;0.0;0.0;61;79;84;2;0.13;0.029999999999999999;0.67000000000000004;0.17000000000000001;0;1.0604520884808153;39;9;20;2;das experiment war interessant
2019_02_22 11:21;9;2;0;timed;26;69;1;54;34;64;49;0.34000000000000002;0.25;0.20999999999999999;0.20000000000000001;14;98;0;0;0.62;0.38;0.0;0.0;1;1.1106672854712087;39;9;20;2;das experiment war interessant
2019_02_22 11:21;9;2;0;timed;27;131;0;83;41;81;88;0.23999999999999999;0.58999999999999997;0.10000000000000001;0.070000000000000007;82;97;4;17;0.26000000000000001;0.46999999999999997;0.11;0.16;0;1.3710250137828552;39;9;20;2;das experiment war interessant
2019_02_22 11:21;9;2;0;timed;28;72;1;63;82;51;61;0.01;0.96999999999999997;0.01;0.01;92;12;0;0;0.89000000000000001;0.11;0.0;0.0;0;1.3706722055430873;39;9;20;2;das experiment war interessant
2019_02_22 11:21;9;2;0;timed;29;75;1;67;80;36;81;0.81999999999999995;0.080000000000000002;0.059999999999999998;0.040000000000000001;3;97;0;0;0.32000000000000001;0.68000000000000005;0.0;0.0;1;1.1206976237717754;39;9;20;2;das experiment war interessant
2019_02_22 11:21;9;2;0;timed;30;68;0;84;27;55;62;0.01;0.050000000000000003;0.40999999999999998;0.53000000000000003;9;82;0;0;0.37;0.63;0.0;0.0;1;1.2704903810026735;39;9;20;2;das experiment war interessant
2019_02_22 11:21;9;2;0;timed;31;111;0;51;36;48;27;0.93000000000000005;0.01;0.01;0.049999999999999899;31;78;30;53;0.55000000000000004;0.16;0.029999999999999999;0.26000000000000001;0;1.2508161897931132;39;9;20;2;das experiment war interessant
2019_02_22 11:21;9;2;0;timed;32;92;0;90;86;65;94;0.16;0.34000000000000002;0.28000000000000003;0.22;79;22;0;0;0.35999999999999999;0.64000000000000001;0.0;0.0;1;1.3108121934383234;39;9;20;2;das experiment war interessant
2019_02_22 11:21;9;2;0;timed;33;82;1;78;66;30;27;0.28999999999999998;0.58999999999999997;0.080000000000000002;0.040000000000000001;90;6;0;0;0.82999999999999996;0.17000000000000001;0.0;0.0;1;1.4710769407411135;39;9;20;2;das experiment war interessant
2019_02_22 11:21;9;2;0;timed;34;64;0;48;39;34;19;0.46000000000000002;0.5;0.02;0.02;13;92;0;0;0.68999999999999995;0.31;0.0;0.0;0;1.3610177683858637;39;9;20;2;das experiment war interessant
2019_02_22 11:21;9;2;0;timed;35;124;1;37;65;15;41;0.17999999999999999;0.45000000000000001;0.02;0.34999999999999998;40;7;98;30;0.070000000000000007;0.45000000000000001;0.45000000000000001;0.029999999999999898;1;1.8011880657159054;39;9;20;2;das experiment war interessant
2019_02_22 11:21;9;2;0;timed;36;86;1;56;30;57;88;0.20000000000000001;0.35999999999999999;0.080000000000000002;0.35999999999999999;98;2;0;0;0.77000000000000002;0.23000000000000001;0.0;0.0;1;1.1506965877979383;39;9;20;2;das experiment war interessant
2019_02_22 11:21;9;2;0;timed;37;95;0;93;88;68;85;0.83999999999999997;0.14000000000000001;0.01;0.01;2;82;0;0;0.41999999999999998;0.57999999999999996;0.0;0.0;0;1.311132286733482;39;9;20;2;das experiment war interessant
2019_02_22 11:21;9;2;0;timed;38;60;1;64;59;57;96;0.83999999999999997;0.13;0.02;0.01;83;6;0;0;0.54000000000000004;0.46000000000000002;0.0;0.0;1;1.591168696542809;39;9;20;2;das experiment war interessant
2019_02_22 11:21;9;2;0;timed;39;105;1;49;74;63;58;0.84999999999999998;0.080000000000000002;0.02;0.050000000000000003;97;5;86;8;0.25;0.52000000000000002;0.070000000000000007;0.16;0;1.5009822502179304;39;9;20;2;das experiment war interessant
2019_02_22 11:21;9;2;0;timed;40;128;0;70;49;27;54;0.27000000000000002;0.53000000000000003;0.02;0.17999999999999999;72;97;6;20;0.29999999999999999;0.39000000000000001;0.22;0.0899999999999999;0;1.2509800852585613;39;9;20;2;das experiment war interessant
2019_02_22 11:21;9;2;0;timed;41;35;0;33;37;0;0;0.88;0.12;0.0;0.0;63;4;79;98;0.16;0.46000000000000002;0.17000000000000001;0.20999999999999999;1;1.150836107422947;39;9;20;2;das experiment war interessant
2019_02_22 11:21;9;2;0;timed;42;109;1;75;28;16;56;0.19;0.070000000000000007;0.059999999999999998;0.68000000000000005;3;50;98;44;0.5;0.02;0.34999999999999998;0.13;1;1.1607901108491205;39;9;20;2;das experiment war interessant
2019_02_22 11:21;9;2;0;timed;43;27;0;44;26;0;0;0.35999999999999999;0.64000000000000001;0.0;0.0;63;10;3;5;0.58999999999999997;0.19;0.14999999999999999;0.070000000000000007;0;1.170405739099806;39;9;20;2;das experiment war interessant
2019_02_22 11:21;9;2;0;timed;44;121;0;42;51;47;70;0.41999999999999998;0.17000000000000001;0.23999999999999999;0.17000000000000001;21;76;48;9;0.14999999999999999;0.34000000000000002;0.40999999999999998;0.10000000000000001;0;1.3809113421757502;39;9;20;2;das experiment war interessant
2019_02_22 11:21;9;2;0;timed;45;84;0;43;10;5;45;0.78000000000000003;0.13;0.059999999999999998;0.029999999999999999;87;1;0;0;0.57999999999999996;0.41999999999999998;0.0;0.0;0;1.2311240374347108;39;9;20;2;das experiment war interessant
2019_02_22 11:21;9;2;0;timed;46;114;1;57;39;79;97;0.77000000000000002;0.02;0.13;0.080000000000000002;92;36;6;1;0.54000000000000004;0.12;0.13;0.20999999999999999;1;1.4510749586006568;39;9;20;2;das experiment war interessant
2019_02_22 11:21;9;2;0;timed;47;77;0;24;17;99;41;0.17999999999999999;0.13;0.10000000000000001;0.58999999999999997;12;97;0;0;0.59999999999999998;0.40000000000000002;0.0;0.0;1;1.5511785238577431;39;9;20;2;das experiment war interessant
2019_02_22 11:21;9;2;0;timed;48;103;1;38;49;89;50;0.89000000000000001;0.070000000000000007;0.01;0.029999999999999999;6;64;99;27;0.70999999999999996;0.17999999999999999;0.059999999999999998;0.050000000000000003;1;1.2908685850252368;39;9;20;2;das experiment war interessant
2019_02_22 11:21;9;2;0;timed;49;61;1;43;18;39;70;0.75;0.089999999999999997;0.089999999999999997;0.070000000000000007;16;66;0;0;0.64000000000000001;0.35999999999999999;0.0;0.0;0;1.6711394198737253;39;9;20;2;das experiment war interessant
2019_02_22 11:21;9;2;0;timed;50;81;1;67;38;52;65;0.27000000000000002;0.35999999999999999;0.01;0.35999999999999999;2;77;0;0;0.14000000000000001;0.85999999999999999;0.0;0.0;1;1.1108674239640095;39;9;20;2;das experiment war interessant
2019_02_22 11:21;9;2;0;timed;51;55;1;74;55;47;48;0.60999999999999999;0.31;0.070000000000000007;0.01;97;6;0;0;0.42999999999999999;0.56999999999999995;0.0;0.0;0;1.5510175150047871;39;9;20;2;das experiment war interessant
2019_02_22 11:21;9;2;0;timed;52;21;0;64;28;0;0;0.080000000000000002;0.92000000000000004;0.0;0.0;50;1;88;13;0.57999999999999996;0.13;0.02;0.27000000000000002;1;1.4710070205619559;39;9;20;2;das experiment war interessant
2019_02_22 11:21;9;2;0;timed;53;49;1;21;30;0;0;0.53000000000000003;0.46999999999999997;0.0;0.0;93;99;89;25;0.44;0.02;0.11;0.42999999999999999;1;1.6311813206648367;39;9;20;2;das experiment war interessant
2019_02_22 11:21;9;2;0;timed;54;96;0;51;54;39;7;0.17000000000000001;0.26000000000000001;0.10000000000000001;0.46999999999999997;24;96;0;0;0.28000000000000003;0.71999999999999997;0.0;0.0;0;1.5610475325702282;39;9;20;2;das experiment war interessant
2019_02_22 11:21;9;2;0;timed;55;127;1;89;26;62;79;0.02;0.28999999999999998;0.53000000000000003;0.16;96;6;60;13;0.53000000000000003;0.25;0.17000000000000001;0.050000000000000003;1;1.490995211108384;39;9;20;2;das experiment war interessant
2019_02_22 11:21;9;2;0;timed;56;79;0;52;46;29;22;0.17999999999999999;0.51000000000000001;0.23999999999999999;0.070000000000000104;93;14;0;0;0.45000000000000001;0.55000000000000004;0.0;0.0;1;1.3808981920501537;39;9;20;2;das experiment war interessant
2019_02_22 11:21;9;2;0;timed;57;138;1;8;20;43;51;0.38;0.5;0.02;0.10000000000000001;72;82;70;1;0.39000000000000001;0.050000000000000003;0.070000000000000007;0.48999999999999999;1;1.3308837750209932;39;9;20;2;das experiment war interessant
2019_02_22 11:21;9;2;0;timed;58;129;0;12;29;81;36;0.17999999999999999;0.79000000000000004;0.01;0.02;5;19;95;92;0.47999999999999998;0.26000000000000001;0.13;0.13;1;1.370914360290044;39;9;20;2;das experiment war interessant
2019_02_22 11:21;9;2;0;timed;59;70;1;66;55;69;50;0.22;0.29999999999999999;0.29999999999999999;0.17999999999999999;2;90;0;0;0.34000000000000002;0.66000000000000003;0.0;0.0;0;1.3308715871025925;39;9;20;2;das experiment war interessant
2019_02_22 11:21;9;2;0;timed;60;59;1;56;47;83;90;0.31;0.12;0.54000000000000004;0.029999999999999898;10;98;0;0;0.46999999999999997;0.53000000000000003;0.0;0.0;0;1.2309049755913293;39;9;20;2;das experiment war interessant
2019_02_22 11:21;9;2;0;timed;61;8;0;50;36;0;0;0.080000000000000002;0.92000000000000004;0.0;0.0;6;19;84;29;0.54000000000000004;0.070000000000000007;0.17000000000000001;0.22;1;1.1907993383883877;39;9;20;2;das experiment war interessant
2019_02_22 11:21;9;2;0;timed;62;102;0;40;56;53;17;0.28000000000000003;0.26000000000000001;0.14999999999999999;0.31;1;76;29;62;0.68000000000000005;0.23000000000000001;0.050000000000000003;0.039999999999999897;0;1.3710336736221507;39;9;20;2;das experiment war interessant
2019_02_22 11:21;9;2;0;timed;63;40;0;45;49;0;0;0.68999999999999995;0.31;0.0;0.0;2;92;65;73;0.23999999999999999;0.59999999999999998;0.11;0.050000000000000003;1;1.4709483261012792;39;9;20;2;das experiment war interessant
2019_02_22 11:21;9;2;0;timed;64;132;0;27;70;21;19;0.64000000000000001;0.23000000000000001;0.029999999999999999;0.10000000000000001;11;85;55;6;0.39000000000000001;0.46999999999999997;0.029999999999999999;0.11;0;1.4709704568012967;39;9;20;2;das experiment war interessant
2019_02_22 11:21;9;2;0;timed;65;3;0;53;40;0;0;0.31;0.68999999999999995;0.0;0.0;96;24;7;88;0.11;0.27000000000000002;0.58999999999999997;0.029999999999999999;0;1.6011871676582814;39;9;20;2;das experiment war interessant
2019_02_22 11:21;9;2;0;timed;66;67;0;44;42;8;89;0.88;0.070000000000000007;0.029999999999999999;0.02;10;63;0;0;0.39000000000000001;0.60999999999999999;0.0;0.0;0;1.3509062841894774;39;9;20;2;das experiment war interessant
2019_02_22 11:21;9;2;0;timed;67;43;0;60;83;0;0;0.23000000000000001;0.77000000000000002;0.0;0.0;72;5;70;12;0.29999999999999999;0.40999999999999998;0.12;0.17000000000000001;0;1.3910330898852408;39;9;20;2;das experiment war interessant
2019_02_22 11:21;9;2;0;timed;68;42;0;70;48;0;0;0.79000000000000004;0.20999999999999999;0.0;0.0;51;8;12;67;0.19;0.26000000000000001;0.28999999999999998;0.26000000000000001;1;1.6712378854481358;39;9;20;2;das experiment war interessant
2019_02_22 11:21;9;2;0;timed;69;20;0;44;40;0;0;0.91000000000000003;0.089999999999999997;0.0;0.0;29;5;80;99;0.25;0.40000000000000002;0.26000000000000001;0.089999999999999997;1;1.3510121266608621;39;9;20;2;das experiment war interessant
2019_02_22 11:21;9;2;0;timed;70;87;0;10;30;63;4;0.56999999999999995;0.12;0.16;0.14999999999999999;86;2;0;0;0.42999999999999999;0.56999999999999995;0.0;0.0;1;1.7612928305188689;39;9;20;2;das experiment war interessant
2019_02_22 11:21;9;2;0;timed;71;36;1;70;17;0;0;0.33000000000000002;0.67000000000000004;0.0;0.0;84;1;12;88;0.22;0.27000000000000002;0.14000000000000001;0.37;1;1.8311732381480397;39;9;20;2;das experiment war interessant
2019_02_22 11:21;9;2;0;timed;72;51;0;52;23;43;16;0.60999999999999999;0.20999999999999999;0.01;0.17000000000000001;92;7;0;0;0.14999999999999999;0.84999999999999998;0.0;0.0;0;1.5109898163500475;39;9;20;2;das experiment war interessant
2019_02_22 11:21;9;2;0;timed;73;29;0;44;51;0;0;0.78000000000000003;0.22;0.0;0.0;74;1;68;82;0.69999999999999996;0.28000000000000003;0.01;0.01;0;1.751295527899856;39;9;20;2;das experiment war interessant
2019_02_22 11:21;9;2;0;timed;74;145;1;91;89;90;74;0.57999999999999996;0.29999999999999999;0.11;0.010000000000000101;2;75;84;39;0.32000000000000001;0.27000000000000002;0.39000000000000001;0.0199999999999999;0;1.340872097069223;39;9;20;2;das experiment war interessant
2019_02_22 11:21;9;2;0;timed;75;74;1;66;47;52;44;0.41999999999999998;0.26000000000000001;0.17999999999999999;0.14000000000000001;17;99;0;0;0.47999999999999998;0.52000000000000002;0.0;0.0;0;1.3110328589555138;39;9;20;2;das experiment war interessant
2019_02_22 11:21;9;3;0;control;1;132;0;27;70;21;19;0.64000000000000001;0.23000000000000001;0.029999999999999999;0.10000000000000001;11;85;55;6;0.39000000000000001;0.46999999999999997;0.029999999999999999;0.11;0;3.0485339053539064;39;9;20;2;das experiment war interessant
2019_02_22 11:21;9;3;0;control;2;41;1;99;40;0;0;0.89000000000000001;0.11;0.0;0.0;1;67;52;46;0.51000000000000001;0.38;0.029999999999999999;0.080000000000000002;0;1.8311911992950627;39;9;20;2;das experiment war interessant
2019_02_22 11:21;9;3;0;control;3;50;1;15;20;0;0;0.82999999999999996;0.17000000000000001;0.0;0.0;97;18;88;87;0.56999999999999995;0.39000000000000001;0.01;0.029999999999999999;1;1.8714652222479344;39;9;20;2;das experiment war interessant
2019_02_22 11:21;9;3;0;control;4;70;1;66;55;69;50;0.22;0.29999999999999999;0.29999999999999999;0.17999999999999999;2;90;0;0;0.34000000000000002;0.66000000000000003;0.0;0.0;1;1.6810927818314667;39;9;20;2;das experiment war interessant
2019_02_22 11:21;9;3;0;control;5;44;1;79;74;0;0;0.71999999999999997;0.28000000000000003;0.0;0.0;3;67;15;36;0.41999999999999998;0.53000000000000003;0.02;0.029999999999999999;0;1.591222579983878;39;9;20;2;das experiment war interessant
2019_02_22 11:21;9;3;0;control;6;69;0;54;34;64;49;0.34000000000000002;0.25;0.20999999999999999;0.20000000000000001;14;98;0;0;0.62;0.38;0.0;0.0;1;1.951541467316929;39;9;20;2;das experiment war interessant
2019_02_22 11:21;9;3;0;control;7;68;0;84;27;55;62;0.01;0.050000000000000003;0.40999999999999998;0.53000000000000003;9;82;0;0;0.37;0.63;0.0;0.0;1;1.7509164194070763;39;9;20;2;das experiment war interessant
2019_02_22 11:21;9;3;0;control;8;24;1;35;27;0;0;0.070000000000000007;0.93000000000000005;0.0;0.0;62;3;81;95;0.35999999999999999;0.55000000000000004;0.01;0.080000000000000002;1;1.9512999540384044;39;9;20;2;das experiment war interessant
2019_02_22 11:21;9;3;0;control;9;142;1;98;65;64;84;0.88;0.070000000000000007;0.01;0.040000000000000001;5;68;60;16;0.46000000000000002;0.080000000000000002;0.27000000000000002;0.19;0;2.811866288242527;39;9;20;2;das experiment war interessant
2019_02_22 11:21;9;3;0;control;10;19;0;22;53;0;0;0.13;0.87;0.0;0.0;4;93;96;65;0.46999999999999997;0.059999999999999998;0.26000000000000001;0.20999999999999999;1;1.9914264390008611;39;9;20;2;das experiment war interessant
2019_02_22 11:21;9;3;0;control;11;86;1;56;30;57;88;0.20000000000000001;0.35999999999999999;0.080000000000000002;0.35999999999999999;98;2;0;0;0.77000000000000002;0.23000000000000001;0.0;0.0;1;1.351081084636462;39;9;20;2;das experiment war interessant
2019_02_22 11:21;9;3;0;control;12;115;0;50;28;61;79;0.83999999999999997;0.040000000000000001;0.059999999999999998;0.059999999999999998;1;26;97;55;0.45000000000000001;0.080000000000000002;0.40999999999999998;0.060000000000000102;0;1.8113380380855233;39;9;20;2;das experiment war interessant
2019_02_22 11:21;9;3;0;control;13;106;1;85;69;22;61;0.10000000000000001;0.58999999999999997;0.17999999999999999;0.13;20;79;91;84;0.55000000000000004;0.14999999999999999;0.26000000000000001;0.039999999999999897;0;2.081523400327569;39;9;20;2;das experiment war interessant
2019_02_22 11:21;9;3;0;control;14;79;1;52;46;29;22;0.17999999999999999;0.51000000000000001;0.23999999999999999;0.070000000000000104;93;14;0;0;0.45000000000000001;0.55000000000000004;0.0;0.0;1;1.5510277785178914;39;9;20;2;das experiment war interessant
2019_02_22 11:21;9;3;0;control;15;119;1;60;58;11;18;0.25;0.72999999999999998;0.01;0.01;96;23;42;85;0.44;0.48999999999999999;0.059999999999999998;0.010000000000000101;0;1.8912709147134592;39;9;20;2;das experiment war interessant
2019_02_22 11:21;9;3;0;control;16;130;0;37;79;23;95;0.94999999999999996;0.029999999999999999;0.01;0.01;94;4;58;49;0.46000000000000002;0.5;0.029999999999999999;0.01;1;2.4418028372838307;39;9;20;2;das experiment war interessant
2019_02_22 11:21;9;3;0;control;17;103;0;38;49;89;50;0.89000000000000001;0.070000000000000007;0.01;0.029999999999999999;6;64;99;27;0.70999999999999996;0.17999999999999999;0.059999999999999998;0.050000000000000003;1;2.0413555405812076;39;9;20;2;das experiment war interessant
2019_02_22 11:21;9;3;0;control;18;21;1;64;28;0;0;0.080000000000000002;0.92000000000000004;0.0;0.0;50;1;88;13;0.57999999999999996;0.13;0.02;0.27000000000000002;1;2.191608552198886;39;9;20;2;das experiment war interessant
2019_02_22 11:21;9;3;0;control;19;131;1;83;41;81;88;0.23999999999999999;0.58999999999999997;0.10000000000000001;0.070000000000000007;82;97;4;17;0.26000000000000001;0.46999999999999997;0.11;0.16;1;2.1315426283763372;39;9;20;2;das experiment war interessant
2019_02_22 11:21;9;3;0;control;20;43;1;60;83;0;0;0.23000000000000001;0.77000000000000002;0.0;0.0;72;5;70;12;0.29999999999999999;0.40999999999999998;0.12;0.17000000000000001;0;2.071374390163328;39;9;20;2;das experiment war interessant
2019_02_22 11:21;9;3;0;control;21;147;1;39;43;76;28;0.14000000000000001;0.10000000000000001;0.10000000000000001;0.66000000000000003;6;31;68;85;0.27000000000000002;0.20000000000000001;0.22;0.31;0;1.8513314181200258;39;9;20;2;das experiment war interessant
2019_02_22 11:21;9;3;0;control;22;92;1;90;86;65;94;0.16;0.34000000000000002;0.28000000000000003;0.22;79;22;0;0;0.35999999999999999;0.64000000000000001;0.0;0.0;0;1.8812441044938168;39;9;20;2;das experiment war interessant
2019_02_22 11:21;9;3;0;control;23;118;1;62;52;65;68;0.40999999999999998;0.44;0.10000000000000001;0.0500000000000001;79;20;14;37;0.56999999999999995;0.23999999999999999;0.14000000000000001;0.050000000000000003;1;2.051385237413342;39;9;20;2;das experiment war interessant
2019_02_22 11:21;9;3;0;control;24;11;1;17;36;0;0;0.14000000000000001;0.85999999999999999;0.0;0.0;19;41;34;95;0.88;0.02;0.050000000000000003;0.050000000000000003;1;3.252192783404098;39;9;20;2;das experiment war interessant
2019_02_22 11:21;9;3;0;control;25;134;0;57;48;50;55;0.02;0.62;0.17999999999999999;0.17999999999999999;80;96;15;18;0.23999999999999999;0.35999999999999999;0.33000000000000002;0.070000000000000007;1;3.212154821238073;39;9;20;2;das experiment war interessant
2019_02_22 11:21;9;3;0;control;26;85;1;31;22;82;50;0.11;0.69999999999999996;0.01;0.17999999999999999;3;99;0;0;0.62;0.38;0.0;0.0;1;3.072061724764353;39;9;20;2;das experiment war interessant
2019_02_22 11:21;9;3;0;control;27;8;1;50;36;0;0;0.080000000000000002;0.92000000000000004;0.0;0.0;6;19;84;29;0.54000000000000004;0.070000000000000007;0.17000000000000001;0.22;1;3.80257299843106;39;9;20;2;das experiment war interessant
2019_02_22 11:21;9;3;0;control;28;9;0;61;69;0;0;0.93999999999999995;0.060000000000000102;0.0;0.0;18;93;72;16;0.40999999999999998;0.34999999999999998;0.089999999999999997;0.14999999999999999;0;2.671784417485469;39;9;20;2;das experiment war interessant
2019_02_22 11:21;9;3;0;control;29;90;0;27;44;50;72;0.68000000000000005;0.28999999999999998;0.02;0.0099999999999999707;6;96;0;0;0.46999999999999997;0.53000000000000003;0.0;0.0;1;2.0214998134924826;39;9;20;2;das experiment war interessant
2019_02_22 11:21;9;3;0;control;30;126;0;16;55;51;42;0.68999999999999995;0.23999999999999999;0.01;0.060000000000000102;66;4;1;5;0.46999999999999997;0.38;0.089999999999999997;0.059999999999999998;1;2.041343352659169;39;9;20;2;das experiment war interessant
2019_02_22 11:21;9;3;0;control;31;31;1;10;59;0;0;0.23999999999999999;0.76000000000000001;0.0;0.0;1;79;53;73;0.23000000000000001;0.58999999999999997;0.050000000000000003;0.13;0;2.991964311200718;39;9;20;2;das experiment war interessant
2019_02_22 11:21;9;3;0;control;32;39;1;14;33;0;0;0.78000000000000003;0.22;0.0;0.0;93;84;1;25;0.14000000000000001;0.23999999999999999;0.39000000000000001;0.23000000000000001;0;1.9513057272633887;39;9;20;2;das experiment war interessant
2019_02_22 11:21;9;3;0;control;33;6;1;9;51;0;0;0.14999999999999999;0.84999999999999998;0.0;0.0;6;40;50;73;0.42999999999999999;0.26000000000000001;0.059999999999999998;0.25;0;2.2316410618750524;39;9;20;2;das experiment war interessant
2019_02_22 11:21;9;3;0;control;34;114;1;57;39;79;97;0.77000000000000002;0.02;0.13;0.080000000000000002;92;36;6;1;0.54000000000000004;0.12;0.13;0.20999999999999999;1;1.8812588582932221;39;9;20;2;das experiment war interessant
2019_02_22 11:21;9;3;0;control;35;101;0;30;96;61;45;0.65000000000000002;0.14000000000000001;0.11;0.10000000000000001;3;98;63;89;0.75;0.19;0.040000000000000001;0.02;1;2.0114242515883234;39;9;20;2;das experiment war interessant
2019_02_22 11:21;9;3;0;control;36;136;1;29;67;14;75;0.46000000000000002;0.29999999999999999;0.20999999999999999;0.0300000000000001;70;86;1;85;0.31;0.39000000000000001;0.27000000000000002;0.029999999999999898;1;3.252202405446951;39;9;20;2;das experiment war interessant
2019_02_22 11:21;9;3;0;control;37;60;1;64;59;57;96;0.83999999999999997;0.13;0.02;0.01;83;6;0;0;0.54000000000000004;0.46000000000000002;0.0;0.0;1;2.311541223558379;39;9;20;2;das experiment war interessant
2019_02_22 11:21;9;3;0;control;38;30;0;33;30;0;0;0.71999999999999997;0.28000000000000003;0.0;0.0;9;88;1;14;0.55000000000000004;0.39000000000000001;0.01;0.049999999999999899;1;1.871375737249764;39;9;20;2;das experiment war interessant
2019_02_22 11:21;9;3;0;control;39;120;1;64;40;48;51;0.19;0.02;0.070000000000000007;0.71999999999999997;97;9;79;94;0.23000000000000001;0.54000000000000004;0.01;0.22;1;1.3309043020472018;39;9;20;2;das experiment war interessant
2019_02_22 11:21;9;3;0;control;40;48;1;13;32;0;0;0.90000000000000002;0.10000000000000001;0.0;0.0;24;99;84;94;0.62;0.14999999999999999;0.20000000000000001;0.029999999999999999;0;3.0822203569714475;39;9;20;2;das experiment war interessant
2019_02_22 11:21;9;3;0;control;41;61;0;43;18;39;70;0.75;0.089999999999999997;0.089999999999999997;0.070000000000000007;16;66;0;0;0.64000000000000001;0.35999999999999999;0.0;0.0;1;2.3516782927672466;39;9;20;2;das experiment war interessant
2019_02_22 11:21;9;3;0;control;42;109;0;75;28;16;56;0.19;0.070000000000000007;0.059999999999999998;0.68000000000000005;3;50;98;44;0.5;0.02;0.34999999999999998;0.13;0;1.7613127160748263;39;9;20;2;das experiment war interessant
2019_02_22 11:21;9;3;0;control;43;83;0;17;12;7;41;0.65000000000000002;0.19;0.089999999999999997;0.070000000000000007;6;84;0;0;0.72999999999999998;0.27000000000000002;0.0;0.0;1;2.7118166064265097;39;9;20;2;das experiment war interessant
2019_02_22 11:21;9;3;0;control;44;110;0;47;44;23;52;0.13;0.27000000000000002;0.040000000000000001;0.56000000000000005;99;2;30;22;0.28999999999999998;0.5;0.11;0.10000000000000001;1;2.6218636550092924;39;9;20;2;das experiment war interessant
2019_02_22 11:21;9;3;0;control;45;81;1;67;38;52;65;0.27000000000000002;0.35999999999999999;0.01;0.35999999999999999;2;77;0;0;0.14000000000000001;0.85999999999999999;0.0;0.0;1;2.9520030046442116;39;9;20;2;das experiment war interessant
2019_02_22 11:21;9;3;0;control;46;42;1;70;48;0;0;0.79000000000000004;0.20999999999999999;0.0;0.0;51;8;12;67;0.19;0.26000000000000001;0.28999999999999998;0.26000000000000001;0;1.741314262017113;39;9;20;2;das experiment war interessant
2019_02_22 11:21;9;3;0;control;47;26;0;76;41;0;0;0.57999999999999996;0.41999999999999998;0.0;0.0;61;79;84;2;0.13;0.029999999999999999;0.67000000000000004;0.17000000000000001;0;1.471110938626225;39;9;20;2;das experiment war interessant
2019_02_22 11:21;9;3;0;control;48;144;1;99;93;90;71;0.65000000000000002;0.32000000000000001;0.01;0.02;97;14;48;73;0.23000000000000001;0.46000000000000002;0.13;0.17999999999999999;1;2.2515275795012712;39;9;20;2;das experiment war interessant
2019_02_22 11:21;9;3;0;control;49;145;1;91;89;90;74;0.57999999999999996;0.29999999999999999;0.11;0.010000000000000101;2;75;84;39;0.32000000000000001;0.27000000000000002;0.39000000000000001;0.0199999999999999;0;1.9114701487342245;39;9;20;2;das experiment war interessant
2019_02_22 11:21;9;3;0;control;50;40;1;45;49;0;0;0.68999999999999995;0.31;0.0;0.0;2;92;65;73;0.23999999999999999;0.59999999999999998;0.11;0.050000000000000003;1;1.6710922718630172;39;9;20;2;das experiment war interessant
2019_02_22 11:21;9;3;0;control;51;78;1;74;36;34;3;0.14999999999999999;0.64000000000000001;0.13;0.080000000000000002;1;83;0;0;0.41999999999999998;0.57999999999999996;0.0;0.0;1;2.171438505041806;39;9;20;2;das experiment war interessant
2019_02_22 11:21;9;3;0;control;52;146;1;25;5;64;35;0.94999999999999996;0.02;0.01;0.02;47;97;12;79;0.20999999999999999;0.029999999999999999;0.02;0.73999999999999999;0;1.5615751412587997;39;9;20;2;das experiment war interessant
2019_02_22 11:21;9;3;0;control;53;57;0;52;35;23;47;0.22;0.68000000000000005;0.040000000000000001;0.059999999999999998;71;7;0;0;0.28999999999999998;0.70999999999999996;0.0;0.0;0;3.112116365138718;39;9;20;2;das experiment war interessant
2019_02_22 11:21;9;3;0;control;54;23;0;54;40;0;0;0.93000000000000005;0.070000000000000007;0.0;0.0;36;23;71;86;0.02;0.41999999999999998;0.19;0.37;0;1.5911882613636408;39;9;20;2;das experiment war interessant
2019_02_22 11:21;9;3;0;control;55;16;1;64;53;0;0;0.65000000000000002;0.34999999999999998;0.0;0.0;29;17;81;46;0.10000000000000001;0.01;0.44;0.45000000000000001;0;2.4316329793600744;39;9;20;2;das experiment war interessant
2019_02_22 11:21;9;3;0;control;56;89;1;26;41;13;56;0.059999999999999998;0.40999999999999998;0.050000000000000003;0.47999999999999998;5;97;0;0;0.37;0.63;0.0;0.0;1;1.6716416905146616;39;9;20;2;das experiment war interessant
2019_02_22 11:21;9;3;0;control;57;14;1;36;40;0;0;0.54000000000000004;0.46000000000000002;0.0;0.0;99;70;1;11;0.16;0.089999999999999997;0.080000000000000002;0.67000000000000004;0;1.6712330744267092;39;9;20;2;das experiment war interessant
2019_02_22 11:21;9;3;0;control;58;67;0;44;42;8;89;0.88;0.070000000000000007;0.029999999999999999;0.02;10;63;0;0;0.39000000000000001;0.60999999999999999;0.0;0.0;0;1.761396748583138;39;9;20;2;das experiment war interessant
2019_02_22 11:21;9;3;0;control;59;128;1;70;49;27;54;0.27000000000000002;0.53000000000000003;0.02;0.17999999999999999;72;97;6;20;0.29999999999999999;0.39000000000000001;0.22;0.0899999999999999;0;1.6112110912654316;39;9;20;2;das experiment war interessant
2019_02_22 11:21;9;3;0;control;60;122;1;35;58;25;31;0.81999999999999995;0.070000000000000007;0.080000000000000002;0.029999999999999999;18;64;68;89;0.63;0.17000000000000001;0.11;0.089999999999999997;0;1.8912503876872506;39;9;20;2;das experiment war interessant
2019_02_22 11:21;9;3;0;control;61;105;0;49;74;63;58;0.84999999999999998;0.080000000000000002;0.02;0.050000000000000003;97;5;86;8;0.25;0.52000000000000002;0.070000000000000007;0.16;0;1.6512076786457328;39;9;20;2;das experiment war interessant
2019_02_22 11:21;9;3;0;control;62;80;0;47;39;45;10;0.13;0.76000000000000001;0.059999999999999998;0.050000000000000003;2;87;0;0;0.48999999999999999;0.51000000000000001;0.0;0.0;1;2.651808094127773;39;9;20;2;das experiment war interessant
2019_02_22 11:21;9;3;0;control;63;13;1;52;56;0;0;0.46999999999999997;0.53000000000000003;0.0;0.0;94;71;27;2;0.089999999999999997;0.31;0.57999999999999996;0.020000000000000101;0;2.4317352937505348;39;9;20;2;das experiment war interessant
2019_02_22 11:21;9;3;0;control;64;33;0;27;70;0;0;0.88;0.12;0.0;0.0;93;3;77;16;0.080000000000000002;0.40000000000000002;0.5;0.02;1;1.8313140407099127;39;9;20;2;das experiment war interessant
2019_02_22 11:21;9;3;0;control;65;46;0;5;19;0;0;0.32000000000000001;0.68000000000000005;0.0;0.0;88;38;97;66;0.60999999999999999;0.20000000000000001;0.040000000000000001;0.14999999999999999;1;2.1115653428132646;39;9;20;2;das experiment war interessant
2019_02_22 11:21;9;3;0;control;66;97;1;17;33;32;74;0.94999999999999996;0.01;0.029999999999999999;0.01;76;23;0;0;0.33000000000000002;0.67000000000000004;0.0;0.0;1;2.0313450878347794;39;9;20;2;das experiment war interessant
2019_02_22 11:21;9;3;0;control;67;129;1;12;29;81;36;0.17999999999999999;0.79000000000000004;0.01;0.02;5;19;95;92;0.47999999999999998;0.26000000000000001;0.13;0.13;1;3.9328140851303033;39;9;20;2;das experiment war interessant
2019_02_22 11:21;9;3;0;control;68;51;0;52;23;43;16;0.60999999999999999;0.20999999999999999;0.01;0.17000000000000001;92;7;0;0;0.14999999999999999;0.84999999999999998;0.0;0.0;0;2.4716484900927753;39;9;20;2;das experiment war interessant
2019_02_22 11:21;9;3;0;control;69;10;0;45;62;0;0;0.059999999999999998;0.93999999999999995;0.0;0.0;17;99;28;67;0.58999999999999997;0.34000000000000002;0.01;0.059999999999999998;0;2.021384348976426;39;9;20;2;das experiment war interessant
2019_02_22 11:21;9;3;0;control;70;53;0;26;70;50;80;0.29999999999999999;0.59999999999999998;0.040000000000000001;0.059999999999999998;89;1;0;0;0.40999999999999998;0.58999999999999997;0.0;0.0;1;2.111419087759714;39;9;20;2;das experiment war interessant
2019_02_22 11:21;9;3;0;control;71;4;0;40;43;0;0;0.58999999999999997;0.40999999999999998;0.0;0.0;2;33;88;81;0.69999999999999996;0.14000000000000001;0.13;0.029999999999999999;0;1.8312078775015834;39;9;20;2;das experiment war interessant
2019_02_22 11:21;9;3;0;control;72;71;0;68;55;36;51;0.20000000000000001;0.75;0.02;0.029999999999999999;38;81;0;0;0.52000000000000002;0.47999999999999998;0.0;0.0;1;1.5911796015243453;39;9;20;2;das experiment war interessant
2019_02_22 11:21;9;3;0;control;73;58;0;37;58;76;34;0.20999999999999999;0.57999999999999996;0.19;0.020000000000000101;86;5;0;0;0.47999999999999998;0.52000000000000002;0.0;0.0;1;2.1914696740477666;39;9;20;2;das experiment war interessant
2019_02_22 11:21;9;3;0;control;74;63;0;56;78;42;36;0.93000000000000005;0.040000000000000001;0.01;0.0199999999999999;2;72;0;0;0.32000000000000001;0.68000000000000005;0.0;0.0;0;1.390906399652522;39;9;20;2;das experiment war interessant
2019_02_22 11:21;9;3;0;control;75;84;0;43;10;5;45;0.78000000000000003;0.13;0.059999999999999998;0.029999999999999999;87;1;0;0;0.57999999999999996;0.41999999999999998;0.0;0.0;1;1.3004595166967192;39;9;20;2;das experiment war interessant
2019_02_22 11:21;9;4;0;timed;1;11;0;17;36;0;0;0.14000000000000001;0.85999999999999999;0.0;0.0;19;41;34;95;0.88;0.02;0.050000000000000003;0.050000000000000003;1;1.3997593206313468;39;9;20;2;das experiment war interessant
2019_02_22 11:21;9;4;0;timed;2;113;0;85;65;39;64;0.44;0.34000000000000002;0.13;0.089999999999999997;87;2;4;35;0.67000000000000004;0.17000000000000001;0.11;0.049999999999999899;1;1.330869662691839;39;9;20;2;das experiment war interessant
2019_02_22 11:21;9;4;0;timed;3;50;0;15;20;0;0;0.82999999999999996;0.17000000000000001;0.0;0.0;97;18;88;87;0.56999999999999995;0.39000000000000001;0.01;0.029999999999999999;1;1.471533346311844;39;9;20;2;das experiment war interessant
2019_02_22 11:21;9;4;0;timed;4;48;1;13;32;0;0;0.90000000000000002;0.10000000000000001;0.0;0.0;24;99;84;94;0.62;0.14999999999999999;0.20000000000000001;0.029999999999999999;1;1.591043609983899;39;9;20;2;das experiment war interessant
2019_02_22 11:21;9;4;0;timed;5;148;0;37;63;55;10;0.72999999999999998;0.070000000000000007;0.029999999999999999;0.17000000000000001;80;14;23;70;0.46999999999999997;0.10000000000000001;0.23000000000000001;0.20000000000000001;0;1.4109484736382;39;9;20;2;das experiment war interessant
2019_02_22 11:21;9;4;0;timed;6;53;1;26;70;50;80;0.29999999999999999;0.59999999999999998;0.040000000000000001;0.059999999999999998;89;1;0;0;0.40999999999999998;0.58999999999999997;0.0;0.0;0;1.471119277730395;39;9;20;2;das experiment war interessant
2019_02_22 11:21;9;4;0;timed;7;71;1;68;55;36;51;0.20000000000000001;0.75;0.02;0.029999999999999999;38;81;0;0;0.52000000000000002;0.47999999999999998;0.0;0.0;1;1.4711163911179028;39;9;20;2;das experiment war interessant
2019_02_22 11:21;9;4;0;timed;8;1;1;22;51;0;0;0.26000000000000001;0.73999999999999999;0.0;0.0;14;11;92;31;0.29999999999999999;0.40999999999999998;0.14999999999999999;0.14000000000000001;1;1.3509652993852796;39;9;20;2;das experiment war interessant
2019_02_22 11:21;9;4;0;timed;9;24;0;35;27;0;0;0.070000000000000007;0.93000000000000005;0.0;0.0;62;3;81;95;0.35999999999999999;0.55000000000000004;0.01;0.080000000000000002;1;1.4709768714947131;39;9;20;2;das experiment war interessant
2019_02_22 11:21;9;4;0;timed;10;99;0;8;24;15;73;0.56000000000000005;0.35999999999999999;0.070000000000000007;0.0099999999999999499;88;12;0;0;0.52000000000000002;0.47999999999999998;0.0;0.0;1;1.2304671726360539;39;9;20;2;das experiment war interessant
2019_02_22 11:21;9;4;0;timed;11;135;0;48;60;41;51;0.14000000000000001;0.40000000000000002;0.089999999999999997;0.37;94;1;85;65;0.64000000000000001;0.29999999999999999;0.01;0.050000000000000003;1;1.46094172217272;39;9;20;2;das experiment war interessant
2019_02_22 11:21;9;4;0;timed;12;104;1;55;85;93;3;0.87;0.02;0.089999999999999997;0.02;1;2;90;8;0.35999999999999999;0.070000000000000007;0.40000000000000002;0.17000000000000001;0;1.3610629919858184;39;9;20;2;das experiment war interessant
2019_02_22 11:21;9;4;0;timed;13;7;0;49;29;0;0;0.95999999999999996;0.040000000000000001;0.0;0.0;23;99;64;25;0.68999999999999995;0.12;0.059999999999999998;0.13;0;1.150921422869942;39;9;20;2;das experiment war interessant
2019_02_22 11:21;9;4;0;timed;14;147;1;39;43;76;28;0.14000000000000001;0.10000000000000001;0.10000000000000001;0.66000000000000003;6;31;68;85;0.27000000000000002;0.20000000000000001;0.22;0.31;0;1.3708938332638354;39;9;20;2;das experiment war interessant
2019_02_22 11:21;9;4;0;timed;15;110;1;47;44;23;52;0.13;0.27000000000000002;0.040000000000000001;0.56000000000000005;99;2;30;22;0.28999999999999998;0.5;0.11;0.10000000000000001;1;1.1308004481306853;39;9;20;2;das experiment war interessant
2019_02_22 11:21;9;4;0;timed;16;12;1;53;68;0;0;0.31;0.68999999999999995;0.0;0.0;69;54;97;29;0.25;0.20999999999999999;0.20000000000000001;0.34000000000000002;0;1.160789790113995;39;9;20;2;das experiment war interessant
2019_02_22 11:21;9;4;0;timed;17;139;1;44;31;16;8;0.79000000000000004;0.070000000000000007;0.13;0.0099999999999999499;92;58;2;88;0.55000000000000004;0.070000000000000007;0.34000000000000002;0.039999999999999897;1;1.200910822584774;39;9;20;2;das experiment war interessant
2019_02_22 11:21;9;4;0;timed;18;123;1;26;24;51;92;0.72999999999999998;0.16;0.070000000000000007;0.040000000000000001;6;90;82;49;0.64000000000000001;0.25;0.050000000000000003;0.059999999999999998;0;1.2109418023555918;39;9;20;2;das experiment war interessant
2019_02_22 11:21;9;4;0;timed;19;46;1;5;19;0;0;0.32000000000000001;0.68000000000000005;0.0;0.0;88;38;97;66;0.60999999999999999;0.20000000000000001;0.040000000000000001;0.14999999999999999;1;1.1107093017253646;39;9;20;2;das experiment war interessant
2019_02_22 11:21;9;4;0;timed;20;115;1;50;28;61;79;0.83999999999999997;0.040000000000000001;0.059999999999999998;0.059999999999999998;1;26;97;55;0.45000000000000001;0.080000000000000002;0.40999999999999998;0.060000000000000102;0;1.4811143352089857;39;9;20;2;das experiment war interessant
2019_02_22 11:21;9;4;0;timed;21;16;0;64;53;0;0;0.65000000000000002;0.34999999999999998;0.0;0.0;29;17;81;46;0.10000000000000001;0.01;0.44;0.45000000000000001;0;1.230767380377074;39;9;20;2;das experiment war interessant
2019_02_22 11:21;9;4;0;timed;22;31;1;10;59;0;0;0.23999999999999999;0.76000000000000001;0.0;0.0;1;79;53;73;0.23000000000000001;0.58999999999999997;0.050000000000000003;0.13;1;1.3608833805192262;39;9;20;2;das experiment war interessant
2019_02_22 11:21;9;4;0;timed;23;13;1;52;56;0;0;0.46999999999999997;0.53000000000000003;0.0;0.0;94;71;27;2;0.089999999999999997;0.31;0.57999999999999996;0.020000000000000101;0;1.4309571912108368;39;9;20;2;das experiment war interessant
2019_02_22 11:21;9;4;0;timed;24;91;1;74;81;86;48;0.93000000000000005;0.02;0.01;0.039999999999999897;7;64;0;0;0.13;0.87;0.0;0.0;1;1.431070089847708;39;9;20;2;das experiment war interessant
2019_02_22 11:21;9;4;0;timed;25;28;1;47;30;0;0;0.97999999999999998;0.02;0.0;0.0;55;48;77;13;0.070000000000000007;0.26000000000000001;0.42999999999999999;0.23999999999999999;0;1.5511753165101254;39;9;20;2;das experiment war interessant
2019_02_22 11:21;9;4;0;timed;26;22;0;32;55;0;0;0.39000000000000001;0.60999999999999999;0.0;0.0;93;72;59;22;0.20000000000000001;0.11;0.14000000000000001;0.55000000000000004;0;1.3908865140965645;39;9;20;2;das experiment war interessant
2019_02_22 11:21;9;4;0;timed;27;41;1;99;40;0;0;0.89000000000000001;0.11;0.0;0.0;1;67;52;46;0.51000000000000001;0.38;0.029999999999999999;0.080000000000000002;0;1.3610382954102533;39;9;20;2;das experiment war interessant
2019_02_22 11:21;9;4;0;timed;28;117;0;65;85;92;41;0.23000000000000001;0.17999999999999999;0.54000000000000004;0.050000000000000003;99;93;10;13;0.64000000000000001;0.16;0.01;0.19;1;1.6511053642570914;39;9;20;2;das experiment war interessant
2019_02_22 11:21;9;4;0;timed;29;62;1;12;45;16;50;0.20999999999999999;0.76000000000000001;0.02;0.01;92;15;0;0;0.20999999999999999;0.79000000000000004;0.0;0.0;0;1.5511637700565188;39;9;20;2;das experiment war interessant
2019_02_22 11:21;9;4;0;timed;30;38;0;40;70;0;0;0.53000000000000003;0.46999999999999997;0.0;0.0;97;90;6;96;0.56999999999999995;0.070000000000000007;0.27000000000000002;0.089999999999999997;1;1.4709659665149957;39;9;20;2;das experiment war interessant
2019_02_22 11:21;9;4;0;timed;31;23;0;54;40;0;0;0.93000000000000005;0.070000000000000007;0.0;0.0;36;23;71;86;0.02;0.41999999999999998;0.19;0.37;0;1.6310863831731695;39;9;20;2;das experiment war interessant
2019_02_22 11:21;9;4;0;timed;32;108;1;48;72;39;70;0.14000000000000001;0.66000000000000003;0.02;0.17999999999999999;81;44;98;8;0.59999999999999998;0.029999999999999999;0.050000000000000003;0.32000000000000001;1;1.3809183983412368;39;9;20;2;das experiment war interessant
2019_02_22 11:21;9;4;0;timed;33;34;1;32;48;0;0;0.28000000000000003;0.71999999999999997;0.0;0.0;97;83;7;62;0.040000000000000001;0.54000000000000004;0.35999999999999999;0.059999999999999901;0;1.7513003389194637;39;9;20;2;das experiment war interessant
2019_02_22 11:21;9;4;0;timed;34;120;1;64;40;48;51;0.19;0.02;0.070000000000000007;0.71999999999999997;97;9;79;94;0.23000000000000001;0.54000000000000004;0.01;0.22;1;1.3208900004847237;39;9;20;2;das experiment war interessant
2019_02_22 11:21;9;4;0;timed;35;116;0;53;65;43;99;0.56999999999999995;0.37;0.050000000000000003;0.010000000000000101;57;72;11;87;0.67000000000000004;0.13;0.14999999999999999;0.050000000000000003;0;1.3310101445185865;39;9;20;2;das experiment war interessant
2019_02_22 11:21;9;4;0;timed;36;125;0;37;41;10;35;0.91000000000000003;0.040000000000000001;0.029999999999999999;0.02;7;13;91;93;0.26000000000000001;0.39000000000000001;0.16;0.19;0;1.1707729804056726;39;9;20;2;das experiment war interessant
2019_02_22 11:21;9;4;0;timed;37;6;1;9;51;0;0;0.14999999999999999;0.84999999999999998;0.0;0.0;6;40;50;73;0.42999999999999999;0.26000000000000001;0.059999999999999998;0.25;0;1.801021283637965;39;9;20;2;das experiment war interessant
2019_02_22 11:21;9;4;0;timed;38;76;1;39;62;9;28;0.01;0.51000000000000001;0.26000000000000001;0.22;77;7;0;0;0.57999999999999996;0.41999999999999998;0.0;0.0;1;1.1508771614717261;39;9;20;2;das experiment war interessant
2019_02_22 11:21;9;4;0;timed;39;106;1;85;69;22;61;0.10000000000000001;0.58999999999999997;0.17999999999999999;0.13;20;79;91;84;0.55000000000000004;0.14999999999999999;0.26000000000000001;0.039999999999999897;0;1.480970325299495;39;9;20;2;das experiment war interessant
2019_02_22 11:21;9;4;0;timed;40;54;1;44;79;78;52;0.79000000000000004;0.19;0.01;0.0099999999999999603;96;1;0;0;0.28000000000000003;0.71999999999999997;0.0;0.0;0;1.3909028715715976;39;9;20;2;das experiment war interessant
2019_02_22 11:21;9;4;0;timed;41;118;0;62;52;65;68;0.40999999999999998;0.44;0.10000000000000001;0.0500000000000001;79;20;14;37;0.56999999999999995;0.23999999999999999;0.14000000000000001;0.050000000000000003;0;1.57098870660775;39;9;20;2;das experiment war interessant
2019_02_22 11:21;9;4;0;timed;42;134;1;57;48;50;55;0.02;0.62;0.17999999999999999;0.17999999999999999;80;96;15;18;0.23999999999999999;0.35999999999999999;0.33000000000000002;0.070000000000000007;1;1.891401453764047;39;9;20;2;das experiment war interessant
2019_02_22 11:21;9;4;0;timed;43;73;1;65;68;70;47;0.25;0.23000000000000001;0.20999999999999999;0.31;27;95;0;0;0.45000000000000001;0.55000000000000004;0.0;0.0;1;1.230941860088933;39;9;20;2;das experiment war interessant
2019_02_22 11:21;9;4;0;timed;44;33;0;27;70;0;0;0.88;0.12;0.0;0.0;93;3;77;16;0.080000000000000002;0.40000000000000002;0.5;0.02;1;1.3108609451228403;39;9;20;2;das experiment war interessant
2019_02_22 11:21;9;4;0;timed;45;25;0;50;53;0;0;0.82999999999999996;0.17000000000000001;0.0;0.0;83;16;97;4;0.45000000000000001;0.29999999999999999;0.11;0.14000000000000001;0;1.4709550615298213;39;9;20;2;das experiment war interessant
2019_02_22 11:21;9;4;0;timed;46;150;0;25;21;78;38;0.84999999999999998;0.059999999999999998;0.050000000000000003;0.040000000000000001;31;43;64;95;0.059999999999999998;0.45000000000000001;0.13;0.35999999999999999;0;1.5209983446875412;39;9;20;2;das experiment war interessant
2019_02_22 11:21;9;4;0;timed;47;57;1;52;35;23;47;0.22;0.68000000000000005;0.040000000000000001;0.059999999999999998;71;7;0;0;0.28999999999999998;0.70999999999999996;0.0;0.0;1;1.5109506867083837;39;9;20;2;das experiment war interessant
2019_02_22 11:21;9;4;0;timed;48;149;0;14;89;73;53;0.93999999999999995;0.01;0.01;0.040000000000000001;97;45;6;13;0.34000000000000002;0.01;0.40999999999999998;0.23999999999999999;1;1.7813291312795627;39;9;20;2;das experiment war interessant
2019_02_22 11:21;9;4;0;timed;49;32;0;19;81;0;0;0.93000000000000005;0.070000000000000007;0.0;0.0;1;65;41;68;0.45000000000000001;0.050000000000000003;0.059999999999999998;0.44;1;1.551146450379747;39;9;20;2;das experiment war interessant
2019_02_22 11:21;9;4;0;timed;50;15;0;77;81;0;0;0.28000000000000003;0.71999999999999997;0.0;0.0;98;14;87;18;0.55000000000000004;0.23000000000000001;0.16;0.059999999999999901;0;1.4309318531632016;39;9;20;2;das experiment war interessant
2019_02_22 11:21;9;4;0;timed;51;66;0;89;23;27;15;0.070000000000000007;0.54000000000000004;0.17000000000000001;0.22;9;73;0;0;0.72999999999999998;0.27000000000000002;0.0;0.0;1;1.6312166014868126;39;9;20;2;das experiment war interessant
2019_02_22 11:21;9;4;0;timed;52;142;1;98;65;64;84;0.88;0.070000000000000007;0.01;0.040000000000000001;5;68;60;16;0.46000000000000002;0.080000000000000002;0.27000000000000002;0.19;0;1.6410281986791233;39;9;20;2;das experiment war interessant
2019_02_22 11:21;9;4;0;timed;53;19;1;22;53;0;0;0.13;0.87;0.0;0.0;4;93;96;65;0.46999999999999997;0.059999999999999998;0.26000000000000001;0.20999999999999999;NA;1.9212843118039018;39;9;20;2;das experiment war interessant
2019_02_22 11:21;9;4;0;timed;54;78;0;74;36;34;3;0.14999999999999999;0.64000000000000001;0.13;0.080000000000000002;1;83;0;0;0.41999999999999998;0.57999999999999996;0.0;0.0;1;1.1908092811663664;39;9;20;2;das experiment war interessant
2019_02_22 11:21;9;4;0;timed;55;98;0;27;10;31;79;0.23000000000000001;0.67000000000000004;0.070000000000000007;0.029999999999999999;25;99;0;0;0.38;0.62;0.0;0.0;1;1.3108984710906952;39;9;20;2;das experiment war interessant
2019_02_22 11:21;9;4;0;timed;56;85;1;31;22;82;50;0.11;0.69999999999999996;0.01;0.17999999999999999;3;99;0;0;0.62;0.38;0.0;0.0;1;1.1107198859735945;39;9;20;2;das experiment war interessant
2019_02_22 11:21;9;4;0;timed;57;47;1;2;40;0;0;0.45000000000000001;0.55000000000000004;0.0;0.0;93;89;11;56;0.58999999999999997;0.070000000000000007;0.28000000000000003;0.059999999999999998;0;1.1108443310604343;39;9;20;2;das experiment war interessant
2019_02_22 11:21;9;4;0;timed;58;119;0;60;58;11;18;0.25;0.72999999999999998;0.01;0.01;96;23;42;85;0.44;0.48999999999999999;0.059999999999999998;0.010000000000000101;0;0.930677670861769;39;9;20;2;das experiment war interessant
2019_02_22 11:21;9;4;0;timed;59;122;1;35;58;25;31;0.81999999999999995;0.070000000000000007;0.080000000000000002;0.029999999999999999;18;64;68;89;0.63;0.17000000000000001;0.11;0.089999999999999997;1;0.9307289884254715;39;9;20;2;das experiment war interessant
2019_02_22 11:21;9;4;0;timed;60;143;0;88;44;56;73;0.95999999999999996;0.02;0.01;0.01;20;3;87;32;0.19;0.40000000000000002;0.28000000000000003;0.13;0;0.9802709631439939;39;9;20;2;das experiment war interessant
2019_02_22 11:21;9;4;0;timed;61;44;0;79;74;0;0;0.71999999999999997;0.28000000000000003;0.0;0.0;3;67;15;36;0.41999999999999998;0.53000000000000003;0.02;0.029999999999999999;0;1.0306715448277828;39;9;20;2;das experiment war interessant
2019_02_22 11:21;9;4;0;timed;62;9;1;61;69;0;0;0.93999999999999995;0.060000000000000102;0.0;0.0;18;93;72;16;0.40999999999999998;0.34999999999999998;0.089999999999999997;0.14999999999999999;0;1.0708445363325154;39;9;20;2;das experiment war interessant
2019_02_22 11:21;9;4;0;timed;63;39;1;14;33;0;0;0.78000000000000003;0.22;0.0;0.0;93;84;1;25;0.14000000000000001;0.23999999999999999;0.39000000000000001;0.23000000000000001;1;0.9206005052838009;39;9;20;2;das experiment war interessant
2019_02_22 11:21;9;4;0;timed;64;100;0;27;14;59;52;0.02;0.95999999999999996;0.01;0.01;17;98;0;0;0.48999999999999999;0.51000000000000001;0.0;0.0;1;1.0306423579640978;39;9;20;2;das experiment war interessant
2019_02_22 11:21;9;4;0;timed;65;83;0;17;12;7;41;0.65000000000000002;0.19;0.089999999999999997;0.070000000000000007;6;84;0;0;0.72999999999999998;0.27000000000000002;0.0;0.0;0;0.8102834621768125;39;9;20;2;das experiment war interessant
2019_02_22 11:21;9;4;0;timed;66;80;0;47;39;45;10;0.13;0.76000000000000001;0.059999999999999998;0.050000000000000003;2;87;0;0;0.48999999999999999;0.51000000000000001;0.0;0.0;1;1.151131183405596;39;9;20;2;das experiment war interessant
2019_02_22 11:21;9;4;0;timed;67;141;1;93;28;60;91;0.81999999999999995;0.10000000000000001;0.01;0.070000000000000007;14;85;7;89;0.45000000000000001;0.070000000000000007;0.23999999999999999;0.23999999999999999;0;1.2007915092526673;39;9;20;2;das experiment war interessant
2019_02_22 11:21;9;4;0;timed;68;146;1;25;5;64;35;0.94999999999999996;0.02;0.01;0.02;47;97;12;79;0.20999999999999999;0.029999999999999999;0.02;0.73999999999999999;0;1.0806926972854853;39;9;20;2;das experiment war interessant
2019_02_22 11:21;9;4;0;timed;69;130;0;37;79;23;95;0.94999999999999996;0.029999999999999999;0.01;0.01;94;4;58;49;0.46000000000000002;0.5;0.029999999999999999;0.01;0;1.2607349123954918;39;9;20;2;das experiment war interessant
2019_02_22 11:21;9;4;0;timed;70;63;1;56;78;42;36;0.93000000000000005;0.040000000000000001;0.01;0.0199999999999999;2;72;0;0;0.32000000000000001;0.68000000000000005;0.0;0.0;0;1.2308090758961043;39;9;20;2;das experiment war interessant
2019_02_22 11:21;9;4;0;timed;71;137;0;71;22;28;17;0.25;0.46000000000000002;0.050000000000000003;0.23999999999999999;3;98;92;69;0.42999999999999999;0.23999999999999999;0.20000000000000001;0.13;0;1.2908656984109257;39;9;20;2;das experiment war interessant
2019_02_22 11:21;9;4;0;timed;72;4;1;40;43;0;0;0.58999999999999997;0.40999999999999998;0.0;0.0;2;33;88;81;0.69999999999999996;0.14000000000000001;0.13;0.029999999999999999;0;1.1507055683723593;39;9;20;2;das experiment war interessant
2019_02_22 11:21;9;4;0;timed;73;126;0;16;55;51;42;0.68999999999999995;0.23999999999999999;0.01;0.060000000000000102;66;4;1;5;0.46999999999999997;0.38;0.089999999999999997;0.059999999999999998;1;1.2009396887133335;39;9;20;2;das experiment war interessant
2019_02_22 11:21;9;4;0;timed;74;94;0;84;86;93;39;0.78000000000000003;0.20000000000000001;0.01;0.0099999999999999603;9;83;0;0;0.46999999999999997;0.53000000000000003;0.0;0.0;0;1.1609475916193333;39;9;20;2;das experiment war interessant
2019_02_22 11:21;9;4;0;timed;75;17;0;81;52;0;0;0.059999999999999998;0.93999999999999995;0.0;0.0;34;3;69;41;0.01;0.22;0.75;0.02;0;1.5109869297393743;39;9;20;2;das experiment war interessant
