date;id;block;order;cond;trial;gameid;leftright;oa1;oa2;oa3;oa4;pa1;pa2;pa3;pa4;ob1;ob2;ob3;ob4;pb1;pb2;pb3;pb4;choice;rt;paytrial;payout;alter;geschlecht;comment
2019_03_04 10:35;21;0;0;practice;1;19;0;25;73;0;0;0.69999999999999996;0.29999999999999999;0.0;0.0;87;84;1;86;0.040000000000000001;0.59999999999999998;0.28000000000000003;0.080000000000000002;1;9.790943711136606;10;6;22;2;gut erklaert und uerbersichtlich
2019_03_04 10:35;21;0;0;practice;2;28;0;37;83;75;8;0.83999999999999997;0.070000000000000007;0.01;0.080000000000000002;94;2;0;0;0.19;0.81000000000000005;0.0;0.0;0;7.975337942288206;10;6;22;2;gut erklaert und uerbersichtlich
2019_03_04 10:35;21;0;0;practice;3;10;1;34;59;0;0;0.16;0.83999999999999997;0.0;0.0;21;61;96;7;0.19;0.01;0.5;0.29999999999999999;1;5.713700309302112;10;6;22;2;gut erklaert und uerbersichtlich
2019_03_04 10:35;21;0;0;practice;4;52;1;17;61;57;59;0.070000000000000007;0.050000000000000003;0.33000000000000002;0.55000000000000004;12;93;94;62;0.71999999999999997;0.16;0.080000000000000002;0.040000000000000001;0;5.843957706058973;10;6;22;2;gut erklaert und uerbersichtlich
2019_03_04 10:35;21;0;0;practice;5;49;1;14;31;42;22;0.77000000000000002;0.089999999999999997;0.02;0.12;87;28;0;0;0.68000000000000005;0.32000000000000001;0.0;0.0;1;4.112618137080972;10;6;22;2;gut erklaert und uerbersichtlich
2019_03_04 10:35;21;0;0;practice;6;67;0;74;31;10;77;0.11;0.070000000000000007;0.77000000000000002;0.050000000000000003;2;23;8;97;0.56999999999999995;0.01;0.059999999999999998;0.35999999999999999;0;13.79900211290078;10;6;22;2;gut erklaert und uerbersichtlich
2019_03_04 10:35;21;0;0;practice;7;57;0;39;68;59;91;0.73999999999999999;0.040000000000000001;0.14999999999999999;0.070000000000000007;9;22;40;84;0.29999999999999999;0.32000000000000001;0.040000000000000001;0.34000000000000002;0;11.04719902706438;10;6;22;2;gut erklaert und uerbersichtlich
2019_03_04 10:35;21;0;0;practice;8;36;1;56;89;86;77;0.66000000000000003;0.080000000000000002;0.14999999999999999;0.11;29;91;0;0;0.40999999999999998;0.58999999999999997;0.0;0.0;1;3.2620888855253725;10;6;22;2;gut erklaert und uerbersichtlich
2019_03_04 10:35;21;0;0;practice;9;46;1;79;57;98;81;0.67000000000000004;0.070000000000000007;0.20999999999999999;0.050000000000000003;1;76;0;0;0.56000000000000005;0.44;0.0;0.0;0;7.605051077810458;10;6;22;2;gut erklaert und uerbersichtlich
2019_03_04 10:35;21;0;0;practice;10;44;1;69;48;22;63;0.39000000000000001;0.40999999999999998;0.19;0.01;1;94;0;0;0.22;0.78000000000000003;0.0;0.0;1;3.832470811305029;10;6;22;2;gut erklaert und uerbersichtlich
2019_03_04 10:35;21;0;0;practice;11;39;0;53;65;48;75;0.92000000000000004;0.029999999999999999;0.01;0.040000000000000001;16;83;0;0;0.31;0.68999999999999995;0.0;0.0;1;4.7930809868412325;10;6;22;2;gut erklaert und uerbersichtlich
2019_03_04 10:35;21;0;0;practice;12;74;1;36;46;10;12;0.11;0.19;0.65000000000000002;0.049999999999999899;92;24;79;19;0.51000000000000001;0.40999999999999998;0.02;0.059999999999999998;1;4.042614981199222;10;6;22;2;gut erklaert und uerbersichtlich
2019_03_04 10:35;21;0;0;practice;13;2;1;41;60;0;0;0.97999999999999998;0.02;0.0;0.0;10;14;97;6;0.54000000000000004;0.17000000000000001;0.12;0.17000000000000001;0;6.514255988156947;10;6;22;2;gut erklaert und uerbersichtlich
2019_03_04 10:35;21;0;0;practice;14;40;0;29;65;30;41;0.70999999999999996;0.01;0.14999999999999999;0.13;2;59;0;0;0.32000000000000001;0.68000000000000005;0.0;0.0;1;4.352833942914003;10;6;22;2;gut erklaert und uerbersichtlich
2019_03_04 10:35;21;0;0;practice;15;61;1;51;48;56;88;0.91000000000000003;0.02;0.01;0.059999999999999998;78;21;14;82;0.55000000000000004;0.29999999999999999;0.070000000000000007;0.080000000000000002;0;6.1040173983992645;10;6;22;2;gut erklaert und uerbersichtlich
2019_03_04 10:35;21;0;0;practice;16;23;1;99;93;0;0;0.57999999999999996;0.41999999999999998;0.0;0.0;64;10;80;81;0.13;0.55000000000000004;0.02;0.29999999999999999;0;7.755170642093617;10;6;22;2;gut erklaert und uerbersichtlich
2019_03_04 10:35;21;0;0;practice;17;54;1;69;80;22;55;0.27000000000000002;0.31;0.059999999999999998;0.35999999999999999;52;2;49;90;0.059999999999999998;0.33000000000000002;0.20000000000000001;0.40999999999999998;0;9.676428838083666;10;6;22;2;gut erklaert und uerbersichtlich
2019_03_04 10:35;21;0;0;practice;18;37;1;50;66;99;12;0.26000000000000001;0.71999999999999997;0.01;0.01;22;90;0;0;0.37;0.63;0.0;0.0;1;3.4423294765729224;10;6;22;2;gut erklaert und uerbersichtlich
2019_03_04 10:35;21;0;0;practice;19;1;0;67;36;0;0;0.14999999999999999;0.84999999999999998;0.0;0.0;1;4;81;77;0.25;0.54000000000000004;0.14000000000000001;0.070000000000000007;0;4.4830425902855495;10;6;22;2;gut erklaert und uerbersichtlich
2019_03_04 10:35;21;0;0;practice;20;18;1;47;36;0;0;0.089999999999999997;0.91000000000000003;0.0;0.0;2;44;81;9;0.20000000000000001;0.25;0.51000000000000001;0.040000000000000001;1;4.072627284004739;10;6;22;2;gut erklaert und uerbersichtlich
2019_03_04 10:35;21;0;0;practice;21;5;1;23;58;0;0;0.71999999999999997;0.28000000000000003;0.0;0.0;94;12;52;3;0.11;0.84999999999999998;0.029999999999999999;0.01;0;10.437082823923447;10;6;22;2;gut erklaert und uerbersichtlich
2019_03_04 10:35;21;0;0;practice;22;32;0;21;86;16;78;0.45000000000000001;0.41999999999999998;0.050000000000000003;0.080000000000000099;95;9;0;0;0.42999999999999999;0.56999999999999995;0.0;0.0;0;6.474345635710961;10;6;22;2;gut erklaert und uerbersichtlich
2019_03_04 10:35;21;0;0;practice;23;4;0;40;59;0;0;0.19;0.81000000000000005;0.0;0.0;10;88;13;45;0.56000000000000005;0.28999999999999998;0.01;0.14000000000000001;0;5.713736871341098;10;6;22;2;gut erklaert und uerbersichtlich
2019_03_04 10:35;21;0;0;practice;24;22;1;84;87;0;0;0.17000000000000001;0.82999999999999996;0.0;0.0;3;24;41;83;0.68000000000000005;0.11;0.10000000000000001;0.11;0;3.582461510435678;10;6;22;2;gut erklaert und uerbersichtlich
2019_03_04 10:35;21;0;0;practice;25;24;0;19;38;0;0;0.89000000000000001;0.11;0.0;0.0;45;76;95;57;0.29999999999999999;0.22;0.40000000000000002;0.080000000000000002;1;6.834436822720818;10;6;22;2;gut erklaert und uerbersichtlich
2019_03_04 10:35;21;0;0;practice;26;59;1;13;27;48;51;0.56999999999999995;0.13;0.13;0.17000000000000001;8;37;97;1;0.65000000000000002;0.16;0.14999999999999999;0.040000000000000001;1;9.566223795602127;10;6;22;2;gut erklaert und uerbersichtlich
2019_03_04 10:35;21;0;0;practice;27;48;1;20;25;24;35;0.32000000000000001;0.13;0.48999999999999999;0.059999999999999901;44;76;0;0;0.29999999999999999;0.69999999999999996;0.0;0.0;1;3.0320809445065606;10;6;22;2;gut erklaert und uerbersichtlich
2019_03_04 10:35;21;0;0;practice;28;31;1;72;59;40;92;0.59999999999999998;0.34999999999999998;0.02;0.029999999999999999;97;29;0;0;0.38;0.62;0.0;0.0;0;3.7123661155847003;10;6;22;2;gut erklaert und uerbersichtlich
2019_03_04 10:35;21;0;0;practice;29;45;1;37;40;75;23;0.54000000000000004;0.38;0.059999999999999998;0.02;1;90;0;0;0.28000000000000003;0.71999999999999997;0.0;0.0;1;2.3114582224179685;10;6;22;2;gut erklaert und uerbersichtlich
2019_03_04 10:35;21;0;0;practice;30;60;1;39;93;27;78;0.85999999999999999;0.02;0.11;0.01;22;5;62;95;0.059999999999999998;0.56999999999999995;0.14000000000000001;0.23000000000000001;0;3.5222909773865467;10;6;22;2;gut erklaert und uerbersichtlich
2019_03_04 10:35;21;0;0;practice;31;8;1;20;44;0;0;0.26000000000000001;0.73999999999999999;0.0;0.0;99;3;69;24;0.20999999999999999;0.60999999999999999;0.12;0.060000000000000102;0;5.073407274177953;10;6;22;2;gut erklaert und uerbersichtlich
2019_03_04 10:35;21;0;0;practice;32;13;0;15;25;0;0;0.29999999999999999;0.69999999999999996;0.0;0.0;3;43;35;73;0.44;0.40000000000000002;0.01;0.14999999999999999;0;7.795191642815553;10;6;22;2;gut erklaert und uerbersichtlich
2019_03_04 10:35;21;0;0;practice;33;53;1;47;24;95;38;0.57999999999999996;0.28000000000000003;0.02;0.12;8;22;93;96;0.54000000000000004;0.34000000000000002;0.10000000000000001;0.0199999999999999;0;5.853795781124973;10;6;22;2;gut erklaert und uerbersichtlich
2019_03_04 10:35;21;0;0;practice;34;47;1;91;99;90;78;0.93000000000000005;0.040000000000000001;0.02;0.0099999999999999499;10;87;0;0;0.23000000000000001;0.77000000000000002;0.0;0.0;1;3.0320450239059937;10;6;22;2;gut erklaert und uerbersichtlich
2019_03_04 10:35;21;0;0;practice;35;55;1;53;11;80;74;0.31;0.37;0.28000000000000003;0.039999999999999897;6;93;98;96;0.69999999999999996;0.22;0.050000000000000003;0.029999999999999999;0;8.605768848372463;10;6;22;2;gut erklaert und uerbersichtlich
2019_03_04 10:35;21;0;0;practice;36;75;0;21;86;27;62;0.88;0.040000000000000001;0.070000000000000007;0.0099999999999999794;13;3;49;87;0.28999999999999998;0.39000000000000001;0.070000000000000007;0.25;0;10.406795343664271;10;6;22;2;gut erklaert und uerbersichtlich
2019_03_04 10:35;21;0;0;practice;37;11;0;10;44;0;0;0.48999999999999999;0.51000000000000001;0.0;0.0;88;12;54;50;0.17000000000000001;0.75;0.02;0.059999999999999998;1;5.5937344851872695;10;6;22;2;gut erklaert und uerbersichtlich
2019_03_04 10:35;21;0;0;practice;38;72;0;86;85;97;43;0.51000000000000001;0.14999999999999999;0.33000000000000002;0.0099999999999999499;72;29;10;90;0.01;0.11;0.65000000000000002;0.23000000000000001;0;3.282108205676195;10;6;22;2;gut erklaert und uerbersichtlich
2019_03_04 10:35;21;0;0;practice;39;6;1;42;59;0;0;0.35999999999999999;0.64000000000000001;0.0;0.0;77;19;6;7;0.44;0.14999999999999999;0.17999999999999999;0.23000000000000001;1;5.603582823282522;10;6;22;2;gut erklaert und uerbersichtlich
2019_03_04 10:35;21;0;0;practice;40;14;0;92;56;0;0;0.11;0.89000000000000001;0.0;0.0;97;31;51;4;0.58999999999999997;0.22;0.080000000000000002;0.11;1;3.3523025104650515;10;6;22;2;gut erklaert und uerbersichtlich
2019_03_04 10:35;21;0;0;practice;41;34;0;57;23;66;79;0.56000000000000005;0.23000000000000001;0.13;0.079999999999999905;85;9;0;0;0.56000000000000005;0.44;0.0;0.0;1;5.073283155675199;10;6;22;2;gut erklaert und uerbersichtlich
2019_03_04 10:35;21;0;0;practice;42;64;1;44;60;96;45;0.53000000000000003;0.10000000000000001;0.029999999999999999;0.34000000000000002;88;20;43;31;0.47999999999999998;0.38;0.050000000000000003;0.089999999999999997;0;12.398082353106474;10;6;22;2;gut erklaert und uerbersichtlich
2019_03_04 10:35;21;0;0;practice;43;9;0;57;44;0;0;0.14999999999999999;0.84999999999999998;0.0;0.0;38;35;64;95;0.34000000000000002;0.45000000000000001;0.089999999999999997;0.12;0;8.315425203689301;10;6;22;2;gut erklaert und uerbersichtlich
2019_03_04 10:35;21;0;0;practice;44;63;0;24;82;6;96;0.91000000000000003;0.070000000000000007;0.01;0.0099999999999999603;73;10;71;22;0.31;0.51000000000000001;0.050000000000000003;0.13;1;14.169262678367886;10;6;22;2;gut erklaert und uerbersichtlich
2019_03_04 10:35;21;0;0;practice;45;66;1;44;18;63;36;0.47999999999999998;0.10000000000000001;0.029999999999999999;0.39000000000000001;13;93;61;53;0.52000000000000002;0.45000000000000001;0.02;0.0099999999999999707;0;4.803077497412232;10;6;22;2;gut erklaert und uerbersichtlich
2019_03_04 10:35;21;0;0;practice;46;16;0;50;42;0;0;0.32000000000000001;0.68000000000000005;0.0;0.0;97;2;56;31;0.35999999999999999;0.16;0.16;0.32000000000000001;1;2.6917364659511804;10;6;22;2;gut erklaert und uerbersichtlich
2019_03_04 10:35;21;0;0;practice;47;41;1;19;54;51;8;0.76000000000000001;0.070000000000000007;0.16;0.0099999999999999794;2;77;0;0;0.54000000000000004;0.46000000000000002;0.0;0.0;0;5.313581386457372;10;6;22;2;gut erklaert und uerbersichtlich
2019_03_04 10:35;21;0;0;practice;48;73;0;99;88;95;28;0.83999999999999997;0.14000000000000001;0.01;0.01;90;93;10;74;0.080000000000000002;0.46000000000000002;0.34999999999999998;0.11;0;3.3521774298042146;10;6;22;2;gut erklaert und uerbersichtlich
2019_03_04 10:35;21;0;0;practice;49;62;1;65;52;74;55;0.16;0.12;0.14999999999999999;0.56999999999999995;72;86;2;68;0.12;0.53000000000000003;0.22;0.13;1;4.402838304701618;10;6;22;2;gut erklaert und uerbersichtlich
2019_03_04 10:35;21;0;0;practice;50;27;1;68;43;98;36;0.54000000000000004;0.44;0.01;0.0099999999999999603;97;13;0;0;0.27000000000000002;0.72999999999999998;0.0;0.0;0;3.1119869608219233;10;6;22;2;gut erklaert und uerbersichtlich
2019_03_04 10:35;21;0;0;practice;51;70;0;21;42;14;63;0.96999999999999997;0.01;0.01;0.01;70;2;6;76;0.23999999999999999;0.42999999999999999;0.01;0.32000000000000001;0;3.5623180717821015;10;6;22;2;gut erklaert und uerbersichtlich
2019_03_04 10:35;21;0;0;practice;52;17;1;27;61;0;0;0.68999999999999995;0.31;0.0;0.0;3;91;69;43;0.29999999999999999;0.33000000000000002;0.27000000000000002;0.099999999999999895;0;1.7911088817536438;10;6;22;2;gut erklaert und uerbersichtlich
2019_03_04 10:35;21;0;0;practice;53;65;1;35;15;77;1;0.62;0.33000000000000002;0.029999999999999999;0.02;68;3;25;96;0.38;0.28000000000000003;0.28000000000000003;0.059999999999999901;1;2.2415657148130776;10;6;22;2;gut erklaert und uerbersichtlich
2019_03_04 10:35;21;0;0;practice;54;38;1;51;89;10;60;0.57999999999999996;0.029999999999999999;0.080000000000000002;0.31;8;84;0;0;0.33000000000000002;0.67000000000000004;0.0;0.0;0;2.1113435972174557;10;6;22;2;gut erklaert und uerbersichtlich
2019_03_04 10:35;21;0;0;practice;55;21;1;59;69;0;0;0.34000000000000002;0.66000000000000003;0.0;0.0;64;18;5;24;0.14999999999999999;0.040000000000000001;0.51000000000000001;0.29999999999999999;0;2.481710962325451;10;6;22;2;gut erklaert und uerbersichtlich
2019_03_04 10:35;21;0;0;practice;56;29;0;66;40;92;49;0.46999999999999997;0.10000000000000001;0.34000000000000002;0.089999999999999997;8;94;0;0;0.44;0.56000000000000005;0.0;0.0;0;2.801912964386247;10;6;22;2;gut erklaert und uerbersichtlich
2019_03_04 10:35;21;0;0;practice;57;69;1;38;74;27;73;0.22;0.19;0.45000000000000001;0.14000000000000001;1;97;79;84;0.28000000000000003;0.45000000000000001;0.17000000000000001;0.10000000000000001;1;3.812459188425237;10;6;22;2;gut erklaert und uerbersichtlich
2019_03_04 10:35;21;0;0;practice;58;51;0;38;13;51;84;0.91000000000000003;0.070000000000000007;0.01;0.0099999999999999603;4;89;35;16;0.80000000000000004;0.089999999999999997;0.059999999999999998;0.050000000000000003;0;3.962551170819097;10;6;22;2;gut erklaert und uerbersichtlich
2019_03_04 10:35;21;0;0;practice;59;12;0;45;86;0;0;0.97999999999999998;0.02;0.0;0.0;6;23;95;81;0.14999999999999999;0.40999999999999998;0.050000000000000003;0.39000000000000001;0;4.382955290398968;10;6;22;2;gut erklaert und uerbersichtlich
2019_03_04 10:35;21;0;0;practice;60;15;1;24;59;0;0;0.56999999999999995;0.42999999999999999;0.0;0.0;9;8;80;22;0.31;0.10000000000000001;0.55000000000000004;0.039999999999999897;1;5.914004800531984;10;6;22;2;gut erklaert und uerbersichtlich
2019_03_04 10:35;21;0;0;practice;61;20;0;32;11;0;0;0.40999999999999998;0.58999999999999997;0.0;0.0;1;86;42;65;0.45000000000000001;0.38;0.050000000000000003;0.12;1;5.4336501615780435;10;6;22;2;gut erklaert und uerbersichtlich
2019_03_04 10:35;21;0;0;practice;62;26;0;24;46;74;59;0.29999999999999999;0.11;0.25;0.34000000000000002;91;6;0;0;0.28999999999999998;0.70999999999999996;0.0;0.0;0;4.012720382503176;10;6;22;2;gut erklaert und uerbersichtlich
2019_03_04 10:35;21;0;0;practice;63;68;0;39;58;40;8;0.48999999999999999;0.44;0.02;0.050000000000000003;92;83;51;2;0.57999999999999996;0.13;0.02;0.27000000000000002;1;2.961887601876697;10;6;22;2;gut erklaert und uerbersichtlich
2019_03_04 10:35;21;0;0;practice;64;50;1;17;12;21;14;0.55000000000000004;0.34000000000000002;0.059999999999999998;0.049999999999999899;13;93;0;0;0.28999999999999998;0.70999999999999996;0.0;0.0;1;3.2321994183430434;10;6;22;2;gut erklaert und uerbersichtlich
2019_03_04 10:35;21;0;0;practice;65;35;1;84;95;4;35;0.89000000000000001;0.050000000000000003;0.01;0.050000000000000003;5;98;0;0;0.19;0.81000000000000005;0.0;0.0;0;3.2320708097659008;10;6;22;2;gut erklaert und uerbersichtlich
2019_03_04 10:35;21;0;0;practice;66;58;0;44;50;85;42;0.38;0.57999999999999996;0.02;0.02;37;88;19;12;0.20000000000000001;0.29999999999999999;0.46000000000000002;0.040000000000000001;0;3.3722897586512772;10;6;22;2;gut erklaert und uerbersichtlich
2019_03_04 10:35;21;0;0;practice;67;43;1;11;17;21;44;0.16;0.46000000000000002;0.25;0.13;2;66;0;0;0.44;0.56000000000000005;0.0;0.0;1;2.7018805075585988;10;6;22;2;gut erklaert und uerbersichtlich
2019_03_04 10:35;21;0;0;practice;68;3;0;20;70;0;0;0.13;0.87;0.0;0.0;95;19;80;73;0.31;0.57999999999999996;0.029999999999999999;0.080000000000000002;0;4.042621395592505;10;6;22;2;gut erklaert und uerbersichtlich
2019_03_04 10:35;21;0;0;practice;69;33;1;54;82;55;71;0.56000000000000005;0.20999999999999999;0.02;0.20999999999999999;13;99;0;0;0.5;0.5;0.0;0.0;1;2.511606523181399;10;6;22;2;gut erklaert und uerbersichtlich
2019_03_04 10:35;21;0;0;practice;70;56;1;47;52;64;10;0.77000000000000002;0.040000000000000001;0.11;0.080000000000000002;1;5;12;99;0.14000000000000001;0.28999999999999998;0.27000000000000002;0.29999999999999999;0;7.13476928070304;10;6;22;2;gut erklaert und uerbersichtlich
2019_03_04 10:35;21;0;0;practice;71;7;0;13;31;0;0;0.51000000000000001;0.48999999999999999;0.0;0.0;8;79;42;18;0.85999999999999999;0.089999999999999997;0.02;0.029999999999999999;1;6.404176988493418;10;6;22;2;gut erklaert und uerbersichtlich
2019_03_04 10:35;21;0;0;practice;72;71;1;94;87;26;75;0.71999999999999997;0.23999999999999999;0.02;0.02;90;27;12;83;0.16;0.73999999999999999;0.02;0.080000000000000002;0;3.4922623178790673;10;6;22;2;gut erklaert und uerbersichtlich
2019_03_04 10:35;21;0;0;practice;73;42;0;23;45;91;22;0.72999999999999998;0.02;0.20000000000000001;0.050000000000000003;2;86;0;0;0.40999999999999998;0.58999999999999997;0.0;0.0;1;2.9720297191652207;10;6;22;2;gut erklaert und uerbersichtlich
2019_03_04 10:35;21;0;0;practice;74;30;0;54;78;85;25;0.20999999999999999;0.60999999999999999;0.089999999999999997;0.090000000000000094;87;20;0;0;0.58999999999999997;0.40999999999999998;0.0;0.0;1;2.6116585439076516;10;6;22;2;gut erklaert und uerbersichtlich
2019_03_04 10:35;21;0;0;practice;75;25;0;7;18;0;0;0.20999999999999999;0.79000000000000004;0.0;0.0;92;45;33;13;0.41999999999999998;0.17999999999999999;0.22;0.17999999999999999;1;4.232730850792905;10;6;22;2;gut erklaert und uerbersichtlich
2019_03_04 10:35;21;1;0;control;1;122;1;35;58;25;31;0.81999999999999995;0.070000000000000007;0.080000000000000002;0.029999999999999999;18;64;68;89;0.63;0.17000000000000001;0.11;0.089999999999999997;0;4.295953031250065;10;6;22;2;gut erklaert und uerbersichtlich
2019_03_04 10:35;21;1;0;control;2;75;0;67;80;36;81;0.81999999999999995;0.080000000000000002;0.059999999999999998;0.040000000000000001;3;97;0;0;0.32000000000000001;0.68000000000000005;0.0;0.0;1;2.60165497750495;10;6;22;2;gut erklaert und uerbersichtlich
2019_03_04 10:35;21;1;0;control;3;2;0;59;32;0;0;0.080000000000000002;0.92000000000000004;0.0;0.0;33;38;85;1;0.28999999999999998;0.050000000000000003;0.070000000000000007;0.58999999999999997;0;3.592452568772387;10;6;22;2;gut erklaert und uerbersichtlich
2019_03_04 10:35;21;1;0;control;4;148;1;37;63;55;10;0.72999999999999998;0.070000000000000007;0.029999999999999999;0.17000000000000001;80;14;23;70;0.46999999999999997;0.10000000000000001;0.23000000000000001;0.20000000000000001;1;4.8132529695431;10;6;22;2;gut erklaert und uerbersichtlich
2019_03_04 10:35;21;1;0;control;5;4;1;40;43;0;0;0.58999999999999997;0.40999999999999998;0.0;0.0;2;33;88;81;0.69999999999999996;0.14000000000000001;0.13;0.029999999999999999;0;4.522933058113267;10;6;22;2;gut erklaert und uerbersichtlich
2019_03_04 10:35;21;1;0;control;6;85;1;31;22;82;50;0.11;0.69999999999999996;0.01;0.17999999999999999;3;99;0;0;0.62;0.38;0.0;0.0;0;8.275398430012501;10;6;22;2;gut erklaert und uerbersichtlich
2019_03_04 10:35;21;1;0;control;7;38;1;40;70;0;0;0.53000000000000003;0.46999999999999997;0.0;0.0;97;90;6;96;0.56999999999999995;0.070000000000000007;0.27000000000000002;0.089999999999999997;1;4.352897766123533;10;6;22;2;gut erklaert und uerbersichtlich
2019_03_04 10:35;21;1;0;control;8;109;1;75;28;16;56;0.19;0.070000000000000007;0.059999999999999998;0.68000000000000005;3;50;98;44;0.5;0.02;0.34999999999999998;0.13;0;4.923202398469584;10;6;22;2;gut erklaert und uerbersichtlich
2019_03_04 10:35;21;1;0;control;9;45;1;97;87;0;0;0.71999999999999997;0.28000000000000003;0.0;0.0;96;11;14;4;0.25;0.029999999999999999;0.14000000000000001;0.57999999999999996;0;6.354258900290915;10;6;22;2;gut erklaert und uerbersichtlich
2019_03_04 10:35;21;1;0;control;10;81;1;67;38;52;65;0.27000000000000002;0.35999999999999999;0.01;0.35999999999999999;2;77;0;0;0.14000000000000001;0.85999999999999999;0.0;0.0;1;8.23545311912676;10;6;22;2;gut erklaert und uerbersichtlich
2019_03_04 10:35;21;1;0;control;11;124;0;37;65;15;41;0.17999999999999999;0.45000000000000001;0.02;0.34999999999999998;40;7;98;30;0.070000000000000007;0.45000000000000001;0.45000000000000001;0.029999999999999898;1;4.213081320389392;10;6;22;2;gut erklaert und uerbersichtlich
2019_03_04 10:35;21;1;0;control;12;44;0;79;74;0;0;0.71999999999999997;0.28000000000000003;0.0;0.0;3;67;15;36;0.41999999999999998;0.53000000000000003;0.02;0.029999999999999999;0;2.6717072034916782;10;6;22;2;gut erklaert und uerbersichtlich
2019_03_04 10:35;21;1;0;control;13;68;0;84;27;55;62;0.01;0.050000000000000003;0.40999999999999998;0.53000000000000003;9;82;0;0;0.37;0.63;0.0;0.0;1;2.361510692151569;10;6;22;2;gut erklaert und uerbersichtlich
2019_03_04 10:35;21;1;0;control;14;110;0;47;44;23;52;0.13;0.27000000000000002;0.040000000000000001;0.56000000000000005;99;2;30;22;0.28999999999999998;0.5;0.11;0.10000000000000001;0;7.3649051888587564;10;6;22;2;gut erklaert und uerbersichtlich
2019_03_04 10:35;21;1;0;control;15;41;1;99;40;0;0;0.89000000000000001;0.11;0.0;0.0;1;67;52;46;0.51000000000000001;0.38;0.029999999999999999;0.080000000000000002;0;2.2814741429410788;10;6;22;2;gut erklaert und uerbersichtlich
2019_03_04 10:35;21;1;0;control;16;143;1;88;44;56;73;0.95999999999999996;0.02;0.01;0.01;20;3;87;32;0.19;0.40000000000000002;0.28000000000000003;0.13;0;3.9225606384634375;10;6;22;2;gut erklaert und uerbersichtlich
2019_03_04 10:35;21;1;0;control;17;39;1;14;33;0;0;0.78000000000000003;0.22;0.0;0.0;93;84;1;25;0.14000000000000001;0.23999999999999999;0.39000000000000001;0.23000000000000001;1;6.074082389028263;10;6;22;2;gut erklaert und uerbersichtlich
2019_03_04 10:35;21;1;0;control;18;26;1;76;41;0;0;0.57999999999999996;0.41999999999999998;0.0;0.0;61;79;84;2;0.13;0.029999999999999999;0.67000000000000004;0.17000000000000001;0;5.393596768172756;10;6;22;2;gut erklaert und uerbersichtlich
2019_03_04 10:35;21;1;0;control;19;29;1;44;51;0;0;0.78000000000000003;0.22;0.0;0.0;74;1;68;82;0.69999999999999996;0.28000000000000003;0.01;0.01;1;4.452898471707158;10;6;22;2;gut erklaert und uerbersichtlich
2019_03_04 10:35;21;1;0;control;20;21;0;64;28;0;0;0.080000000000000002;0.92000000000000004;0.0;0.0;50;1;88;13;0.57999999999999996;0.13;0.02;0.27000000000000002;0;5.873801310332055;10;6;22;2;gut erklaert und uerbersichtlich
2019_03_04 10:35;21;1;0;control;21;1;0;22;51;0;0;0.26000000000000001;0.73999999999999999;0.0;0.0;14;11;92;31;0.29999999999999999;0.40999999999999998;0.14999999999999999;0.14000000000000001;0;6.274053331828327;10;6;22;2;gut erklaert und uerbersichtlich
2019_03_04 10:35;21;1;0;control;22;47;1;2;40;0;0;0.45000000000000001;0.55000000000000004;0.0;0.0;93;89;11;56;0.58999999999999997;0.070000000000000007;0.28000000000000003;0.059999999999999998;1;3.4121917723869046;10;6;22;2;gut erklaert und uerbersichtlich
2019_03_04 10:35;21;1;0;control;23;19;1;22;53;0;0;0.13;0.87;0.0;0.0;4;93;96;65;0.46999999999999997;0.059999999999999998;0.26000000000000001;0.20999999999999999;0;3.272241907280659;10;6;22;2;gut erklaert und uerbersichtlich
2019_03_04 10:35;21;1;0;control;24;11;1;17;36;0;0;0.14000000000000001;0.85999999999999999;0.0;0.0;19;41;34;95;0.88;0.02;0.050000000000000003;0.050000000000000003;0;4.553081346047293;10;6;22;2;gut erklaert und uerbersichtlich
2019_03_04 10:35;21;1;0;control;25;79;1;52;46;29;22;0.17999999999999999;0.51000000000000001;0.23999999999999999;0.070000000000000104;93;14;0;0;0.45000000000000001;0.55000000000000004;0.0;0.0;0;5.603633817705486;10;6;22;2;gut erklaert und uerbersichtlich
2019_03_04 10:35;21;1;0;control;26;99;0;8;24;15;73;0.56000000000000005;0.35999999999999999;0.070000000000000007;0.0099999999999999499;88;12;0;0;0.52000000000000002;0.47999999999999998;0.0;0.0;1;4.272753455113161;10;6;22;2;gut erklaert und uerbersichtlich
2019_03_04 10:35;21;1;0;control;27;147;1;39;43;76;28;0.14000000000000001;0.10000000000000001;0.10000000000000001;0.66000000000000003;6;31;68;85;0.27000000000000002;0.20000000000000001;0.22;0.31;0;4.963223719911184;10;6;22;2;gut erklaert und uerbersichtlich
2019_03_04 10:35;21;1;0;control;28;149;1;14;89;73;53;0.93999999999999995;0.01;0.01;0.040000000000000001;97;45;6;13;0.34000000000000002;0.01;0.40999999999999998;0.23999999999999999;1;13.00851478581717;10;6;22;2;gut erklaert und uerbersichtlich
2019_03_04 10:35;21;1;0;control;29;66;0;89;23;27;15;0.070000000000000007;0.54000000000000004;0.17000000000000001;0.22;9;73;0;0;0.72999999999999998;0.27000000000000002;0.0;0.0;0;3.5923348646629165;10;6;22;2;gut erklaert und uerbersichtlich
2019_03_04 10:35;21;1;0;control;30;140;0;36;32;26;27;0.39000000000000001;0.14999999999999999;0.19;0.27000000000000002;44;3;99;25;0.29999999999999999;0.34000000000000002;0.34000000000000002;0.0199999999999999;1;7.975190411252697;10;6;22;2;gut erklaert und uerbersichtlich
2019_03_04 10:35;21;1;0;control;31;150;1;25;21;78;38;0.84999999999999998;0.059999999999999998;0.050000000000000003;0.040000000000000001;31;43;64;95;0.059999999999999998;0.45000000000000001;0.13;0.35999999999999999;0;4.362829491326011;10;6;22;2;gut erklaert und uerbersichtlich
2019_03_04 10:35;21;1;0;control;32;55;1;74;55;47;48;0.60999999999999999;0.31;0.070000000000000007;0.01;97;6;0;0;0.42999999999999999;0.56999999999999995;0.0;0.0;0;3.8124684892954974;10;6;22;2;gut erklaert und uerbersichtlich
2019_03_04 10:35;21;1;0;control;33;128;0;70;49;27;54;0.27000000000000002;0.53000000000000003;0.02;0.17999999999999999;72;97;6;20;0.29999999999999999;0.39000000000000001;0.22;0.0899999999999999;1;3.932674853142089;10;6;22;2;gut erklaert und uerbersichtlich
2019_03_04 10:35;21;1;0;control;34;114;0;57;39;79;97;0.77000000000000002;0.02;0.13;0.080000000000000002;92;36;6;1;0.54000000000000004;0.12;0.13;0.20999999999999999;1;2.691712091259433;10;6;22;2;gut erklaert und uerbersichtlich
2019_03_04 10:35;21;1;0;control;35;133;1;59;88;60;36;0.67000000000000004;0.070000000000000007;0.12;0.14000000000000001;7;91;66;61;0.25;0.68999999999999995;0.01;0.0500000000000001;1;5.533735216428795;10;6;22;2;gut erklaert und uerbersichtlich
2019_03_04 10:35;21;1;0;control;36;61;1;43;18;39;70;0.75;0.089999999999999997;0.089999999999999997;0.070000000000000007;16;66;0;0;0.64000000000000001;0.35999999999999999;0.0;0.0;0;2.5916632777289124;10;6;22;2;gut erklaert und uerbersichtlich
2019_03_04 10:35;21;1;0;control;37;13;0;52;56;0;0;0.46999999999999997;0.53000000000000003;0.0;0.0;94;71;27;2;0.089999999999999997;0.31;0.57999999999999996;0.020000000000000101;0;4.843137625930467;10;6;22;2;gut erklaert und uerbersichtlich
2019_03_04 10:35;21;1;0;control;38;83;0;17;12;7;41;0.65000000000000002;0.19;0.089999999999999997;0.070000000000000007;6;84;0;0;0.72999999999999998;0.27000000000000002;0.0;0.0;1;3.9226744939369382;10;6;22;2;gut erklaert und uerbersichtlich
2019_03_04 10:35;21;1;0;control;39;28;1;47;30;0;0;0.97999999999999998;0.02;0.0;0.0;55;48;77;13;0.070000000000000007;0.26000000000000001;0.42999999999999999;0.23999999999999999;1;5.643789520678183;10;6;22;2;gut erklaert und uerbersichtlich
2019_03_04 10:35;21;1;0;control;40;60;0;64;59;57;96;0.83999999999999997;0.13;0.02;0.01;83;6;0;0;0.54000000000000004;0.46000000000000002;0.0;0.0;1;2.71188856403478;10;6;22;2;gut erklaert und uerbersichtlich
2019_03_04 10:35;21;1;0;control;41;16;1;64;53;0;0;0.65000000000000002;0.34999999999999998;0.0;0.0;29;17;81;46;0.10000000000000001;0.01;0.44;0.45000000000000001;0;3.2420795076823197;10;6;22;2;gut erklaert und uerbersichtlich
2019_03_04 10:35;21;1;0;control;42;65;1;75;64;59;52;0.59999999999999998;0.22;0.14000000000000001;0.040000000000000001;1;99;0;0;0.35999999999999999;0.64000000000000001;0.0;0.0;1;1.8413002230927304;10;6;22;2;gut erklaert und uerbersichtlich
2019_03_04 10:35;21;1;0;control;43;54;0;44;79;78;52;0.79000000000000004;0.19;0.01;0.0099999999999999603;96;1;0;0;0.28000000000000003;0.71999999999999997;0.0;0.0;0;4.843501322006887;10;6;22;2;gut erklaert und uerbersichtlich
2019_03_04 10:35;21;1;0;control;44;95;0;93;88;68;85;0.83999999999999997;0.14000000000000001;0.01;0.01;2;82;0;0;0.41999999999999998;0.57999999999999996;0.0;0.0;0;4.232730850792905;10;6;22;2;gut erklaert und uerbersichtlich
2019_03_04 10:35;21;1;0;control;45;134;0;57;48;50;55;0.02;0.62;0.17999999999999999;0.17999999999999999;80;96;15;18;0.23999999999999999;0.35999999999999999;0.33000000000000002;0.070000000000000007;1;7.76504816567649;10;6;22;2;gut erklaert und uerbersichtlich
2019_03_04 10:35;21;1;0;control;46;67;0;44;42;8;89;0.88;0.070000000000000007;0.029999999999999999;0.02;10;63;0;0;0.39000000000000001;0.60999999999999999;0.0;0.0;0;2.3916448684221905;10;6;22;2;gut erklaert und uerbersichtlich
2019_03_04 10:35;21;1;0;control;47;12;1;53;68;0;0;0.31;0.68999999999999995;0.0;0.0;69;54;97;29;0.25;0.20999999999999999;0.20000000000000001;0.34000000000000002;0;2.281459389837437;10;6;22;2;gut erklaert und uerbersichtlich
2019_03_04 10:35;21;1;0;control;48;136;1;29;67;14;75;0.46000000000000002;0.29999999999999999;0.20999999999999999;0.0300000000000001;70;86;1;85;0.31;0.39000000000000001;0.27000000000000002;0.029999999999999898;1;6.4041702533813805;10;6;22;2;gut erklaert und uerbersichtlich
2019_03_04 10:35;21;1;0;control;49;36;1;70;17;0;0;0.33000000000000002;0.67000000000000004;0.0;0.0;84;1;12;88;0.22;0.27000000000000002;0.14000000000000001;0.37;1;5.233376138715357;10;6;22;2;gut erklaert und uerbersichtlich
2019_03_04 10:35;21;1;0;control;50;48;0;13;32;0;0;0.90000000000000002;0.10000000000000001;0.0;0.0;24;99;84;94;0.62;0.14999999999999999;0.20000000000000001;0.029999999999999999;1;4.032589285141512;10;6;22;2;gut erklaert und uerbersichtlich
2019_03_04 10:35;21;1;0;control;51;6;0;9;51;0;0;0.14999999999999999;0.84999999999999998;0.0;0.0;6;40;50;73;0.42999999999999999;0.26000000000000001;0.059999999999999998;0.25;0;3.922550696154758;10;6;22;2;gut erklaert und uerbersichtlich
2019_03_04 10:35;21;1;0;control;52;50;0;15;20;0;0;0.82999999999999996;0.17000000000000001;0.0;0.0;97;18;88;87;0.56999999999999995;0.39000000000000001;0.01;0.029999999999999999;1;2.7619400716102973;10;6;22;2;gut erklaert und uerbersichtlich
2019_03_04 10:35;21;1;0;control;53;146;1;25;5;64;35;0.94999999999999996;0.02;0.01;0.02;47;97;12;79;0.20999999999999999;0.029999999999999999;0.02;0.73999999999999999;1;4.843124155705482;10;6;22;2;gut erklaert und uerbersichtlich
2019_03_04 10:35;21;1;0;control;54;71;0;68;55;36;51;0.20000000000000001;0.75;0.02;0.029999999999999999;38;81;0;0;0.52000000000000002;0.47999999999999998;0.0;0.0;1;2.161506394508251;10;6;22;2;gut erklaert und uerbersichtlich
2019_03_04 10:35;21;1;0;control;55;107;0;52;48;13;63;0.68000000000000005;0.19;0.050000000000000003;0.079999999999999905;54;91;33;3;0.19;0.17999999999999999;0.33000000000000002;0.29999999999999999;1;7.805084240221731;10;6;22;2;gut erklaert und uerbersichtlich
2019_03_04 10:35;21;1;0;control;56;141;1;93;28;60;91;0.81999999999999995;0.10000000000000001;0.01;0.070000000000000007;14;85;7;89;0.45000000000000001;0.070000000000000007;0.23999999999999999;0.23999999999999999;0;3.8624885663448367;10;6;22;2;gut erklaert und uerbersichtlich
2019_03_04 10:35;21;1;0;control;57;20;1;44;40;0;0;0.91000000000000003;0.089999999999999997;0.0;0.0;29;5;80;99;0.25;0.40000000000000002;0.26000000000000001;0.089999999999999997;0;3.2024420876541626;10;6;22;2;gut erklaert und uerbersichtlich
2019_03_04 10:35;21;1;0;control;58;108;1;48;72;39;70;0.14000000000000001;0.66000000000000003;0.02;0.17999999999999999;81;44;98;8;0.59999999999999998;0.029999999999999999;0.050000000000000003;0.32000000000000001;1;3.412454762494235;10;6;22;2;gut erklaert und uerbersichtlich
2019_03_04 10:35;21;1;0;control;59;31;1;10;59;0;0;0.23999999999999999;0.76000000000000001;0.0;0.0;1;79;53;73;0.23000000000000001;0.58999999999999997;0.050000000000000003;0.13;0;2.1113169774871494;10;6;22;2;gut erklaert und uerbersichtlich
2019_03_04 10:35;21;1;0;control;60;64;0;48;39;34;19;0.46000000000000002;0.5;0.02;0.02;13;92;0;0;0.68999999999999995;0.31;0.0;0.0;0;3.8226423578280446;10;6;22;2;gut erklaert und uerbersichtlich
2019_03_04 10:35;21;1;0;control;61;117;0;65;85;92;41;0.23000000000000001;0.17999999999999999;0.54000000000000004;0.050000000000000003;99;93;10;13;0.64000000000000001;0.16;0.01;0.19;1;2.091282583512111;10;6;22;2;gut erklaert und uerbersichtlich
2019_03_04 10:35;21;1;0;control;62;70;1;66;55;69;50;0.22;0.29999999999999999;0.29999999999999999;0.17999999999999999;2;90;0;0;0.34000000000000002;0.66000000000000003;0.0;0.0;0;3.7724298489929424;10;6;22;2;gut erklaert und uerbersichtlich
2019_03_04 10:35;21;1;0;control;63;3;0;53;40;0;0;0.31;0.68999999999999995;0.0;0.0;96;24;7;88;0.11;0.27000000000000002;0.58999999999999997;0.029999999999999999;1;2.5517580567984623;10;6;22;2;gut erklaert und uerbersichtlich
2019_03_04 10:35;21;1;0;control;64;40;1;45;49;0;0;0.68999999999999995;0.31;0.0;0.0;2;92;65;73;0.23999999999999999;0.59999999999999998;0.11;0.050000000000000003;1;4.432859908376486;10;6;22;2;gut erklaert und uerbersichtlich
2019_03_04 10:35;21;1;0;control;65;10;1;45;62;0;0;0.059999999999999998;0.93999999999999995;0.0;0.0;17;99;28;67;0.58999999999999997;0.34000000000000002;0.01;0.059999999999999998;0;5.7237179873691275;10;6;22;2;gut erklaert und uerbersichtlich
2019_03_04 10:35;21;1;0;control;66;49;0;21;30;0;0;0.53000000000000003;0.46999999999999997;0.0;0.0;93;99;89;25;0.44;0.02;0.11;0.42999999999999999;1;3.702523229723738;10;6;22;2;gut erklaert und uerbersichtlich
2019_03_04 10:35;21;1;0;control;67;112;0;70;44;98;64;0.02;0.75;0.12;0.11;33;2;63;85;0.23999999999999999;0.31;0.080000000000000002;0.37;0;8.215492811389595;10;6;22;2;gut erklaert und uerbersichtlich
2019_03_04 10:35;21;1;0;control;68;30;0;33;30;0;0;0.71999999999999997;0.28000000000000003;0.0;0.0;9;88;1;14;0.55000000000000004;0.39000000000000001;0.01;0.049999999999999899;0;3.5124176231593083;10;6;22;2;gut erklaert und uerbersichtlich
2019_03_04 10:35;21;1;0;control;69;98;0;27;10;31;79;0.23000000000000001;0.67000000000000004;0.070000000000000007;0.029999999999999999;25;99;0;0;0.38;0.62;0.0;0.0;1;5.273438512271241;10;6;22;2;gut erklaert und uerbersichtlich
2019_03_04 10:35;21;1;0;control;70;58;1;37;58;76;34;0.20999999999999999;0.57999999999999996;0.19;0.020000000000000101;86;5;0;0;0.47999999999999998;0.52000000000000002;0.0;0.0;0;3.362177789010275;10;6;22;2;gut erklaert und uerbersichtlich
2019_03_04 10:35;21;1;0;control;71;37;0;14;98;0;0;0.93000000000000005;0.070000000000000007;0.0;0.0;41;2;87;66;0.17999999999999999;0.48999999999999999;0.32000000000000001;0.010000000000000101;1;11.117421555182773;10;6;22;2;gut erklaert und uerbersichtlich
2019_03_04 10:35;21;1;0;control;72;77;0;24;17;99;41;0.17999999999999999;0.13;0.10000000000000001;0.58999999999999997;12;97;0;0;0.59999999999999998;0.40000000000000002;0.0;0.0;0;6.274088610988656;10;6;22;2;gut erklaert und uerbersichtlich
2019_03_04 10:35;21;1;0;control;73;144;1;99;93;90;71;0.65000000000000002;0.32000000000000001;0.01;0.02;97;14;48;73;0.23000000000000001;0.46000000000000002;0.13;0.17999999999999999;0;4.442847438796889;10;6;22;2;gut erklaert und uerbersichtlich
2019_03_04 10:35;21;1;0;control;74;135;0;48;60;41;51;0.14000000000000001;0.40000000000000002;0.089999999999999997;0.37;94;1;85;65;0.64000000000000001;0.29999999999999999;0.01;0.050000000000000003;1;3.17202182946221;10;6;22;2;gut erklaert und uerbersichtlich
2019_03_04 10:35;21;1;0;control;75;127;0;89;26;62;79;0.02;0.28999999999999998;0.53000000000000003;0.16;96;6;60;13;0.53000000000000003;0.25;0.17000000000000001;0.050000000000000003;0;8.775870529328131;10;6;22;2;gut erklaert und uerbersichtlich
2019_03_04 10:35;21;2;0;timed;1;53;1;26;70;50;80;0.29999999999999999;0.59999999999999998;0.040000000000000001;0.059999999999999998;89;1;0;0;0.40999999999999998;0.58999999999999997;0.0;0.0;NA;3.3222071412719743;10;6;22;2;gut erklaert und uerbersichtlich
2019_03_04 10:35;21;2;0;timed;2;143;1;88;44;56;73;0.95999999999999996;0.02;0.01;0.01;20;3;87;32;0.19;0.40000000000000002;0.28000000000000003;0.13;0;2.0316399549965354;10;6;22;2;gut erklaert und uerbersichtlich
2019_03_04 10:35;21;2;0;timed;3;89;0;26;41;13;56;0.059999999999999998;0.40999999999999998;0.050000000000000003;0.47999999999999998;5;97;0;0;0.37;0.63;0.0;0.0;1;1.3509397726993484;10;6;22;2;gut erklaert und uerbersichtlich
2019_03_04 10:35;21;2;0;timed;4;107;1;52;48;13;63;0.68000000000000005;0.19;0.050000000000000003;0.079999999999999905;54;91;33;3;0.19;0.17999999999999999;0.33000000000000002;0.29999999999999999;0;2.091454809960851;10;6;22;2;gut erklaert und uerbersichtlich
2019_03_04 10:35;21;2;0;timed;5;104;0;55;85;93;3;0.87;0.02;0.089999999999999997;0.02;1;2;90;8;0.35999999999999999;0.070000000000000007;0.40000000000000002;0.17000000000000001;0;1.0407641081365;10;6;22;2;gut erklaert und uerbersichtlich
2019_03_04 10:35;21;2;0;timed;6;18;0;68;50;0;0;0.029999999999999999;0.96999999999999997;0.0;0.0;34;64;15;89;0.65000000000000002;0.029999999999999999;0.050000000000000003;0.27000000000000002;0;1.3508204649924664;10;6;22;2;gut erklaert und uerbersichtlich
2019_03_04 10:35;21;2;0;timed;7;68;1;84;27;55;62;0.01;0.050000000000000003;0.40999999999999998;0.53000000000000003;9;82;0;0;0.37;0.63;0.0;0.0;1;1.8411392218322362;10;6;22;2;gut erklaert und uerbersichtlich
2019_03_04 10:35;21;2;0;timed;8;71;1;68;55;36;51;0.20000000000000001;0.75;0.02;0.029999999999999999;38;81;0;0;0.52000000000000002;0.47999999999999998;0.0;0.0;0;1.6711821854351;10;6;22;2;gut erklaert und uerbersichtlich
2019_03_04 10:35;21;2;0;timed;9;25;1;50;53;0;0;0.82999999999999996;0.17000000000000001;0.0;0.0;83;16;97;4;0.45000000000000001;0.29999999999999999;0.11;0.14000000000000001;0;1.6610673293162108;10;6;22;2;gut erklaert und uerbersichtlich
2019_03_04 10:35;21;2;0;timed;10;149;0;14;89;73;53;0.93999999999999995;0.01;0.01;0.040000000000000001;97;45;6;13;0.34000000000000002;0.01;0.40999999999999998;0.23999999999999999;1;1.7212029039237677;10;6;22;2;gut erklaert und uerbersichtlich
2019_03_04 10:35;21;2;0;timed;11;77;1;24;17;99;41;0.17999999999999999;0.13;0.10000000000000001;0.58999999999999997;12;97;0;0;0.59999999999999998;0.40000000000000002;0.0;0.0;0;2.4315654838956107;10;6;22;2;gut erklaert und uerbersichtlich
2019_03_04 10:35;21;2;0;timed;12;39;1;14;33;0;0;0.78000000000000003;0.22;0.0;0.0;93;84;1;25;0.14000000000000001;0.23999999999999999;0.39000000000000001;0.23000000000000001;1;1.1202875059170765;10;6;22;2;gut erklaert und uerbersichtlich
2019_03_04 10:35;21;2;0;timed;13;129;1;12;29;81;36;0.17999999999999999;0.79000000000000004;0.01;0.02;5;19;95;92;0.47999999999999998;0.26000000000000001;0.13;0.13;0;1.310469764476693;10;6;22;2;gut erklaert und uerbersichtlich
2019_03_04 10:35;21;2;0;timed;14;88;1;77;13;12;7;0.12;0.19;0.66000000000000003;0.029999999999999898;94;2;0;0;0.40999999999999998;0.58999999999999997;0.0;0.0;1;1.3608387844979006;10;6;22;2;gut erklaert und uerbersichtlich
2019_03_04 10:35;21;2;0;timed;15;34;1;32;48;0;0;0.28000000000000003;0.71999999999999997;0.0;0.0;97;83;7;62;0.040000000000000001;0.54000000000000004;0.35999999999999999;0.059999999999999901;1;1.7912400560871902;10;6;22;2;gut erklaert und uerbersichtlich
2019_03_04 10:35;21;2;0;timed;16;136;0;29;67;14;75;0.46000000000000002;0.29999999999999999;0.20999999999999999;0.0300000000000001;70;86;1;85;0.31;0.39000000000000001;0.27000000000000002;0.029999999999999898;1;1.280915770041247;10;6;22;2;gut erklaert und uerbersichtlich
2019_03_04 10:35;21;2;0;timed;17;21;0;64;28;0;0;0.080000000000000002;0.92000000000000004;0.0;0.0;50;1;88;13;0.57999999999999996;0.13;0.02;0.27000000000000002;0;1.1308869694175883;10;6;22;2;gut erklaert und uerbersichtlich
2019_03_04 10:35;21;2;0;timed;18;131;0;83;41;81;88;0.23999999999999999;0.58999999999999997;0.10000000000000001;0.070000000000000007;82;97;4;17;0.26000000000000001;0.46999999999999997;0.11;0.16;1;1.3808667640796557;10;6;22;2;gut erklaert und uerbersichtlich
2019_03_04 10:35;21;2;0;timed;19;127;1;89;26;62;79;0.02;0.28999999999999998;0.53000000000000003;0.16;96;6;60;13;0.53000000000000003;0.25;0.17000000000000001;0.050000000000000003;1;0.9303339204643635;10;6;22;2;gut erklaert und uerbersichtlich
2019_03_04 10:35;21;2;0;timed;20;91;1;74;81;86;48;0.93000000000000005;0.02;0.01;0.039999999999999897;7;64;0;0;0.13;0.87;0.0;0.0;1;1.3908405035554097;10;6;22;2;gut erklaert und uerbersichtlich
2019_03_04 10:35;21;2;0;timed;21;5;1;70;5;0;0;0.98999999999999999;0.01;0.0;0.0;92;87;47;1;0.44;0.02;0.16;0.38;0;1.210901709691825;10;6;22;2;gut erklaert und uerbersichtlich
2019_03_04 10:35;21;2;0;timed;22;2;1;59;32;0;0;0.080000000000000002;0.92000000000000004;0.0;0.0;33;38;85;1;0.28999999999999998;0.050000000000000003;0.070000000000000007;0.58999999999999997;1;1.9513625453337227;10;6;22;2;gut erklaert und uerbersichtlich
2019_03_04 10:35;21;2;0;timed;23;79;0;52;46;29;22;0.17999999999999999;0.51000000000000001;0.23999999999999999;0.070000000000000104;93;14;0;0;0.45000000000000001;0.55000000000000004;0.0;0.0;1;1.3708702535095654;10;6;22;2;gut erklaert und uerbersichtlich
2019_03_04 10:35;21;2;0;timed;24;135;1;48;60;41;51;0.14000000000000001;0.40000000000000002;0.089999999999999997;0.37;94;1;85;65;0.64000000000000001;0.29999999999999999;0.01;0.050000000000000003;1;1.921173846723832;10;6;22;2;gut erklaert und uerbersichtlich
2019_03_04 10:35;21;2;0;timed;25;31;0;10;59;0;0;0.23999999999999999;0.76000000000000001;0.0;0.0;1;79;53;73;0.23000000000000001;0.58999999999999997;0.050000000000000003;0.13;1;1.2307253908611528;10;6;22;2;gut erklaert und uerbersichtlich
2019_03_04 10:35;21;2;0;timed;26;86;1;56;30;57;88;0.20000000000000001;0.35999999999999999;0.080000000000000002;0.35999999999999999;98;2;0;0;0.77000000000000002;0.23000000000000001;0.0;0.0;1;1.0707892397276737;10;6;22;2;gut erklaert und uerbersichtlich
2019_03_04 10:35;21;2;0;timed;27;41;0;99;40;0;0;0.89000000000000001;0.11;0.0;0.0;1;67;52;46;0.51000000000000001;0.38;0.029999999999999999;0.080000000000000002;0;1.2107666867223088;10;6;22;2;gut erklaert und uerbersichtlich
2019_03_04 10:35;21;2;0;timed;28;94;0;84;86;93;39;0.78000000000000003;0.20000000000000001;0.01;0.0099999999999999603;9;83;0;0;0.46999999999999997;0.53000000000000003;0.0;0.0;0;1.2809388618552475;10;6;22;2;gut erklaert und uerbersichtlich
2019_03_04 10:35;21;2;0;timed;29;112;0;70;44;98;64;0.02;0.75;0.12;0.11;33;2;63;85;0.23999999999999999;0.31;0.080000000000000002;0.37;1;1.2507601055549458;10;6;22;2;gut erklaert und uerbersichtlich
2019_03_04 10:35;21;2;0;timed;30;11;1;17;36;0;0;0.14000000000000001;0.85999999999999999;0.0;0.0;19;41;34;95;0.88;0.02;0.050000000000000003;0.050000000000000003;1;0.7905966924827226;10;6;22;2;gut erklaert und uerbersichtlich
2019_03_04 10:35;21;2;0;timed;31;63;1;56;78;42;36;0.93000000000000005;0.040000000000000001;0.01;0.0199999999999999;2;72;0;0;0.32000000000000001;0.68000000000000005;0.0;0.0;0;1.0306434790636558;10;6;22;2;gut erklaert und uerbersichtlich
2019_03_04 10:35;21;2;0;timed;32;16;0;64;53;0;0;0.65000000000000002;0.34999999999999998;0.0;0.0;29;17;81;46;0.10000000000000001;0.01;0.44;0.45000000000000001;0;0.9101491089768388;10;6;22;2;gut erklaert und uerbersichtlich
2019_03_04 10:35;21;2;0;timed;33;96;1;51;54;39;7;0.17000000000000001;0.26000000000000001;0.10000000000000001;0.46999999999999997;24;96;0;0;0.28000000000000003;0.71999999999999997;0.0;0.0;1;1.5611054308092207;10;6;22;2;gut erklaert und uerbersichtlich
2019_03_04 10:35;21;2;0;timed;34;50;0;15;20;0;0;0.82999999999999996;0.17000000000000001;0.0;0.0;97;18;88;87;0.56999999999999995;0.39000000000000001;0.01;0.029999999999999999;1;0.6101405778344997;10;6;22;2;gut erklaert und uerbersichtlich
2019_03_04 10:35;21;2;0;timed;35;47;1;2;40;0;0;0.45000000000000001;0.55000000000000004;0.0;0.0;93;89;11;56;0.58999999999999997;0.070000000000000007;0.28000000000000003;0.059999999999999998;1;0.8706720487698476;10;6;22;2;gut erklaert und uerbersichtlich
2019_03_04 10:35;21;2;0;timed;36;45;1;97;87;0;0;0.71999999999999997;0.28000000000000003;0.0;0.0;96;11;14;4;0.25;0.029999999999999999;0.14000000000000001;0.57999999999999996;0;1.4308833132135987;10;6;22;2;gut erklaert und uerbersichtlich
2019_03_04 10:35;21;2;0;timed;37;82;0;78;66;30;27;0.28999999999999998;0.58999999999999997;0.080000000000000002;0.040000000000000001;90;6;0;0;0.82999999999999996;0.17000000000000001;0.0;0.0;1;1.2708070075959768;10;6;22;2;gut erklaert und uerbersichtlich
2019_03_04 10:35;21;2;0;timed;38;101;1;30;96;61;45;0.65000000000000002;0.14000000000000001;0.11;0.10000000000000001;3;98;63;89;0.75;0.19;0.040000000000000001;0.02;1;1.691027996259436;10;6;22;2;gut erklaert und uerbersichtlich
2019_03_04 10:35;21;2;0;timed;39;140;0;36;32;26;27;0.39000000000000001;0.14999999999999999;0.19;0.27000000000000002;44;3;99;25;0.29999999999999999;0.34000000000000002;0.34000000000000002;0.0199999999999999;1;1.290459103755893;10;6;22;2;gut erklaert und uerbersichtlich
2019_03_04 10:35;21;2;0;timed;40;38;0;40;70;0;0;0.53000000000000003;0.46999999999999997;0.0;0.0;97;90;6;96;0.56999999999999995;0.070000000000000007;0.27000000000000002;0.089999999999999997;1;1.6810728585223842;10;6;22;2;gut erklaert und uerbersichtlich
2019_03_04 10:35;21;2;0;timed;41;100;1;27;14;59;52;0.02;0.95999999999999996;0.01;0.01;17;98;0;0;0.48999999999999999;0.51000000000000001;0.0;0.0;1;1.5110766943298586;10;6;22;2;gut erklaert und uerbersichtlich
2019_03_04 10:35;21;2;0;timed;42;80;0;47;39;45;10;0.13;0.76000000000000001;0.059999999999999998;0.050000000000000003;2;87;0;0;0.48999999999999999;0.51000000000000001;0.0;0.0;0;1.3309762577664515;10;6;22;2;gut erklaert und uerbersichtlich
2019_03_04 10:35;21;2;0;timed;43;26;1;76;41;0;0;0.57999999999999996;0.41999999999999998;0.0;0.0;61;79;84;2;0.13;0.029999999999999999;0.67000000000000004;0.17000000000000001;0;1.1303212199663903;10;6;22;2;gut erklaert und uerbersichtlich
2019_03_04 10:35;21;2;0;timed;44;14;1;36;40;0;0;0.54000000000000004;0.46000000000000002;0.0;0.0;99;70;1;11;0.16;0.089999999999999997;0.080000000000000002;0.67000000000000004;1;1.9512300881206102;10;6;22;2;gut erklaert und uerbersichtlich
2019_03_04 10:35;21;2;0;timed;45;83;1;17;12;7;41;0.65000000000000002;0.19;0.089999999999999997;0.070000000000000007;6;84;0;0;0.72999999999999998;0.27000000000000002;0.0;0.0;0;2.1513366953304285;10;6;22;2;gut erklaert und uerbersichtlich
2019_03_04 10:35;21;2;0;timed;46;120;0;64;40;48;51;0.19;0.02;0.070000000000000007;0.71999999999999997;97;9;79;94;0.23000000000000001;0.54000000000000004;0.01;0.22;0;1.8012509990412582;10;6;22;2;gut erklaert und uerbersichtlich
2019_03_04 10:35;21;2;0;timed;47;27;0;44;26;0;0;0.35999999999999999;0.64000000000000001;0.0;0.0;63;10;3;5;0.58999999999999997;0.19;0.14999999999999999;0.070000000000000007;1;1.3908857250253277;10;6;22;2;gut erklaert und uerbersichtlich
2019_03_04 10:35;21;2;0;timed;48;48;1;13;32;0;0;0.90000000000000002;0.10000000000000001;0.0;0.0;24;99;84;94;0.62;0.14999999999999999;0.20000000000000001;0.029999999999999999;1;1.1508466357145153;10;6;22;2;gut erklaert und uerbersichtlich
2019_03_04 10:35;21;2;0;timed;49;116;0;53;65;43;99;0.56999999999999995;0.37;0.050000000000000003;0.010000000000000101;57;72;11;87;0.67000000000000004;0.13;0.14999999999999999;0.050000000000000003;1;1.050638745242395;10;6;22;2;gut erklaert und uerbersichtlich
2019_03_04 10:35;21;2;0;timed;50;81;1;67;38;52;65;0.27000000000000002;0.35999999999999999;0.01;0.35999999999999999;2;77;0;0;0.14000000000000001;0.85999999999999999;0.0;0.0;0;1.270777180669029;10;6;22;2;gut erklaert und uerbersichtlich
2019_03_04 10:35;21;2;0;timed;51;43;0;60;83;0;0;0.23000000000000001;0.77000000000000002;0.0;0.0;72;5;70;12;0.29999999999999999;0.40999999999999998;0.12;0.17000000000000001;1;1.5110651484228583;10;6;22;2;gut erklaert und uerbersichtlich
2019_03_04 10:35;21;2;0;timed;52;52;1;71;51;10;54;0.22;0.12;0.19;0.46999999999999997;91;1;0;0;0.29999999999999999;0.69999999999999996;0.0;0.0;0;1.9913543605689483;10;6;22;2;gut erklaert und uerbersichtlich
2019_03_04 10:35;21;2;0;timed;53;28;1;47;30;0;0;0.97999999999999998;0.02;0.0;0.0;55;48;77;13;0.070000000000000007;0.26000000000000001;0.42999999999999999;0.23999999999999999;1;2.871808358467206;10;6;22;2;gut erklaert und uerbersichtlich
2019_03_04 10:35;21;2;0;timed;54;117;0;65;85;92;41;0.23000000000000001;0.17999999999999999;0.54000000000000004;0.050000000000000003;99;93;10;13;0.64000000000000001;0.16;0.01;0.19;1;1.5010612613004923;10;6;22;2;gut erklaert und uerbersichtlich
2019_03_04 10:35;21;2;0;timed;55;148;0;37;63;55;10;0.72999999999999998;0.070000000000000007;0.029999999999999999;0.17000000000000001;80;14;23;70;0.46999999999999997;0.10000000000000001;0.23000000000000001;0.20000000000000001;1;1.4509141792723312;10;6;22;2;gut erklaert und uerbersichtlich
2019_03_04 10:35;21;2;0;timed;56;44;1;79;74;0;0;0.71999999999999997;0.28000000000000003;0.0;0.0;3;67;15;36;0.41999999999999998;0.53000000000000003;0.02;0.029999999999999999;0;1.5511085995203757;10;6;22;2;gut erklaert und uerbersichtlich
2019_03_04 10:35;21;2;0;timed;57;75;1;67;80;36;81;0.81999999999999995;0.080000000000000002;0.059999999999999998;0.040000000000000001;3;97;0;0;0.32000000000000001;0.68000000000000005;0.0;0.0;0;1.510935256967059;10;6;22;2;gut erklaert und uerbersichtlich
2019_03_04 10:35;21;2;0;timed;58;15;0;77;81;0;0;0.28000000000000003;0.71999999999999997;0.0;0.0;98;14;87;18;0.55000000000000004;0.23000000000000001;0.16;0.059999999999999901;1;1.2709648016598294;10;6;22;2;gut erklaert und uerbersichtlich
2019_03_04 10:35;21;2;0;timed;59;65;0;75;64;59;52;0.59999999999999998;0.22;0.14000000000000001;0.040000000000000001;1;99;0;0;0.35999999999999999;0.64000000000000001;0.0;0.0;0;1.6011774259550293;10;6;22;2;gut erklaert und uerbersichtlich
2019_03_04 10:35;21;2;0;timed;60;36;1;70;17;0;0;0.33000000000000002;0.67000000000000004;0.0;0.0;84;1;12;88;0.22;0.27000000000000002;0.14000000000000001;0.37;1;1.8312687540810657;10;6;22;2;gut erklaert und uerbersichtlich
2019_03_04 10:35;21;2;0;timed;61;102;1;40;56;53;17;0.28000000000000003;0.26000000000000001;0.14999999999999999;0.31;1;76;29;62;0.68000000000000005;0.23000000000000001;0.050000000000000003;0.039999999999999897;0;2.0014846112298983;10;6;22;2;gut erklaert und uerbersichtlich
2019_03_04 10:35;21;2;0;timed;62;57;0;52;35;23;47;0.22;0.68000000000000005;0.040000000000000001;0.059999999999999998;71;7;0;0;0.28999999999999998;0.70999999999999996;0.0;0.0;0;1.991207150252194;10;6;22;2;gut erklaert und uerbersichtlich
2019_03_04 10:35;21;2;0;timed;63;95;0;93;88;68;85;0.83999999999999997;0.14000000000000001;0.01;0.01;2;82;0;0;0.41999999999999998;0.57999999999999996;0.0;0.0;0;1.7511905113169632;10;6;22;2;gut erklaert und uerbersichtlich
2019_03_04 10:35;21;2;0;timed;64;32;1;19;81;0;0;0.93000000000000005;0.070000000000000007;0.0;0.0;1;65;41;68;0.45000000000000001;0.050000000000000003;0.059999999999999998;0.44;0;2.811807165389837;10;6;22;2;gut erklaert und uerbersichtlich
2019_03_04 10:35;21;2;0;timed;65;97;1;17;33;32;74;0.94999999999999996;0.01;0.029999999999999999;0.01;76;23;0;0;0.33000000000000002;0.67000000000000004;0.0;0.0;0;2.031283956192965;10;6;22;2;gut erklaert und uerbersichtlich
2019_03_04 10:35;21;2;0;timed;66;147;1;39;43;76;28;0.14000000000000001;0.10000000000000001;0.10000000000000001;0.66000000000000003;6;31;68;85;0.27000000000000002;0.20000000000000001;0.22;0.31;1;2.4917363376634967;10;6;22;2;gut erklaert und uerbersichtlich
2019_03_04 10:35;21;2;0;timed;67;125;1;37;41;10;35;0.91000000000000003;0.040000000000000001;0.029999999999999999;0.02;7;13;91;93;0.26000000000000001;0.39000000000000001;0.16;0.19;0;1.9612573877766408;10;6;22;2;gut erklaert und uerbersichtlich
2019_03_04 10:35;21;2;0;timed;68;93;0;87;81;73;98;0.80000000000000004;0.040000000000000001;0.14999999999999999;0.0099999999999999499;5;71;0;0;0.51000000000000001;0.48999999999999999;0.0;0.0;0;2.5215786590588323;10;6;22;2;gut erklaert und uerbersichtlich
2019_03_04 10:35;21;2;0;timed;69;72;1;63;82;51;61;0.01;0.96999999999999997;0.01;0.01;92;12;0;0;0.89000000000000001;0.11;0.0;0.0;0;1.5109339740884025;10;6;22;2;gut erklaert und uerbersichtlich
2019_03_04 10:35;21;2;0;timed;70;98;1;27;10;31;79;0.23000000000000001;0.67000000000000004;0.070000000000000007;0.029999999999999999;25;99;0;0;0.38;0.62;0.0;0.0;1;1.2707887265760291;10;6;22;2;gut erklaert und uerbersichtlich
2019_03_04 10:35;21;2;0;timed;71;142;0;98;65;64;84;0.88;0.070000000000000007;0.01;0.040000000000000001;5;68;60;16;0.46000000000000002;0.080000000000000002;0.27000000000000002;0.19;0;2.211410691767014;10;6;22;2;gut erklaert und uerbersichtlich
2019_03_04 10:35;21;2;0;timed;72;4;0;40;43;0;0;0.58999999999999997;0.40999999999999998;0.0;0.0;2;33;88;81;0.69999999999999996;0.14000000000000001;0.13;0.029999999999999999;1;1.7512302805535;10;6;22;2;gut erklaert und uerbersichtlich
2019_03_04 10:35;21;2;0;timed;73;128;1;70;49;27;54;0.27000000000000002;0.53000000000000003;0.02;0.17999999999999999;72;97;6;20;0.29999999999999999;0.39000000000000001;0.22;0.0899999999999999;0;2.661704919967633;10;6;22;2;gut erklaert und uerbersichtlich
2019_03_04 10:35;21;2;0;timed;74;24;1;35;27;0;0;0.070000000000000007;0.93000000000000005;0.0;0.0;62;3;81;95;0.35999999999999999;0.55000000000000004;0.01;0.080000000000000002;1;1.6711959763797495;10;6;22;2;gut erklaert und uerbersichtlich
2019_03_04 10:35;21;2;0;timed;75;115;0;50;28;61;79;0.83999999999999997;0.040000000000000001;0.059999999999999998;0.059999999999999998;1;26;97;55;0.45000000000000001;0.080000000000000002;0.40999999999999998;0.060000000000000102;1;1.6910539745504138;10;6;22;2;gut erklaert und uerbersichtlich
2019_03_04 10:35;21;3;0;control;1;80;1;47;39;45;10;0.13;0.76000000000000001;0.059999999999999998;0.050000000000000003;2;87;0;0;0.48999999999999999;0.51000000000000001;0.0;0.0;0;5.843772650824576;10;6;22;2;gut erklaert und uerbersichtlich
2019_03_04 10:35;21;3;0;control;2;33;1;27;70;0;0;0.88;0.12;0.0;0.0;93;3;77;16;0.080000000000000002;0.40000000000000002;0.5;0.02;1;3.762553287568153;10;6;22;2;gut erklaert und uerbersichtlich
2019_03_04 10:35;21;3;0;control;3;63;0;56;78;42;36;0.93000000000000005;0.040000000000000001;0.01;0.0199999999999999;2;72;0;0;0.32000000000000001;0.68000000000000005;0.0;0.0;1;2.3114675232873196;10;6;22;2;gut erklaert und uerbersichtlich
2019_03_04 10:35;21;3;0;control;4;43;1;60;83;0;0;0.23000000000000001;0.77000000000000002;0.0;0.0;72;5;70;12;0.29999999999999999;0.40999999999999998;0.12;0.17000000000000001;0;3.792446924106116;10;6;22;2;gut erklaert und uerbersichtlich
2019_03_04 10:35;21;3;0;control;5;23;0;54;40;0;0;0.93000000000000005;0.070000000000000007;0.0;0.0;36;23;71;86;0.02;0.41999999999999998;0.19;0.37;0;1.8612958099902244;10;6;22;2;gut erklaert und uerbersichtlich
2019_03_04 10:35;21;3;0;control;6;35;0;33;37;0;0;0.88;0.12;0.0;0.0;63;4;79;98;0.16;0.46000000000000002;0.17000000000000001;0.20999999999999999;1;3.1520239975261575;10;6;22;2;gut erklaert und uerbersichtlich
2019_03_04 10:35;21;3;0;control;7;82;1;78;66;30;27;0.28999999999999998;0.58999999999999997;0.080000000000000002;0.040000000000000001;90;6;0;0;0.82999999999999996;0.17000000000000001;0.0;0.0;1;2.161503828750938;10;6;22;2;gut erklaert und uerbersichtlich
2019_03_04 10:35;21;3;0;control;8;27;1;44;26;0;0;0.35999999999999999;0.64000000000000001;0.0;0.0;63;10;3;5;0.58999999999999997;0.19;0.14999999999999999;0.070000000000000007;1;3.0721057938644662;10;6;22;2;gut erklaert und uerbersichtlich
2019_03_04 10:35;21;3;0;control;9;62;1;12;45;16;50;0.20999999999999999;0.76000000000000001;0.02;0.01;92;15;0;0;0.20999999999999999;0.79000000000000004;0.0;0.0;0;4.7932307629153;10;6;22;2;gut erklaert und uerbersichtlich
2019_03_04 10:35;21;3;0;control;10;72;0;63;82;51;61;0.01;0.96999999999999997;0.01;0.01;92;12;0;0;0.89000000000000001;0.11;0.0;0.0;1;2.5015728091320852;10;6;22;2;gut erklaert und uerbersichtlich
2019_03_04 10:35;21;3;0;control;11;53;1;26;70;50;80;0.29999999999999999;0.59999999999999998;0.040000000000000001;0.059999999999999998;89;1;0;0;0.40999999999999998;0.58999999999999997;0.0;0.0;0;2.6718986731184486;10;6;22;2;gut erklaert und uerbersichtlich
2019_03_04 10:35;21;3;0;control;12;102;0;40;56;53;17;0.28000000000000003;0.26000000000000001;0.14999999999999999;0.31;1;76;29;62;0.68000000000000005;0.23000000000000001;0.050000000000000003;0.039999999999999897;0;3.6823990342491015;10;6;22;2;gut erklaert und uerbersichtlich
2019_03_04 10:35;21;3;0;control;13;34;0;32;48;0;0;0.28000000000000003;0.71999999999999997;0.0;0.0;97;83;7;62;0.040000000000000001;0.54000000000000004;0.35999999999999999;0.059999999999999901;1;7.7151419440997415;10;6;22;2;gut erklaert und uerbersichtlich
2019_03_04 10:35;21;3;0;control;14;74;0;66;47;52;44;0.41999999999999998;0.26000000000000001;0.17999999999999999;0.14000000000000001;17;99;0;0;0.47999999999999998;0.52000000000000002;0.0;0.0;1;2.9118665626674556;10;6;22;2;gut erklaert und uerbersichtlich
2019_03_04 10:35;21;3;0;control;15;125;1;37;41;10;35;0.91000000000000003;0.040000000000000001;0.029999999999999999;0.02;7;13;91;93;0.26000000000000001;0.39000000000000001;0.16;0.19;1;6.654458901060934;10;6;22;2;gut erklaert und uerbersichtlich
2019_03_04 10:35;21;3;0;control;16;120;1;64;40;48;51;0.19;0.02;0.070000000000000007;0.71999999999999997;97;9;79;94;0.23000000000000001;0.54000000000000004;0.01;0.22;0;6.05392772518735;10;6;22;2;gut erklaert und uerbersichtlich
2019_03_04 10:35;21;3;0;control;17;76;1;39;62;9;28;0.01;0.51000000000000001;0.26000000000000001;0.22;77;7;0;0;0.57999999999999996;0.41999999999999998;0.0;0.0;0;5.9038553066911845;10;6;22;2;gut erklaert und uerbersichtlich
2019_03_04 10:35;21;3;0;control;18;46;1;5;19;0;0;0.32000000000000001;0.68000000000000005;0.0;0.0;88;38;97;66;0.60999999999999999;0.20000000000000001;0.040000000000000001;0.14999999999999999;1;1.871335296993493;10;6;22;2;gut erklaert und uerbersichtlich
2019_03_04 10:35;21;3;0;control;19;129;1;12;29;81;36;0.17999999999999999;0.79000000000000004;0.01;0.02;5;19;95;92;0.47999999999999998;0.26000000000000001;0.13;0.13;0;5.243602605270098;10;6;22;2;gut erklaert und uerbersichtlich
2019_03_04 10:35;21;3;0;control;20;5;1;70;5;0;0;0.98999999999999999;0.01;0.0;0.0;92;87;47;1;0.44;0.02;0.16;0.38;0;2.601655618944278;10;6;22;2;gut erklaert und uerbersichtlich
2019_03_04 10:35;21;3;0;control;21;97;0;17;33;32;74;0.94999999999999996;0.01;0.029999999999999999;0.01;76;23;0;0;0.33000000000000002;0.67000000000000004;0.0;0.0;1;4.873146721540252;10;6;22;2;gut erklaert und uerbersichtlich
2019_03_04 10:35;21;3;0;control;22;86;1;56;30;57;88;0.20000000000000001;0.35999999999999999;0.080000000000000002;0.35999999999999999;98;2;0;0;0.77000000000000002;0.23000000000000001;0.0;0.0;1;2.191554297193761;10;6;22;2;gut erklaert und uerbersichtlich
2019_03_04 10:35;21;3;0;control;23;42;1;70;48;0;0;0.79000000000000004;0.20999999999999999;0.0;0.0;51;8;12;67;0.19;0.26000000000000001;0.28999999999999998;0.26000000000000001;0;1.7111977339236546;10;6;22;2;gut erklaert und uerbersichtlich
2019_03_04 10:35;21;3;0;control;24;73;1;65;68;70;47;0.25;0.23000000000000001;0.20999999999999999;0.31;27;95;0;0;0.45000000000000001;0.55000000000000004;0.0;0.0;1;3.2621145430966862;10;6;22;2;gut erklaert und uerbersichtlich
2019_03_04 10:35;21;3;0;control;25;52;0;71;51;10;54;0.22;0.12;0.19;0.46999999999999997;91;1;0;0;0.29999999999999999;0.69999999999999996;0.0;0.0;0;2.8818234707759984;10;6;22;2;gut erklaert und uerbersichtlich
2019_03_04 10:35;21;3;0;control;26;25;0;50;53;0;0;0.82999999999999996;0.17000000000000001;0.0;0.0;83;16;97;4;0.45000000000000001;0.29999999999999999;0.11;0.14000000000000001;1;2.5119791994065963;10;6;22;2;gut erklaert und uerbersichtlich
2019_03_04 10:35;21;3;0;control;27;92;0;90;86;65;94;0.16;0.34000000000000002;0.28000000000000003;0.22;79;22;0;0;0.35999999999999999;0.64000000000000001;0.0;0.0;1;4.35293208312487;10;6;22;2;gut erklaert und uerbersichtlich
2019_03_04 10:35;21;3;0;control;28;121;0;42;51;47;70;0.41999999999999998;0.17000000000000001;0.23999999999999999;0.17000000000000001;21;76;48;9;0.14999999999999999;0.34000000000000002;0.40999999999999998;0.10000000000000001;0;3.49233480051862;10;6;22;2;gut erklaert und uerbersichtlich
2019_03_04 10:35;21;3;0;control;29;138;1;8;20;43;51;0.38;0.5;0.02;0.10000000000000001;72;82;70;1;0.39000000000000001;0.050000000000000003;0.070000000000000007;0.48999999999999999;1;2.3714860352247342;10;6;22;2;gut erklaert und uerbersichtlich
2019_03_04 10:35;21;3;0;control;30;22;0;32;55;0;0;0.39000000000000001;0.60999999999999999;0.0;0.0;93;72;59;22;0.20000000000000001;0.11;0.14000000000000001;0.55000000000000004;0;2.9518926949049273;10;6;22;2;gut erklaert und uerbersichtlich
2019_03_04 10:35;21;3;0;control;31;15;1;77;81;0;0;0.28000000000000003;0.71999999999999997;0.0;0.0;98;14;87;18;0.55000000000000004;0.23000000000000001;0.16;0.059999999999999901;1;4.5129128142889385;10;6;22;2;gut erklaert und uerbersichtlich
2019_03_04 10:35;21;3;0;control;32;126;0;16;55;51;42;0.68999999999999995;0.23999999999999999;0.01;0.060000000000000102;66;4;1;5;0.46999999999999997;0.38;0.089999999999999997;0.059999999999999998;0;2.891798813850073;10;6;22;2;gut erklaert und uerbersichtlich
2019_03_04 10:35;21;3;0;control;33;96;1;51;54;39;7;0.17000000000000001;0.26000000000000001;0.10000000000000001;0.46999999999999997;24;96;0;0;0.28000000000000003;0.71999999999999997;0.0;0.0;1;2.501608409012988;10;6;22;2;gut erklaert und uerbersichtlich
2019_03_04 10:35;21;3;0;control;34;18;0;68;50;0;0;0.029999999999999999;0.96999999999999997;0.0;0.0;34;64;15;89;0.65000000000000002;0.029999999999999999;0.050000000000000003;0.27000000000000002;0;3.8025967386656703;10;6;22;2;gut erklaert und uerbersichtlich
2019_03_04 10:35;21;3;0;control;35;145;0;91;89;90;74;0.57999999999999996;0.29999999999999999;0.11;0.010000000000000101;2;75;84;39;0.32000000000000001;0.27000000000000002;0.39000000000000001;0.0199999999999999;0;2.231538735876711;10;6;22;2;gut erklaert und uerbersichtlich
2019_03_04 10:35;21;3;0;control;36;130;0;37;79;23;95;0.94999999999999996;0.029999999999999999;0.01;0.01;94;4;58;49;0.46000000000000002;0.5;0.029999999999999999;0.01;0;5.513710764761527;10;6;22;2;gut erklaert und uerbersichtlich
2019_03_04 10:35;21;3;0;control;37;14;0;36;40;0;0;0.54000000000000004;0.46000000000000002;0.0;0.0;99;70;1;11;0.16;0.089999999999999997;0.080000000000000002;0.67000000000000004;0;3.7123292328260504;10;6;22;2;gut erklaert und uerbersichtlich
2019_03_04 10:35;21;3;0;control;38;88;0;77;13;12;7;0.12;0.19;0.66000000000000003;0.029999999999999898;94;2;0;0;0.40999999999999998;0.58999999999999997;0.0;0.0;0;4.152814571448289;10;6;22;2;gut erklaert und uerbersichtlich
2019_03_04 10:35;21;3;0;control;39;105;1;49;74;63;58;0.84999999999999998;0.080000000000000002;0.02;0.050000000000000003;97;5;86;8;0.25;0.52000000000000002;0.070000000000000007;0.16;0;6.65431938801612;10;6;22;2;gut erklaert und uerbersichtlich
2019_03_04 10:35;21;3;0;control;40;91;1;74;81;86;48;0.93000000000000005;0.02;0.01;0.039999999999999897;7;64;0;0;0.13;0.87;0.0;0.0;0;4.7131833092362285;10;6;22;2;gut erklaert und uerbersichtlich
2019_03_04 10:35;21;3;0;control;41;32;0;19;81;0;0;0.93000000000000005;0.070000000000000007;0.0;0.0;1;65;41;68;0.45000000000000001;0.050000000000000003;0.059999999999999998;0.44;1;4.322736970123515;10;6;22;2;gut erklaert und uerbersichtlich
2019_03_04 10:35;21;3;0;control;42;90;1;27;44;50;72;0.68000000000000005;0.28999999999999998;0.02;0.0099999999999999707;6;96;0;0;0.46999999999999997;0.53000000000000003;0.0;0.0;0;5.323451533489788;10;6;22;2;gut erklaert und uerbersichtlich
2019_03_04 10:35;21;3;0;control;43;89;1;26;41;13;56;0.059999999999999998;0.40999999999999998;0.050000000000000003;0.47999999999999998;5;97;0;0;0.37;0.63;0.0;0.0;1;4.442870851331463;10;6;22;2;gut erklaert und uerbersichtlich
2019_03_04 10:35;21;3;0;control;44;132;0;27;70;21;19;0.64000000000000001;0.23000000000000001;0.029999999999999999;0.10000000000000001;11;85;55;6;0.39000000000000001;0.46999999999999997;0.029999999999999999;0.11;1;1.7310037755114536;10;6;22;2;gut erklaert und uerbersichtlich
2019_03_04 10:35;21;3;0;control;45;24;1;35;27;0;0;0.070000000000000007;0.93000000000000005;0.0;0.0;62;3;81;95;0.35999999999999999;0.55000000000000004;0.01;0.080000000000000002;0;4.3529497227063985;10;6;22;2;gut erklaert und uerbersichtlich
2019_03_04 10:35;21;3;0;control;46;17;0;81;52;0;0;0.059999999999999998;0.93999999999999995;0.0;0.0;34;3;69;41;0.01;0.22;0.75;0.02;1;3.342270720734632;10;6;22;2;gut erklaert und uerbersichtlich
2019_03_04 10:35;21;3;0;control;47;100;0;27;14;59;52;0.02;0.95999999999999996;0.01;0.01;17;98;0;0;0.48999999999999999;0.51000000000000001;0.0;0.0;1;2.8118004302768895;10;6;22;2;gut erklaert und uerbersichtlich
2019_03_04 10:35;21;3;0;control;48;113;0;85;65;39;64;0.44;0.34000000000000002;0.13;0.089999999999999997;87;2;4;35;0.67000000000000004;0.17000000000000001;0.11;0.049999999999999899;1;2.8819588144660884;10;6;22;2;gut erklaert und uerbersichtlich
2019_03_04 10:35;21;3;0;control;49;7;1;49;29;0;0;0.95999999999999996;0.040000000000000001;0.0;0.0;23;99;64;25;0.68999999999999995;0.12;0.059999999999999998;0.13;0;1.6309992212927682;10;6;22;2;gut erklaert und uerbersichtlich
2019_03_04 10:35;21;3;0;control;50;111;1;51;36;48;27;0.93000000000000005;0.01;0.01;0.049999999999999899;31;78;30;53;0.55000000000000004;0.16;0.029999999999999999;0.26000000000000001;0;2.321597773949179;10;6;22;2;gut erklaert und uerbersichtlich
2019_03_04 10:35;21;3;0;control;51;56;1;28;84;37;41;0.68000000000000005;0.28000000000000003;0.02;0.0199999999999999;6;95;0;0;0.72999999999999998;0.27000000000000002;0.0;0.0;0;3.0821003801165716;10;6;22;2;gut erklaert und uerbersichtlich
2019_03_04 10:35;21;3;0;control;52;78;0;74;36;34;3;0.14999999999999999;0.64000000000000001;0.13;0.080000000000000002;1;83;0;0;0.41999999999999998;0.57999999999999996;0.0;0.0;0;3.362061367779461;10;6;22;2;gut erklaert und uerbersichtlich
2019_03_04 10:35;21;3;0;control;53;139;0;44;31;16;8;0.79000000000000004;0.070000000000000007;0.13;0.0099999999999999499;92;58;2;88;0.55000000000000004;0.070000000000000007;0.34000000000000002;0.039999999999999897;1;2.6016899359456147;10;6;22;2;gut erklaert und uerbersichtlich
2019_03_04 10:35;21;3;0;control;54;94;1;84;86;93;39;0.78000000000000003;0.20000000000000001;0.01;0.0099999999999999603;9;83;0;0;0.46999999999999997;0.53000000000000003;0.0;0.0;0;7.1548537069411395;10;6;22;2;gut erklaert und uerbersichtlich
2019_03_04 10:35;21;3;0;control;55;104;1;55;85;93;3;0.87;0.02;0.089999999999999997;0.02;1;2;90;8;0.35999999999999999;0.070000000000000007;0.40000000000000002;0.17000000000000001;0;6.774485982627084;10;6;22;2;gut erklaert und uerbersichtlich
2019_03_04 10:35;21;3;0;control;56;59;0;56;47;83;90;0.31;0.12;0.54000000000000004;0.029999999999999898;10;98;0;0;0.46999999999999997;0.53000000000000003;0.0;0.0;0;4.002596546234599;10;6;22;2;gut erklaert und uerbersichtlich
2019_03_04 10:35;21;3;0;control;57;51;1;52;23;43;16;0.60999999999999999;0.20999999999999999;0.01;0.17000000000000001;92;7;0;0;0.14999999999999999;0.84999999999999998;0.0;0.0;0;3.6725378673681917;10;6;22;2;gut erklaert und uerbersichtlich
2019_03_04 10:35;21;3;0;control;58;115;1;50;28;61;79;0.83999999999999997;0.040000000000000001;0.059999999999999998;0.059999999999999998;1;26;97;55;0.45000000000000001;0.080000000000000002;0.40999999999999998;0.060000000000000102;0;4.372804513680421;10;6;22;2;gut erklaert und uerbersichtlich
2019_03_04 10:35;21;3;0;control;59;103;0;38;49;89;50;0.89000000000000001;0.070000000000000007;0.01;0.029999999999999999;6;64;99;27;0.70999999999999996;0.17999999999999999;0.059999999999999998;0.050000000000000003;0;4.082581459581888;10;6;22;2;gut erklaert und uerbersichtlich
2019_03_04 10:35;21;3;0;control;60;87;1;10;30;63;4;0.56999999999999995;0.12;0.16;0.14999999999999999;86;2;0;0;0.42999999999999999;0.56999999999999995;0.0;0.0;0;3.5122444345524855;10;6;22;2;gut erklaert und uerbersichtlich
2019_03_04 10:35;21;3;0;control;61;84;1;43;10;5;45;0.78000000000000003;0.13;0.059999999999999998;0.029999999999999999;87;1;0;0;0.57999999999999996;0.41999999999999998;0.0;0.0;1;2.2814382223414214;10;6;22;2;gut erklaert und uerbersichtlich
2019_03_04 10:35;21;3;0;control;62;142;1;98;65;64;84;0.88;0.070000000000000007;0.01;0.040000000000000001;5;68;60;16;0.46000000000000002;0.080000000000000002;0.27000000000000002;0.19;0;2.161396387669811;10;6;22;2;gut erklaert und uerbersichtlich
2019_03_04 10:35;21;3;0;control;63;123;0;26;24;51;92;0.72999999999999998;0.16;0.070000000000000007;0.040000000000000001;6;90;82;49;0.64000000000000001;0.25;0.050000000000000003;0.059999999999999998;0;2.1314148739502343;10;6;22;2;gut erklaert und uerbersichtlich
2019_03_04 10:35;21;3;0;control;64;9;0;61;69;0;0;0.93999999999999995;0.060000000000000102;0.0;0.0;18;93;72;16;0.40999999999999998;0.34999999999999998;0.089999999999999997;0.14999999999999999;0;3.712397866829633;10;6;22;2;gut erklaert und uerbersichtlich
2019_03_04 10:35;21;3;0;control;65;118;1;62;52;65;68;0.40999999999999998;0.44;0.10000000000000001;0.0500000000000001;79;20;14;37;0.56999999999999995;0.23999999999999999;0.14000000000000001;0.050000000000000003;0;4.663155855635523;10;6;22;2;gut erklaert und uerbersichtlich
2019_03_04 10:35;21;3;0;control;66;93;1;87;81;73;98;0.80000000000000004;0.040000000000000001;0.14999999999999999;0.0099999999999999499;5;71;0;0;0.51000000000000001;0.48999999999999999;0.0;0.0;0;2.111341352178897;10;6;22;2;gut erklaert und uerbersichtlich
2019_03_04 10:35;21;3;0;control;67;131;0;83;41;81;88;0.23999999999999999;0.58999999999999997;0.10000000000000001;0.070000000000000007;82;97;4;17;0.26000000000000001;0.46999999999999997;0.11;0.16;1;4.12267141502798;10;6;22;2;gut erklaert und uerbersichtlich
2019_03_04 10:35;21;3;0;control;68;101;0;30;96;61;45;0.65000000000000002;0.14000000000000001;0.11;0.10000000000000001;3;98;63;89;0.75;0.19;0.040000000000000001;0.02;0;3.4423628314152666;10;6;22;2;gut erklaert und uerbersichtlich
2019_03_04 10:35;21;3;0;control;69;8;1;50;36;0;0;0.080000000000000002;0.92000000000000004;0.0;0.0;6;19;84;29;0.54000000000000004;0.070000000000000007;0.17000000000000001;0.22;0;3.7524166225139197;10;6;22;2;gut erklaert und uerbersichtlich
2019_03_04 10:35;21;3;0;control;70;106;0;85;69;22;61;0.10000000000000001;0.58999999999999997;0.17999999999999999;0.13;20;79;91;84;0.55000000000000004;0.14999999999999999;0.26000000000000001;0.039999999999999897;0;4.32278122943444;10;6;22;2;gut erklaert und uerbersichtlich
2019_03_04 10:35;21;3;0;control;71;69;1;54;34;64;49;0.34000000000000002;0.25;0.20999999999999999;0.20000000000000001;14;98;0;0;0.62;0.38;0.0;0.0;0;2.7117192240630175;10;6;22;2;gut erklaert und uerbersichtlich
2019_03_04 10:35;21;3;0;control;72;57;1;52;35;23;47;0.22;0.68000000000000005;0.040000000000000001;0.059999999999999998;71;7;0;0;0.28999999999999998;0.70999999999999996;0.0;0.0;0;2.992045190680983;10;6;22;2;gut erklaert und uerbersichtlich
2019_03_04 10:35;21;3;0;control;73;137;0;71;22;28;17;0.25;0.46000000000000002;0.050000000000000003;0.23999999999999999;3;98;92;69;0.42999999999999999;0.23999999999999999;0.20000000000000001;0.13;1;3.2122054350429607;10;6;22;2;gut erklaert und uerbersichtlich
2019_03_04 10:35;21;3;0;control;74;119;1;60;58;11;18;0.25;0.72999999999999998;0.01;0.01;96;23;42;85;0.44;0.48999999999999999;0.059999999999999998;0.010000000000000101;1;3.4523737743693346;10;6;22;2;gut erklaert und uerbersichtlich
2019_03_04 10:35;21;3;0;control;75;116;1;53;65;43;99;0.56999999999999995;0.37;0.050000000000000003;0.010000000000000101;57;72;11;87;0.67000000000000004;0.13;0.14999999999999999;0.050000000000000003;0;4.4528782663692255;10;6;22;2;gut erklaert und uerbersichtlich
2019_03_04 10:35;21;4;0;timed;1;141;0;93;28;60;91;0.81999999999999995;0.10000000000000001;0.01;0.070000000000000007;14;85;7;89;0.45000000000000001;0.070000000000000007;0.23999999999999999;0.23999999999999999;0;1.7234296604092378;10;6;22;2;gut erklaert und uerbersichtlich
2019_03_04 10:35;21;4;0;timed;2;20;0;44;40;0;0;0.91000000000000003;0.089999999999999997;0.0;0.0;29;5;80;99;0.25;0.40000000000000002;0.26000000000000001;0.089999999999999997;0;1.9513644696517076;10;6;22;2;gut erklaert und uerbersichtlich
2019_03_04 10:35;21;4;0;timed;3;78;1;74;36;34;3;0.14999999999999999;0.64000000000000001;0.13;0.080000000000000002;1;83;0;0;0.41999999999999998;0.57999999999999996;0.0;0.0;0;2.201401031691603;10;6;22;2;gut erklaert und uerbersichtlich
2019_03_04 10:35;21;4;0;timed;4;29;0;44;51;0;0;0.78000000000000003;0.22;0.0;0.0;74;1;68;82;0.69999999999999996;0.28000000000000003;0.01;0.01;1;2.171510281630617;10;6;22;2;gut erklaert und uerbersichtlich
2019_03_04 10:35;21;4;0;timed;5;42;0;70;48;0;0;0.79000000000000004;0.20999999999999999;0.0;0.0;51;8;12;67;0.19;0.26000000000000001;0.28999999999999998;0.26000000000000001;0;1.4709142562451234;10;6;22;2;gut erklaert und uerbersichtlich
2019_03_04 10:35;21;4;0;timed;6;8;0;50;36;0;0;0.080000000000000002;0.92000000000000004;0.0;0.0;6;19;84;29;0.54000000000000004;0.070000000000000007;0.17000000000000001;0.22;0;2.2714542198364143;10;6;22;2;gut erklaert und uerbersichtlich
2019_03_04 10:35;21;4;0;timed;7;1;1;22;51;0;0;0.26000000000000001;0.73999999999999999;0.0;0.0;14;11;92;31;0.29999999999999999;0.40999999999999998;0.14999999999999999;0.14000000000000001;1;1.3908716133610142;10;6;22;2;gut erklaert und uerbersichtlich
2019_03_04 10:35;21;4;0;timed;8;138;0;8;20;43;51;0.38;0.5;0.02;0.10000000000000001;72;82;70;1;0.39000000000000001;0.050000000000000003;0.070000000000000007;0.48999999999999999;0;2.5316155803038782;10;6;22;2;gut erklaert und uerbersichtlich
2019_03_04 10:35;21;4;0;timed;9;84;0;43;10;5;45;0.78000000000000003;0.13;0.059999999999999998;0.029999999999999999;87;1;0;0;0.57999999999999996;0.41999999999999998;0.0;0.0;0;1.8011365021293386;10;6;22;2;gut erklaert und uerbersichtlich
2019_03_04 10:35;21;4;0;timed;10;109;0;75;28;16;56;0.19;0.070000000000000007;0.059999999999999998;0.68000000000000005;3;50;98;44;0.5;0.02;0.34999999999999998;0.13;0;2.121336259151576;10;6;22;2;gut erklaert und uerbersichtlich
2019_03_04 10:35;21;4;0;timed;11;22;0;32;55;0;0;0.39000000000000001;0.60999999999999999;0.0;0.0;93;72;59;22;0.20000000000000001;0.11;0.14000000000000001;0.55000000000000004;1;1.6210203503023877;10;6;22;2;gut erklaert und uerbersichtlich
2019_03_04 10:35;21;4;0;timed;12;132;1;27;70;21;19;0.64000000000000001;0.23000000000000001;0.029999999999999999;0.10000000000000001;11;85;55;6;0.39000000000000001;0.46999999999999997;0.029999999999999999;0.11;0;1.8312764513530055;10;6;22;2;gut erklaert und uerbersichtlich
2019_03_04 10:35;21;4;0;timed;13;35;0;33;37;0;0;0.88;0.12;0.0;0.0;63;4;79;98;0.16;0.46000000000000002;0.17000000000000001;0.20999999999999999;0;1.4709142562451234;10;6;22;2;gut erklaert und uerbersichtlich
2019_03_04 10:35;21;4;0;timed;14;118;1;62;52;65;68;0.40999999999999998;0.44;0.10000000000000001;0.0500000000000001;79;20;14;37;0.56999999999999995;0.23999999999999999;0.14000000000000001;0.050000000000000003;0;1.8112850338102362;10;6;22;2;gut erklaert und uerbersichtlich
2019_03_04 10:35;21;4;0;timed;15;99;0;8;24;15;73;0.56000000000000005;0.35999999999999999;0.070000000000000007;0.0099999999999999499;88;12;0;0;0.52000000000000002;0.47999999999999998;0.0;0.0;1;2.6316692046284516;10;6;22;2;gut erklaert und uerbersichtlich
2019_03_04 10:35;21;4;0;timed;16;108;1;48;72;39;70;0.14000000000000001;0.66000000000000003;0.02;0.17999999999999999;81;44;98;8;0.59999999999999998;0.029999999999999999;0.050000000000000003;0.32000000000000001;0;1.570975577840727;10;6;22;2;gut erklaert und uerbersichtlich
2019_03_04 10:35;21;4;0;timed;17;133;0;59;88;60;36;0.67000000000000004;0.070000000000000007;0.12;0.14000000000000001;7;91;66;61;0.25;0.68999999999999995;0.01;0.0500000000000001;0;1.5809730505698099;10;6;22;2;gut erklaert und uerbersichtlich
2019_03_04 10:35;21;4;0;timed;18;110;0;47;44;23;52;0.13;0.27000000000000002;0.040000000000000001;0.56000000000000005;99;2;30;22;0.28999999999999998;0.5;0.11;0.10000000000000001;0;2.171424649484834;10;6;22;2;gut erklaert und uerbersichtlich
2019_03_04 10:35;21;4;0;timed;19;70;0;66;55;69;50;0.22;0.29999999999999999;0.29999999999999999;0.17999999999999999;2;90;0;0;0.34000000000000002;0.66000000000000003;0.0;0.0;0;1.310838271346256;10;6;22;2;gut erklaert und uerbersichtlich
2019_03_04 10:35;21;4;0;timed;20;76;0;39;62;9;28;0.01;0.51000000000000001;0.26000000000000001;0.22;77;7;0;0;0.57999999999999996;0.41999999999999998;0.0;0.0;1;1.711081954132169;10;6;22;2;gut erklaert und uerbersichtlich
2019_03_04 10:35;21;4;0;timed;21;7;1;49;29;0;0;0.95999999999999996;0.040000000000000001;0.0;0.0;23;99;64;25;0.68999999999999995;0.12;0.059999999999999998;0.13;0;2.1613540526777797;10;6;22;2;gut erklaert und uerbersichtlich
2019_03_04 10:35;21;4;0;timed;22;103;0;38;49;89;50;0.89000000000000001;0.070000000000000007;0.01;0.029999999999999999;6;64;99;27;0.70999999999999996;0.17999999999999999;0.059999999999999998;0.050000000000000003;1;1.8111358991754969;10;6;22;2;gut erklaert und uerbersichtlich
2019_03_04 10:35;21;4;0;timed;23;126;1;16;55;51;42;0.68999999999999995;0.23999999999999999;0.01;0.060000000000000102;66;4;1;5;0.46999999999999997;0.38;0.089999999999999997;0.059999999999999998;0;1.2407401824502813;10;6;22;2;gut erklaert und uerbersichtlich
2019_03_04 10:35;21;4;0;timed;24;105;0;49;74;63;58;0.84999999999999998;0.080000000000000002;0.02;0.050000000000000003;97;5;86;8;0.25;0.52000000000000002;0.070000000000000007;0.16;1;2.0113993382919944;10;6;22;2;gut erklaert und uerbersichtlich
2019_03_04 10:35;21;4;0;timed;25;137;1;71;22;28;17;0.25;0.46000000000000002;0.050000000000000003;0.23999999999999999;3;98;92;69;0.42999999999999999;0.23999999999999999;0.20000000000000001;0.13;0;1.3708686499112446;10;6;22;2;gut erklaert und uerbersichtlich
2019_03_04 10:35;21;4;0;timed;26;150;1;25;21;78;38;0.84999999999999998;0.059999999999999998;0.050000000000000003;0.040000000000000001;31;43;64;95;0.059999999999999998;0.45000000000000001;0.13;0.35999999999999999;0;1.5409690479891651;10;6;22;2;gut erklaert und uerbersichtlich
2019_03_04 10:35;21;4;0;timed;27;23;1;54;40;0;0;0.93000000000000005;0.070000000000000007;0.0;0.0;36;23;71;86;0.02;0.41999999999999998;0.19;0.37;1;1.55096972791398;10;6;22;2;gut erklaert und uerbersichtlich
2019_03_04 10:35;21;4;0;timed;28;66;1;89;23;27;15;0.070000000000000007;0.54000000000000004;0.17000000000000001;0.22;9;73;0;0;0.72999999999999998;0.27000000000000002;0.0;0.0;0;1.7911332564453915;10;6;22;2;gut erklaert und uerbersichtlich
2019_03_04 10:35;21;4;0;timed;29;106;1;85;69;22;61;0.10000000000000001;0.58999999999999997;0.17999999999999999;0.13;20;79;91;84;0.55000000000000004;0.14999999999999999;0.26000000000000001;0.039999999999999897;0;1.611014218143282;10;6;22;2;gut erklaert und uerbersichtlich
2019_03_04 10:35;21;4;0;timed;30;10;1;45;62;0;0;0.059999999999999998;0.93999999999999995;0.0;0.0;17;99;28;67;0.58999999999999997;0.34000000000000002;0.01;0.059999999999999998;1;1.1807194254752176;10;6;22;2;gut erklaert und uerbersichtlich
2019_03_04 10:35;21;4;0;timed;31;121;0;42;51;47;70;0.41999999999999998;0.17000000000000001;0.23999999999999999;0.17000000000000001;21;76;48;9;0.14999999999999999;0.34000000000000002;0.40999999999999998;0.10000000000000001;1;1.450909689197033;10;6;22;2;gut erklaert und uerbersichtlich
2019_03_04 10:35;21;4;0;timed;32;9;1;61;69;0;0;0.93999999999999995;0.060000000000000102;0.0;0.0;18;93;72;16;0.40999999999999998;0.34999999999999998;0.089999999999999997;0.14999999999999999;1;1.431088573785928;10;6;22;2;gut erklaert und uerbersichtlich
2019_03_04 10:35;21;4;0;timed;33;146;1;25;5;64;35;0.94999999999999996;0.02;0.01;0.02;47;97;12;79;0.20999999999999999;0.029999999999999999;0.02;0.73999999999999999;1;1.8813225066933228;10;6;22;2;gut erklaert und uerbersichtlich
2019_03_04 10:35;21;4;0;timed;34;60;0;64;59;57;96;0.83999999999999997;0.13;0.02;0.01;83;6;0;0;0.54000000000000004;0.46000000000000002;0.0;0.0;1;1.47107621966461;10;6;22;2;gut erklaert und uerbersichtlich
2019_03_04 10:35;21;4;0;timed;35;59;0;56;47;83;90;0.31;0.12;0.54000000000000004;0.029999999999999898;10;98;0;0;0.46999999999999997;0.53000000000000003;0.0;0.0;0;1.1404764867602353;10;6;22;2;gut erklaert und uerbersichtlich
2019_03_04 10:35;21;4;0;timed;36;33;0;27;70;0;0;0.88;0.12;0.0;0.0;93;3;77;16;0.080000000000000002;0.40000000000000002;0.5;0.02;1;1.7112083176707529;10;6;22;2;gut erklaert und uerbersichtlich
2019_03_04 10:35;21;4;0;timed;37;67;0;44;42;8;89;0.88;0.070000000000000007;0.029999999999999999;0.02;10;63;0;0;0.39000000000000001;0.60999999999999999;0.0;0.0;1;1.8713186195718663;10;6;22;2;gut erklaert und uerbersichtlich
2019_03_04 10:35;21;4;0;timed;38;40;1;45;49;0;0;0.68999999999999995;0.31;0.0;0.0;2;92;65;73;0.23999999999999999;0.59999999999999998;0.11;0.050000000000000003;1;1.3208235567299198;10;6;22;2;gut erklaert und uerbersichtlich
2019_03_04 10:35;21;4;0;timed;39;69;1;54;34;64;49;0.34000000000000002;0.25;0.20999999999999999;0.20000000000000001;14;98;0;0;0.62;0.38;0.0;0.0;1;1.3009424667443454;10;6;22;2;gut erklaert und uerbersichtlich
2019_03_04 10:35;21;4;0;timed;40;49;0;21;30;0;0;0.53000000000000003;0.46999999999999997;0.0;0.0;93;99;89;25;0.44;0.02;0.11;0.42999999999999999;1;1.3908658404070593;10;6;22;2;gut erklaert und uerbersichtlich
2019_03_04 10:35;21;4;0;timed;41;130;0;37;79;23;95;0.94999999999999996;0.029999999999999999;0.01;0.01;94;4;58;49;0.46000000000000002;0.5;0.029999999999999999;0.01;0;1.7711168227715461;10;6;22;2;gut erklaert und uerbersichtlich
2019_03_04 10:35;21;4;0;timed;42;74;1;66;47;52;44;0.41999999999999998;0.26000000000000001;0.17999999999999999;0.14000000000000001;17;99;0;0;0.47999999999999998;0.52000000000000002;0.0;0.0;0;1.2003955756090363;10;6;22;2;gut erklaert und uerbersichtlich
2019_03_04 10:35;21;4;0;timed;43;144;0;99;93;90;71;0.65000000000000002;0.32000000000000001;0.01;0.02;97;14;48;73;0.23000000000000001;0.46000000000000002;0.13;0.17999999999999999;0;1.0006154609955047;10;6;22;2;gut erklaert und uerbersichtlich
2019_03_04 10:35;21;4;0;timed;44;85;0;31;22;82;50;0.11;0.69999999999999996;0.01;0.17999999999999999;3;99;0;0;0.62;0.38;0.0;0.0;1;1.1508488807521644;10;6;22;2;gut erklaert und uerbersichtlich
2019_03_04 10:35;21;4;0;timed;45;123;1;26;24;51;92;0.72999999999999998;0.16;0.070000000000000007;0.040000000000000001;6;90;82;49;0.64000000000000001;0.25;0.050000000000000003;0.059999999999999998;1;1.090793806775764;10;6;22;2;gut erklaert und uerbersichtlich
2019_03_04 10:35;21;4;0;timed;46;124;0;37;65;15;41;0.17999999999999999;0.45000000000000001;0.02;0.34999999999999998;40;7;98;30;0.070000000000000007;0.45000000000000001;0.45000000000000001;0.029999999999999898;0;1.4008848013527313;10;6;22;2;gut erklaert und uerbersichtlich
2019_03_04 10:35;21;4;0;timed;47;145;1;91;89;90;74;0.57999999999999996;0.29999999999999999;0.11;0.010000000000000101;2;75;84;39;0.32000000000000001;0.27000000000000002;0.39000000000000001;0.0199999999999999;0;1.1208397851432892;10;6;22;2;gut erklaert und uerbersichtlich
2019_03_04 10:35;21;4;0;timed;48;56;0;28;84;37;41;0.68000000000000005;0.28000000000000003;0.02;0.0199999999999999;6;95;0;0;0.72999999999999998;0.27000000000000002;0.0;0.0;0;1.5009451607893425;10;6;22;2;gut erklaert und uerbersichtlich
2019_03_04 10:35;21;4;0;timed;49;87;0;10;30;63;4;0.56999999999999995;0.12;0.16;0.14999999999999999;86;2;0;0;0.42999999999999999;0.56999999999999995;0.0;0.0;0;1.6309610556554617;10;6;22;2;gut erklaert und uerbersichtlich
2019_03_04 10:35;21;4;0;timed;50;119;1;60;58;11;18;0.25;0.72999999999999998;0.01;0.01;96;23;42;85;0.44;0.48999999999999999;0.059999999999999998;0.010000000000000101;0;1.3708850066132072;10;6;22;2;gut erklaert und uerbersichtlich
2019_03_04 10:35;21;4;0;timed;51;19;0;22;53;0;0;0.13;0.87;0.0;0.0;4;93;96;65;0.46999999999999997;0.059999999999999998;0.26000000000000001;0.20999999999999999;1;1.2307484826751534;10;6;22;2;gut erklaert und uerbersichtlich
2019_03_04 10:35;21;4;0;timed;52;64;0;48;39;34;19;0.46000000000000002;0.5;0.02;0.02;13;92;0;0;0.68999999999999995;0.31;0.0;0.0;0;2.071312974905595;10;6;22;2;gut erklaert und uerbersichtlich
2019_03_04 10:35;21;4;0;timed;53;58;1;37;58;76;34;0.20999999999999999;0.57999999999999996;0.19;0.020000000000000101;86;5;0;0;0.47999999999999998;0.52000000000000002;0.0;0.0;0;1.1507202721759313;10;6;22;2;gut erklaert und uerbersichtlich
2019_03_04 10:35;21;4;0;timed;54;62;1;12;45;16;50;0.20999999999999999;0.76000000000000001;0.02;0.01;92;15;0;0;0.20999999999999999;0.79000000000000004;0.0;0.0;0;1.4310234676977416;10;6;22;2;gut erklaert und uerbersichtlich
2019_03_04 10:35;21;4;0;timed;55;139;0;44;31;16;8;0.79000000000000004;0.070000000000000007;0.13;0.0099999999999999499;92;58;2;88;0.55000000000000004;0.070000000000000007;0.34000000000000002;0.039999999999999897;1;1.9812751043300523;10;6;22;2;gut erklaert und uerbersichtlich
2019_03_04 10:35;21;4;0;timed;56;12;1;53;68;0;0;0.31;0.68999999999999995;0.0;0.0;69;54;97;29;0.25;0.20999999999999999;0.20000000000000001;0.34000000000000002;1;1.3508223893104514;10;6;22;2;gut erklaert und uerbersichtlich
2019_03_04 10:35;21;4;0;timed;57;17;0;81;52;0;0;0.059999999999999998;0.93999999999999995;0.0;0.0;34;3;69;41;0.01;0.22;0.75;0.02;1;1.4510395806519227;10;6;22;2;gut erklaert und uerbersichtlich
2019_03_04 10:35;21;4;0;timed;58;6;0;9;51;0;0;0.14999999999999999;0.84999999999999998;0.0;0.0;6;40;50;73;0.42999999999999999;0.26000000000000001;0.059999999999999998;0.25;1;1.5209683295761351;10;6;22;2;gut erklaert und uerbersichtlich
2019_03_04 10:35;21;4;0;timed;59;114;0;57;39;79;97;0.77000000000000002;0.02;0.13;0.080000000000000002;92;36;6;1;0.54000000000000004;0.12;0.13;0.20999999999999999;1;2.1415326165470105;10;6;22;2;gut erklaert und uerbersichtlich
2019_03_04 10:35;21;4;0;timed;60;113;0;85;65;39;64;0.44;0.34000000000000002;0.13;0.089999999999999997;87;2;4;35;0.67000000000000004;0.17000000000000001;0.11;0.049999999999999899;1;1.2808112154370974;10;6;22;2;gut erklaert und uerbersichtlich
2019_03_04 10:35;21;4;0;timed;61;54;0;44;79;78;52;0.79000000000000004;0.19;0.01;0.0099999999999999603;96;1;0;0;0.28000000000000003;0.71999999999999997;0.0;0.0;0;1.8314053806498123;10;6;22;2;gut erklaert und uerbersichtlich
2019_03_04 10:35;21;4;0;timed;62;134;1;57;48;50;55;0.02;0.62;0.17999999999999999;0.17999999999999999;80;96;15;18;0.23999999999999999;0.35999999999999999;0.33000000000000002;0.070000000000000007;0;1.3506652366850176;10;6;22;2;gut erklaert und uerbersichtlich
2019_03_04 10:35;21;4;0;timed;63;92;1;90;86;65;94;0.16;0.34000000000000002;0.28000000000000003;0.22;79;22;0;0;0.35999999999999999;0.64000000000000001;0.0;0.0;0;1.8312607360903712;10;6;22;2;gut erklaert und uerbersichtlich
2019_03_04 10:35;21;4;0;timed;64;46;0;5;19;0;0;0.32000000000000001;0.68000000000000005;0.0;0.0;88;38;97;66;0.60999999999999999;0.20000000000000001;0.040000000000000001;0.14999999999999999;1;1.561100940734832;10;6;22;2;gut erklaert und uerbersichtlich
2019_03_04 10:35;21;4;0;timed;65;55;1;74;55;47;48;0.60999999999999999;0.31;0.070000000000000007;0.01;97;6;0;0;0.42999999999999999;0.56999999999999995;0.0;0.0;0;1.59113793895267;10;6;22;2;gut erklaert und uerbersichtlich
2019_03_04 10:35;21;4;0;timed;66;37;1;14;98;0;0;0.93000000000000005;0.070000000000000007;0.0;0.0;41;2;87;66;0.17999999999999999;0.48999999999999999;0.32000000000000001;0.010000000000000101;0;1.491210036728262;10;6;22;2;gut erklaert und uerbersichtlich
2019_03_04 10:35;21;4;0;timed;67;13;0;52;56;0;0;0.46999999999999997;0.53000000000000003;0.0;0.0;94;71;27;2;0.089999999999999997;0.31;0.57999999999999996;0.020000000000000101;1;1.3207882775686812;10;6;22;2;gut erklaert und uerbersichtlich
2019_03_04 10:35;21;4;0;timed;68;122;0;35;58;25;31;0.81999999999999995;0.070000000000000007;0.080000000000000002;0.029999999999999999;18;64;68;89;0.63;0.17000000000000001;0.11;0.089999999999999997;0;1.641036783978052;10;6;22;2;gut erklaert und uerbersichtlich
2019_03_04 10:35;21;4;0;timed;69;51;0;52;23;43;16;0.60999999999999999;0.20999999999999999;0.01;0.17000000000000001;92;7;0;0;0.14999999999999999;0.84999999999999998;0.0;0.0;1;1.4812962718269773;10;6;22;2;gut erklaert und uerbersichtlich
2019_03_04 10:35;21;4;0;timed;70;30;1;33;30;0;0;0.71999999999999997;0.28000000000000003;0.0;0.0;9;88;1;14;0.55000000000000004;0.39000000000000001;0.01;0.049999999999999899;1;2.5515993005747077;10;6;22;2;gut erklaert und uerbersichtlich
2019_03_04 10:35;21;4;0;timed;71;111;0;51;36;48;27;0.93000000000000005;0.01;0.01;0.049999999999999899;31;78;30;53;0.55000000000000004;0.16;0.029999999999999999;0.26000000000000001;0;1.6010343849948185;10;6;22;2;gut erklaert und uerbersichtlich
2019_03_04 10:35;21;4;0;timed;72;3;1;53;40;0;0;0.31;0.68999999999999995;0.0;0.0;96;24;7;88;0.11;0.27000000000000002;0.58999999999999997;0.029999999999999999;1;1.5109464821543952;10;6;22;2;gut erklaert und uerbersichtlich
2019_03_04 10:35;21;4;0;timed;73;90;1;27;44;50;72;0.68000000000000005;0.28999999999999998;0.02;0.0099999999999999707;6;96;0;0;0.46999999999999997;0.53000000000000003;0.0;0.0;0;1.8711823137227839;10;6;22;2;gut erklaert und uerbersichtlich
2019_03_04 10:35;21;4;0;timed;74;61;1;43;18;39;70;0.75;0.089999999999999997;0.089999999999999997;0.070000000000000007;16;66;0;0;0.64000000000000001;0.35999999999999999;0.0;0.0;0;1.4409173479816673;10;6;22;2;gut erklaert und uerbersichtlich
2019_03_04 10:35;21;4;0;timed;75;73;1;65;68;70;47;0.25;0.23000000000000001;0.20999999999999999;0.31;27;95;0;0;0.45000000000000001;0.55000000000000004;0.0;0.0;0;2.211399145860014;10;6;22;2;gut erklaert und uerbersichtlich
