date;id;block;order;cond;trial;gameid;leftright;oa1;oa2;oa3;oa4;pa1;pa2;pa3;pa4;ob1;ob2;ob3;ob4;pb1;pb2;pb3;pb4;choice;rt;paytrial;payout;alter;geschlecht;comment
2019_03_15 12:49;30;0;1;practice;1;62;0;65;52;74;55;0.16;0.12;0.14999999999999999;0.56999999999999995;72;86;2;68;0.12;0.53000000000000003;0.22;0.13;1;14.974173003384522;4;59;20;2;
2019_03_15 12:49;30;0;1;practice;2;26;1;24;46;74;59;0.29999999999999999;0.11;0.25;0.34000000000000002;91;6;0;0;0.28999999999999998;0.70999999999999996;0.0;0.0;1;14.266270122667493;4;59;20;2;
2019_03_15 12:49;30;0;1;practice;3;27;1;68;43;98;36;0.54000000000000004;0.44;0.01;0.0099999999999999603;97;13;0;0;0.27000000000000002;0.72999999999999998;0.0;0.0;0;9.082981738898638;4;59;20;2;
2019_03_15 12:49;30;0;1;practice;4;37;0;50;66;99;12;0.26000000000000001;0.71999999999999997;0.01;0.01;22;90;0;0;0.37;0.63;0.0;0.0;1;7.266484687481125;4;59;20;2;
2019_03_15 12:49;30;0;1;practice;5;52;0;17;61;57;59;0.070000000000000007;0.050000000000000003;0.33000000000000002;0.55000000000000004;12;93;94;62;0.71999999999999997;0.16;0.080000000000000002;0.040000000000000001;1;11.983036550747102;4;59;20;2;
2019_03_15 12:49;30;0;1;practice;6;49;1;14;31;42;22;0.77000000000000002;0.089999999999999997;0.02;0.12;87;28;0;0;0.68000000000000005;0.32000000000000001;0.0;0.0;0;8.233000709763814;4;59;20;2;
2019_03_15 12:49;30;0;1;practice;7;40;0;29;65;30;41;0.70999999999999996;0.01;0.14999999999999999;0.13;2;59;0;0;0.32000000000000001;0.68000000000000005;0.0;0.0;1;13.582852647213372;4;59;20;2;
2019_03_15 12:49;30;0;1;practice;8;34;0;57;23;66;79;0.56000000000000005;0.23000000000000001;0.13;0.079999999999999905;85;9;0;0;0.56000000000000005;0.44;0.0;0.0;1;10.716436402379827;4;59;20;2;
2019_03_15 12:49;30;0;1;practice;9;24;0;19;38;0;0;0.89000000000000001;0.11;0.0;0.0;45;76;95;57;0.29999999999999999;0.22;0.40000000000000002;0.080000000000000002;0;6.816402437635929;4;59;20;2;
2019_03_15 12:49;30;0;1;practice;10;39;1;53;65;48;75;0.92000000000000004;0.029999999999999999;0.01;0.040000000000000001;16;83;0;0;0.31;0.68999999999999995;0.0;0.0;0;6.983050341908552;4;59;20;2;
2019_03_15 12:49;30;0;1;practice;11;16;0;50;42;0;0;0.32000000000000001;0.68000000000000005;0.0;0.0;97;2;56;31;0.35999999999999999;0.16;0.16;0.32000000000000001;0;8.09969694724623;4;59;20;2;
2019_03_15 12:49;30;0;1;practice;12;72;0;86;85;97;43;0.51000000000000001;0.14999999999999999;0.33000000000000002;0.0099999999999999499;72;29;10;90;0.01;0.11;0.65000000000000002;0.23000000000000001;1;17.666058572666202;4;59;20;2;
2019_03_15 12:49;30;0;1;practice;13;23;1;99;93;0;0;0.57999999999999996;0.41999999999999998;0.0;0.0;64;10;80;81;0.13;0.55000000000000004;0.02;0.29999999999999999;0;10.94959683303614;4;59;20;2;
2019_03_15 12:49;30;0;1;practice;14;17;1;27;61;0;0;0.68999999999999995;0.31;0.0;0.0;3;91;69;43;0.29999999999999999;0.33000000000000002;0.27000000000000002;0.099999999999999895;0;5.383299352553081;4;59;20;2;
2019_03_15 12:49;30;0;1;practice;15;4;1;40;59;0;0;0.19;0.81000000000000005;0.0;0.0;10;88;13;45;0.56000000000000005;0.28999999999999998;0.01;0.14000000000000001;0;11.116272319631662;4;59;20;2;
2019_03_15 12:49;30;0;1;practice;16;28;1;37;83;75;8;0.83999999999999997;0.070000000000000007;0.01;0.080000000000000002;94;2;0;0;0.19;0.81000000000000005;0.0;0.0;0;8.28313446799325;4;59;20;2;
2019_03_15 12:49;30;0;1;practice;17;67;1;74;31;10;77;0.11;0.070000000000000007;0.77000000000000002;0.050000000000000003;2;23;8;97;0.56999999999999995;0.01;0.059999999999999998;0.35999999999999999;0;17.482728494688217;4;59;20;2;
2019_03_15 12:49;30;0;1;practice;18;7;0;13;31;0;0;0.51000000000000001;0.48999999999999999;0.0;0.0;8;79;42;18;0.85999999999999999;0.089999999999999997;0.02;0.029999999999999999;0;6.649871277148122;4;59;20;2;
2019_03_15 12:49;30;0;1;practice;19;71;0;94;87;26;75;0.71999999999999997;0.23999999999999999;0.02;0.02;90;27;12;83;0.16;0.73999999999999999;0.02;0.080000000000000002;0;12.566349117157415;4;59;20;2;
2019_03_15 12:49;30;0;1;practice;20;35;1;84;95;4;35;0.89000000000000001;0.050000000000000003;0.01;0.050000000000000003;5;98;0;0;0.19;0.81000000000000005;0.0;0.0;0;15.082827791050477;4;59;20;2;
2019_03_15 12:49;30;0;1;practice;21;38;1;51;89;10;60;0.57999999999999996;0.029999999999999999;0.080000000000000002;0.31;8;84;0;0;0.33000000000000002;0.67000000000000004;0.0;0.0;0;11.016286078720668;4;59;20;2;
2019_03_15 12:49;30;0;1;practice;22;55;1;53;11;80;74;0.31;0.37;0.28000000000000003;0.039999999999999897;6;93;98;96;0.69999999999999996;0.22;0.050000000000000003;0.029999999999999999;0;13.699655766196884;4;59;20;2;
2019_03_15 12:49;30;0;1;practice;23;42;1;23;45;91;22;0.72999999999999998;0.02;0.20000000000000001;0.050000000000000003;2;86;0;0;0.40999999999999998;0.58999999999999997;0.0;0.0;0;3.3831659310847044;4;59;20;2;
2019_03_15 12:49;30;0;1;practice;24;57;0;39;68;59;91;0.73999999999999999;0.040000000000000001;0.14999999999999999;0.070000000000000007;9;22;40;84;0.29999999999999999;0.32000000000000001;0.040000000000000001;0.34000000000000002;1;29.032522765839758;4;59;20;2;
2019_03_15 12:49;30;0;1;practice;25;15;0;24;59;0;0;0.56999999999999995;0.42999999999999999;0.0;0.0;9;8;80;22;0.31;0.10000000000000001;0.55000000000000004;0.039999999999999897;0;7.583169523200922;4;59;20;2;
2019_03_15 12:49;30;0;1;practice;26;3;1;20;70;0;0;0.13;0.87;0.0;0.0;95;19;80;73;0.31;0.57999999999999996;0.029999999999999999;0.080000000000000002;1;21.016081456372376;4;59;20;2;
2019_03_15 12:49;30;0;1;practice;27;14;0;92;56;0;0;0.11;0.89000000000000001;0.0;0.0;97;31;51;4;0.58999999999999997;0.22;0.080000000000000002;0.11;0;7.066398027671539;4;59;20;2;
2019_03_15 12:49;30;0;1;practice;28;54;1;69;80;22;55;0.27000000000000002;0.31;0.059999999999999998;0.35999999999999999;52;2;49;90;0.059999999999999998;0.33000000000000002;0.20000000000000001;0.40999999999999998;0;27.03260551280823;4;59;20;2;
2019_03_15 12:49;30;0;1;practice;29;50;0;17;12;21;14;0.55000000000000004;0.34000000000000002;0.059999999999999998;0.049999999999999899;13;93;0;0;0.28999999999999998;0.70999999999999996;0.0;0.0;0;4.349865407886455;4;59;20;2;
2019_03_15 12:49;30;0;1;practice;30;44;0;69;48;22;63;0.39000000000000001;0.40999999999999998;0.19;0.01;1;94;0;0;0.22;0.78000000000000003;0.0;0.0;1;8.98302821190532;4;59;20;2;
2019_03_15 12:49;30;0;1;practice;31;51;1;38;13;51;84;0.91000000000000003;0.070000000000000007;0.01;0.0099999999999999603;4;89;35;16;0.80000000000000004;0.089999999999999997;0.059999999999999998;0.050000000000000003;0;18.382723651745664;4;59;20;2;
2019_03_15 12:49;30;0;1;practice;32;69;0;38;74;27;73;0.22;0.19;0.45000000000000001;0.14000000000000001;1;97;79;84;0.28000000000000003;0.45000000000000001;0.17000000000000001;0.10000000000000001;0;13.082853128300485;4;59;20;2;
2019_03_15 12:49;30;0;1;practice;33;74;1;36;46;10;12;0.11;0.19;0.65000000000000002;0.049999999999999899;92;24;79;19;0.51000000000000001;0.40999999999999998;0.02;0.059999999999999998;1;19.33270022280726;4;59;20;2;
2019_03_15 12:49;30;0;1;practice;34;66;1;44;18;63;36;0.47999999999999998;0.10000000000000001;0.029999999999999999;0.39000000000000001;13;93;61;53;0.52000000000000002;0.45000000000000001;0.02;0.0099999999999999707;1;16.43290231143078;4;59;20;2;
2019_03_15 12:49;30;0;1;practice;35;45;1;37;40;75;23;0.54000000000000004;0.38;0.059999999999999998;0.02;1;90;0;0;0.28000000000000003;0.71999999999999997;0.0;0.0;0;23.865876785915134;4;59;20;2;
2019_03_15 12:49;30;0;1;practice;36;41;1;19;54;51;8;0.76000000000000001;0.070000000000000007;0.16;0.0099999999999999794;2;77;0;0;0.54000000000000004;0.46000000000000002;0.0;0.0;0;11.166178042610909;4;59;20;2;
2019_03_15 12:49;30;0;1;practice;37;29;0;66;40;92;49;0.46999999999999997;0.10000000000000001;0.34000000000000002;0.089999999999999997;8;94;0;0;0.44;0.56000000000000005;0.0;0.0;0;12.516159873557399;4;59;20;2;
2019_03_15 12:49;30;0;1;practice;38;10;1;34;59;0;0;0.16;0.83999999999999997;0.0;0.0;21;61;96;7;0.19;0.01;0.5;0.29999999999999999;0;7.749836029505332;4;59;20;2;
2019_03_15 12:49;30;0;1;practice;39;8;0;20;44;0;0;0.26000000000000001;0.73999999999999999;0.0;0.0;99;3;69;24;0.20999999999999999;0.60999999999999999;0.12;0.060000000000000102;0;8.582975484767303;4;59;20;2;
2019_03_15 12:49;30;0;1;practice;40;25;1;7;18;0;0;0.20999999999999999;0.79000000000000004;0.0;0.0;92;45;33;13;0.41999999999999998;0.17999999999999999;0.22;0.17999999999999999;1;7.916364624195694;4;59;20;2;
2019_03_15 12:49;30;0;1;practice;41;61;1;51;48;56;88;0.91000000000000003;0.02;0.01;0.059999999999999998;78;21;14;82;0.55000000000000004;0.29999999999999999;0.070000000000000007;0.080000000000000002;0;16.899299825942762;4;59;20;2;
2019_03_15 12:49;30;0;1;practice;42;31;1;72;59;40;92;0.59999999999999998;0.34999999999999998;0.02;0.029999999999999999;97;29;0;0;0.38;0.62;0.0;0.0;0;7.983032702050878;4;59;20;2;
2019_03_15 12:49;30;0;1;practice;43;56;1;47;52;64;10;0.77000000000000002;0.040000000000000001;0.11;0.080000000000000002;1;5;12;99;0.14000000000000001;0.28999999999999998;0.27000000000000002;0.29999999999999999;0;7.566386000495868;4;59;20;2;
2019_03_15 12:49;30;0;1;practice;44;46;1;79;57;98;81;0.67000000000000004;0.070000000000000007;0.20999999999999999;0.050000000000000003;1;76;0;0;0.56000000000000005;0.44;0.0;0.0;0;6.8830782128836745;4;59;20;2;
2019_03_15 12:49;30;0;1;practice;45;30;0;54;78;85;25;0.20999999999999999;0.60999999999999999;0.089999999999999997;0.090000000000000094;87;20;0;0;0.58999999999999997;0.40999999999999998;0.0;0.0;0;15.416096979447047;4;59;20;2;
2019_03_15 12:49;30;0;1;practice;46;53;0;47;24;95;38;0.57999999999999996;0.28000000000000003;0.02;0.12;8;22;93;96;0.54000000000000004;0.34000000000000002;0.10000000000000001;0.0199999999999999;0;15.2662518413606;4;59;20;2;
2019_03_15 12:49;30;0;1;practice;47;18;0;47;36;0;0;0.089999999999999997;0.91000000000000003;0.0;0.0;2;44;81;9;0.20000000000000001;0.25;0.51000000000000001;0.040000000000000001;0;9.73293319721779;4;59;20;2;
2019_03_15 12:49;30;0;1;practice;48;12;1;45;86;0;0;0.97999999999999998;0.02;0.0;0.0;6;23;95;81;0.14999999999999999;0.40999999999999998;0.050000000000000003;0.39000000000000001;0;5.433107575228405;4;59;20;2;
2019_03_15 12:49;30;0;1;practice;49;60;1;39;93;27;78;0.85999999999999999;0.02;0.11;0.01;22;5;62;95;0.059999999999999998;0.56999999999999995;0.14000000000000001;0.23000000000000001;1;30.432520328332203;4;59;20;2;
2019_03_15 12:49;30;0;1;practice;50;22;1;84;87;0;0;0.17000000000000001;0.82999999999999996;0.0;0.0;3;24;41;83;0.68000000000000005;0.11;0.10000000000000001;0.11;0;4.749965602277598;4;59;20;2;
2019_03_15 12:49;30;0;1;practice;51;32;0;21;86;16;78;0.45000000000000001;0.41999999999999998;0.050000000000000003;0.080000000000000099;95;9;0;0;0.42999999999999999;0.56999999999999995;0.0;0.0;0;9.299690276172669;4;59;20;2;
2019_03_15 12:49;30;0;1;practice;52;6;0;42;59;0;0;0.35999999999999999;0.64000000000000001;0.0;0.0;77;19;6;7;0.44;0.14999999999999999;0.17999999999999999;0.23000000000000001;0;16.44940423786352;4;59;20;2;
2019_03_15 12:49;30;0;1;practice;53;11;1;10;44;0;0;0.48999999999999999;0.51000000000000001;0.0;0.0;88;12;54;50;0.17000000000000001;0.75;0.02;0.059999999999999998;0;9.21637402142892;4;59;20;2;
2019_03_15 12:49;30;0;1;practice;54;5;1;23;58;0;0;0.71999999999999997;0.28000000000000003;0.0;0.0;94;12;52;3;0.11;0.84999999999999998;0.029999999999999999;0.01;0;8.716359107731023;4;59;20;2;
2019_03_15 12:49;30;0;1;practice;55;70;1;21;42;14;63;0.96999999999999997;0.01;0.01;0.01;70;2;6;76;0.23999999999999999;0.42999999999999999;0.01;0.32000000000000001;0;15.866114763630776;4;59;20;2;
2019_03_15 12:49;30;0;1;practice;56;43;1;11;17;21;44;0.16;0.46000000000000002;0.25;0.13;2;66;0;0;0.44;0.56000000000000005;0.0;0.0;0;12.18313700171825;4;59;20;2;
2019_03_15 12:49;30;0;1;practice;57;36;0;56;89;86;77;0.66000000000000003;0.080000000000000002;0.14999999999999999;0.11;29;91;0;0;0.40999999999999998;0.58999999999999997;0.0;0.0;1;11.84960417763159;4;59;20;2;
2019_03_15 12:49;30;0;1;practice;58;75;1;21;86;27;62;0.88;0.040000000000000001;0.070000000000000007;0.0099999999999999794;13;3;49;87;0.28999999999999998;0.39000000000000001;0.070000000000000007;0.25;0;9.433019696665042;4;59;20;2;
2019_03_15 12:49;30;0;1;practice;59;59;1;13;27;48;51;0.56999999999999995;0.13;0.13;0.17000000000000001;8;37;97;1;0.65000000000000002;0.16;0.14999999999999999;0.040000000000000001;0;10.882995145190534;4;59;20;2;
2019_03_15 12:49;30;0;1;practice;60;47;0;91;99;90;78;0.93000000000000005;0.040000000000000001;0.02;0.0099999999999999499;10;87;0;0;0.23000000000000001;0.77000000000000002;0.0;0.0;0;30.78233442026908;4;59;20;2;
2019_03_15 12:49;30;0;1;practice;61;58;1;44;50;85;42;0.38;0.57999999999999996;0.02;0.02;37;88;19;12;0.20000000000000001;0.29999999999999999;0.46000000000000002;0.040000000000000001;0;17.132758530554838;4;59;20;2;
2019_03_15 12:49;30;0;1;practice;62;65;1;35;15;77;1;0.62;0.33000000000000002;0.029999999999999999;0.02;68;3;25;96;0.38;0.28000000000000003;0.28000000000000003;0.059999999999999901;0;10.132996187545587;4;59;20;2;
2019_03_15 12:49;30;0;1;practice;63;68;1;39;58;40;8;0.48999999999999999;0.44;0.02;0.050000000000000003;92;83;51;2;0.57999999999999996;0.13;0.02;0.27000000000000002;0;23.48265857670731;4;59;20;2;
2019_03_15 12:49;30;0;1;practice;64;2;1;41;60;0;0;0.97999999999999998;0.02;0.0;0.0;10;14;97;6;0.54000000000000004;0.17000000000000001;0.12;0.17000000000000001;0;6.883089438247453;4;59;20;2;
2019_03_15 12:49;30;0;1;practice;65;63;1;24;82;6;96;0.91000000000000003;0.070000000000000007;0.01;0.0099999999999999603;73;10;71;22;0.31;0.51000000000000001;0.050000000000000003;0.13;0;15.699619845032203;4;59;20;2;
2019_03_15 12:49;30;0;1;practice;66;1;1;67;36;0;0;0.14999999999999999;0.84999999999999998;0.0;0.0;1;4;81;77;0.25;0.54000000000000004;0.14000000000000001;0.070000000000000007;0;10.749746547318637;4;59;20;2;
2019_03_15 12:49;30;0;1;practice;67;33;1;54;82;55;71;0.56000000000000005;0.20999999999999999;0.02;0.20999999999999999;13;99;0;0;0.5;0.5;0.0;0.0;0;15.232980504108582;4;59;20;2;
2019_03_15 12:49;30;0;1;practice;68;19;0;25;73;0;0;0.69999999999999996;0.29999999999999999;0.0;0.0;87;84;1;86;0.040000000000000001;0.59999999999999998;0.28000000000000003;0.080000000000000002;0;13.033007380837034;4;59;20;2;
2019_03_15 12:49;30;0;1;practice;69;21;0;59;69;0;0;0.34000000000000002;0.66000000000000003;0.0;0.0;64;18;5;24;0.14999999999999999;0.040000000000000001;0.51000000000000001;0.29999999999999999;0;11.649591284499138;4;59;20;2;
2019_03_15 12:49;30;0;1;practice;70;73;0;99;88;95;28;0.83999999999999997;0.14000000000000001;0.01;0.01;90;93;10;74;0.080000000000000002;0.46000000000000002;0.34999999999999998;0.11;0;10.73294249823357;4;59;20;2;
2019_03_15 12:49;30;0;1;practice;71;20;0;32;11;0;0;0.40999999999999998;0.58999999999999997;0.0;0.0;1;86;42;65;0.45000000000000001;0.38;0.050000000000000003;0.12;0;7.366380484031424;4;59;20;2;
2019_03_15 12:49;30;0;1;practice;72;9;0;57;44;0;0;0.14999999999999999;0.84999999999999998;0.0;0.0;38;35;64;95;0.34000000000000002;0.45000000000000001;0.089999999999999997;0.12;0;19.182695043103877;4;59;20;2;
2019_03_15 12:49;30;0;1;practice;73;13;0;15;25;0;0;0.29999999999999999;0.69999999999999996;0.0;0.0;3;43;35;73;0.44;0.40000000000000002;0.01;0.14999999999999999;0;5.049806939776545;4;59;20;2;
2019_03_15 12:49;30;0;1;practice;74;64;0;44;60;96;45;0.53000000000000003;0.10000000000000001;0.029999999999999999;0.34000000000000002;88;20;43;31;0.47999999999999998;0.38;0.050000000000000003;0.089999999999999997;1;28.565882783466805;4;59;20;2;
2019_03_15 12:49;30;0;1;practice;75;48;0;20;25;24;35;0.32000000000000001;0.13;0.48999999999999999;0.059999999999999901;44;76;0;0;0.29999999999999999;0.69999999999999996;0.0;0.0;1;11.166264959000273;4;59;20;2;
2019_03_15 12:49;30;1;1;timed;1;93;0;87;81;73;98;0.80000000000000004;0.040000000000000001;0.14999999999999999;0.0099999999999999499;5;71;0;0;0.51000000000000001;0.48999999999999999;0.0;0.0;0;5.255706413756116;4;59;20;2;
2019_03_15 12:49;30;1;1;timed;2;34;0;32;48;0;0;0.28000000000000003;0.71999999999999997;0.0;0.0;97;83;7;62;0.040000000000000001;0.54000000000000004;0.35999999999999999;0.059999999999999901;0;4.916484575227287;4;59;20;2;
2019_03_15 12:49;30;1;1;timed;3;82;1;78;66;30;27;0.28999999999999998;0.58999999999999997;0.080000000000000002;0.040000000000000001;90;6;0;0;0.82999999999999996;0.17000000000000001;0.0;0.0;0;3.6498369596070006;4;59;20;2;
2019_03_15 12:49;30;1;1;timed;4;25;0;50;53;0;0;0.82999999999999996;0.17000000000000001;0.0;0.0;83;16;97;4;0.45000000000000001;0.29999999999999999;0.11;0.14000000000000001;0;6.316527039175526;4;59;20;2;
2019_03_15 12:49;30;1;1;timed;5;119;0;60;58;11;18;0.25;0.72999999999999998;0.01;0.01;96;23;42;85;0.44;0.48999999999999999;0.059999999999999998;0.010000000000000101;0;7.216370814182028;4;59;20;2;
2019_03_15 12:49;30;1;1;timed;6;40;1;45;49;0;0;0.68999999999999995;0.31;0.0;0.0;2;92;65;73;0.23999999999999999;0.59999999999999998;0.11;0.050000000000000003;0;4.649806170037664;4;59;20;2;
2019_03_15 12:49;30;1;1;timed;7;122;1;35;58;25;31;0.81999999999999995;0.070000000000000007;0.080000000000000002;0.029999999999999999;18;64;68;89;0.63;0.17000000000000001;0.11;0.089999999999999997;1;6.033103598242633;4;59;20;2;
2019_03_15 12:49;30;1;1;timed;8;4;1;40;43;0;0;0.58999999999999997;0.40999999999999998;0.0;0.0;2;33;88;81;0.69999999999999996;0.14000000000000001;0.13;0.029999999999999999;0;4.216628035378562;4;59;20;2;
2019_03_15 12:49;30;1;1;timed;9;132;0;27;70;21;19;0.64000000000000001;0.23000000000000001;0.029999999999999999;0.10000000000000001;11;85;55;6;0.39000000000000001;0.46999999999999997;0.029999999999999999;0.11;1;4.883133056804581;4;59;20;2;
2019_03_15 12:49;30;1;1;timed;10;108;1;48;72;39;70;0.14000000000000001;0.66000000000000003;0.02;0.17999999999999999;81;44;98;8;0.59999999999999998;0.029999999999999999;0.050000000000000003;0.32000000000000001;0;7.066396103323314;4;59;20;2;
2019_03_15 12:49;30;1;1;timed;11;137;1;71;22;28;17;0.25;0.46000000000000002;0.050000000000000003;0.23999999999999999;3;98;92;69;0.42999999999999999;0.23999999999999999;0.20000000000000001;0.13;0;3.4001454165718314;4;59;20;2;
2019_03_15 12:49;30;1;1;timed;12;111;1;51;36;48;27;0.93000000000000005;0.01;0.01;0.049999999999999899;31;78;30;53;0.55000000000000004;0.16;0.029999999999999999;0.26000000000000001;1;4.983144634965811;4;59;20;2;
2019_03_15 12:49;30;1;1;timed;13;52;1;71;51;10;54;0.22;0.12;0.19;0.46999999999999997;91;1;0;0;0.29999999999999999;0.69999999999999996;0.0;0.0;0;1.8165374627278652;4;59;20;2;
2019_03_15 12:49;30;1;1;timed;14;49;0;21;30;0;0;0.53000000000000003;0.46999999999999997;0.0;0.0;93;99;89;25;0.44;0.02;0.11;0.42999999999999999;0;3.8665243290520266;4;59;20;2;
2019_03_15 12:49;30;1;1;timed;15;120;1;64;40;48;51;0.19;0.02;0.070000000000000007;0.71999999999999997;97;9;79;94;0.23000000000000001;0.54000000000000004;0.01;0.22;0;5.566518780515253;4;59;20;2;
2019_03_15 12:49;30;1;1;timed;16;14;0;36;40;0;0;0.54000000000000004;0.46000000000000002;0.0;0.0;99;70;1;11;0.16;0.089999999999999997;0.080000000000000002;0.67000000000000004;0;2.783206149959824;4;59;20;2;
2019_03_15 12:49;30;1;1;timed;17;10;1;45;62;0;0;0.059999999999999998;0.93999999999999995;0.0;0.0;17;99;28;67;0.58999999999999997;0.34000000000000002;0.01;0.059999999999999998;0;4.949939366998478;4;59;20;2;
2019_03_15 12:49;30;1;1;timed;18;143;1;88;44;56;73;0.95999999999999996;0.02;0.01;0.01;20;3;87;32;0.19;0.40000000000000002;0.28000000000000003;0.13;0;3.5998494518335065;4;59;20;2;
2019_03_15 12:49;30;1;1;timed;19;62;0;12;45;16;50;0.20999999999999999;0.76000000000000001;0.02;0.01;92;15;0;0;0.20999999999999999;0.79000000000000004;0.0;0.0;0;4.849800781862541;4;59;20;2;
2019_03_15 12:49;30;1;1;timed;20;138;1;8;20;43;51;0.38;0.5;0.02;0.10000000000000001;72;82;70;1;0.39000000000000001;0.050000000000000003;0.070000000000000007;0.48999999999999999;0;3.2998451861949434;4;59;20;2;
2019_03_15 12:49;30;1;1;timed;21;96;1;51;54;39;7;0.17000000000000001;0.26000000000000001;0.10000000000000001;0.46999999999999997;24;96;0;0;0.28000000000000003;0.71999999999999997;0.0;0.0;1;2.549907486964912;4;59;20;2;
2019_03_15 12:49;30;1;1;timed;22;29;0;44;51;0;0;0.78000000000000003;0.22;0.0;0.0;74;1;68;82;0.69999999999999996;0.28000000000000003;0.01;0.01;0;3.7498584802333426;4;59;20;2;
2019_03_15 12:49;30;1;1;timed;23;146;0;25;5;64;35;0.94999999999999996;0.02;0.01;0.02;47;97;12;79;0.20999999999999999;0.029999999999999999;0.02;0.73999999999999999;1;5.74990819255936;4;59;20;2;
2019_03_15 12:49;30;1;1;timed;24;85;0;31;22;82;50;0.11;0.69999999999999996;0.01;0.17999999999999999;3;99;0;0;0.62;0.38;0.0;0.0;0;3.449839140535005;4;59;20;2;
2019_03_15 12:49;30;1;1;timed;25;128;0;70;49;27;54;0.27000000000000002;0.53000000000000003;0.02;0.17999999999999999;72;97;6;20;0.29999999999999999;0.39000000000000001;0.22;0.0899999999999999;0;3.8664880871629066;4;59;20;2;
2019_03_15 12:49;30;1;1;timed;26;48;0;13;32;0;0;0.90000000000000002;0.10000000000000001;0.0;0.0;24;99;84;94;0.62;0.14999999999999999;0.20000000000000001;0.029999999999999999;1;5.016446761786938;4;59;20;2;
2019_03_15 12:49;30;1;1;timed;27;104;0;55;85;93;3;0.87;0.02;0.089999999999999997;0.02;1;2;90;8;0.35999999999999999;0.070000000000000007;0.40000000000000002;0.17000000000000001;0;4.299838450976495;4;59;20;2;
2019_03_15 12:49;30;1;1;timed;28;67;0;44;42;8;89;0.88;0.070000000000000007;0.029999999999999999;0.02;10;63;0;0;0.39000000000000001;0.60999999999999999;0.0;0.0;1;4.9498229439386705;4;59;20;2;
2019_03_15 12:49;30;1;1;timed;29;134;1;57;48;50;55;0.02;0.62;0.17999999999999999;0.17999999999999999;80;96;15;18;0.23999999999999999;0.35999999999999999;0.33000000000000002;0.070000000000000007;0;6.666412973441766;4;59;20;2;
2019_03_15 12:49;30;1;1;timed;30;33;1;27;70;0;0;0.88;0.12;0.0;0.0;93;3;77;16;0.080000000000000002;0.40000000000000002;0.5;0.02;0;4.749810371530657;4;59;20;2;
2019_03_15 12:49;30;1;1;timed;31;60;0;64;59;57;96;0.83999999999999997;0.13;0.02;0.01;83;6;0;0;0.54000000000000004;0.46000000000000002;0.0;0.0;0;5.816457602281389;4;59;20;2;
2019_03_15 12:49;30;1;1;timed;32;70;0;66;55;69;50;0.22;0.29999999999999999;0.29999999999999999;0.17999999999999999;2;90;0;0;0.34000000000000002;0.66000000000000003;0.0;0.0;0;3.9997953776519353;4;59;20;2;
2019_03_15 12:49;30;1;1;timed;33;116;1;53;65;43;99;0.56999999999999995;0.37;0.050000000000000003;0.010000000000000101;57;72;11;87;0.67000000000000004;0.13;0.14999999999999999;0.050000000000000003;1;6.166542706576365;4;59;20;2;
2019_03_15 12:49;30;1;1;timed;34;59;0;56;47;83;90;0.31;0.12;0.54000000000000004;0.029999999999999898;10;98;0;0;0.46999999999999997;0.53000000000000003;0.0;0.0;0;6.349783943816419;4;59;20;2;
2019_03_15 12:49;30;1;1;timed;35;63;1;56;78;42;36;0.93000000000000005;0.040000000000000001;0.01;0.0199999999999999;2;72;0;0;0.32000000000000001;0.68000000000000005;0.0;0.0;0;4.316618445710446;4;59;20;2;
2019_03_15 12:49;30;1;1;timed;36;36;1;70;17;0;0;0.33000000000000002;0.67000000000000004;0.0;0.0;84;1;12;88;0.22;0.27000000000000002;0.14000000000000001;0.37;0;4.649803604239878;4;59;20;2;
2019_03_15 12:49;30;1;1;timed;37;117;1;65;85;92;41;0.23000000000000001;0.17999999999999999;0.54000000000000004;0.050000000000000003;99;93;10;13;0.64000000000000001;0.16;0.01;0.19;0;5.099731264787806;4;59;20;2;
2019_03_15 12:49;30;1;1;timed;38;81;1;67;38;52;65;0.27000000000000002;0.35999999999999999;0.01;0.35999999999999999;2;77;0;0;0.14000000000000001;0.85999999999999999;0.0;0.0;0;4.733142630436305;4;59;20;2;
2019_03_15 12:49;30;1;1;timed;39;39;1;14;33;0;0;0.78000000000000003;0.22;0.0;0.0;93;84;1;25;0.14000000000000001;0.23999999999999999;0.39000000000000001;0.23000000000000001;0;3.483317345207979;4;59;20;2;
2019_03_15 12:49;30;1;1;timed;40;8;1;50;36;0;0;0.080000000000000002;0.92000000000000004;0.0;0.0;6;19;84;29;0.54000000000000004;0.070000000000000007;0.17000000000000001;0.22;0;5.183145019835138;4;59;20;2;
2019_03_15 12:49;30;1;1;timed;41;123;1;26;24;51;92;0.72999999999999998;0.16;0.070000000000000007;0.040000000000000001;6;90;82;49;0.64000000000000001;0.25;0.050000000000000003;0.059999999999999998;0;6.349891386586023;4;59;20;2;
2019_03_15 12:49;30;1;1;timed;42;28;0;47;30;0;0;0.97999999999999998;0.02;0.0;0.0;55;48;77;13;0.070000000000000007;0.26000000000000001;0.42999999999999999;0.23999999999999999;0;3.3166736103557923;4;59;20;2;
2019_03_15 12:49;30;1;1;timed;43;89;0;26;41;13;56;0.059999999999999998;0.40999999999999998;0.050000000000000003;0.47999999999999998;5;97;0;0;0.37;0.63;0.0;0.0;0;5.216499424780068;4;59;20;2;
2019_03_15 12:49;30;1;1;timed;44;78;1;74;36;34;3;0.14999999999999999;0.64000000000000001;0.13;0.080000000000000002;1;83;0;0;0.41999999999999998;0.57999999999999996;0.0;0.0;0;2.683224399194387;4;59;20;2;
2019_03_15 12:49;30;1;1;timed;45;53;0;26;70;50;80;0.29999999999999999;0.59999999999999998;0.040000000000000001;0.059999999999999998;89;1;0;0;0.40999999999999998;0.58999999999999997;0.0;0.0;0;2.8333421532620378;4;59;20;2;
2019_03_15 12:49;30;1;1;timed;46;26;1;76;41;0;0;0.57999999999999996;0.41999999999999998;0.0;0.0;61;79;84;2;0.13;0.029999999999999999;0.67000000000000004;0.17000000000000001;0;4.549816080429991;4;59;20;2;
2019_03_15 12:49;30;1;1;timed;47;92;0;90;86;65;94;0.16;0.34000000000000002;0.28000000000000003;0.22;79;22;0;0;0.35999999999999999;0.64000000000000001;0.0;0.0;0;3.7498411611004485;4;59;20;2;
2019_03_15 12:49;30;1;1;timed;48;129;1;12;29;81;36;0.17999999999999999;0.79000000000000004;0.01;0.02;5;19;95;92;0.47999999999999998;0.26000000000000001;0.13;0.13;0;5.849771595916081;4;59;20;2;
2019_03_15 12:49;30;1;1;timed;49;114;1;57;39;79;97;0.77000000000000002;0.02;0.13;0.080000000000000002;92;36;6;1;0.54000000000000004;0.12;0.13;0.20999999999999999;0;4.033185703761319;4;59;20;2;
2019_03_15 12:49;30;1;1;timed;50;6;0;9;51;0;0;0.14999999999999999;0.84999999999999998;0.0;0.0;6;40;50;73;0.42999999999999999;0.26000000000000001;0.059999999999999998;0.25;1;5.5331130596205185;4;59;20;2;
2019_03_15 12:49;30;1;1;timed;51;125;1;37;41;10;35;0.91000000000000003;0.040000000000000001;0.029999999999999999;0.02;7;13;91;93;0.26000000000000001;0.39000000000000001;0.16;0.19;0;4.69994153189009;4;59;20;2;
2019_03_15 12:49;30;1;1;timed;52;64;0;48;39;34;19;0.46000000000000002;0.5;0.02;0.02;13;92;0;0;0.68999999999999995;0.31;0.0;0.0;0;5.716500868041294;4;59;20;2;
2019_03_15 12:49;30;1;1;timed;53;9;0;61;69;0;0;0.93999999999999995;0.060000000000000102;0.0;0.0;18;93;72;16;0.40999999999999998;0.34999999999999998;0.089999999999999997;0.14999999999999999;0;3.5498164011551125;4;59;20;2;
2019_03_15 12:49;30;1;1;timed;54;72;0;63;82;51;61;0.01;0.96999999999999997;0.01;0.01;92;12;0;0;0.89000000000000001;0.11;0.0;0.0;0;3.9664845912639066;4;59;20;2;
2019_03_15 12:49;30;1;1;timed;55;68;1;84;27;55;62;0.01;0.050000000000000003;0.40999999999999998;0.53000000000000003;9;82;0;0;0.37;0.63;0.0;0.0;0;6.583101529568012;4;59;20;2;
2019_03_15 12:49;30;1;1;timed;56;30;0;33;30;0;0;0.71999999999999997;0.28000000000000003;0.0;0.0;9;88;1;14;0.55000000000000004;0.39000000000000001;0.01;0.049999999999999899;0;3.8332924409360203;4;59;20;2;
2019_03_15 12:49;30;1;1;timed;57;136;0;29;67;14;75;0.46000000000000002;0.29999999999999999;0.20999999999999999;0.0300000000000001;70;86;1;85;0.31;0.39000000000000001;0.27000000000000002;0.029999999999999898;1;4.666456271274001;4;59;20;2;
2019_03_15 12:49;30;1;1;timed;58;13;0;52;56;0;0;0.46999999999999997;0.53000000000000003;0.0;0.0;94;71;27;2;0.089999999999999997;0.31;0.57999999999999996;0.020000000000000101;0;2.98320172395961;4;59;20;2;
2019_03_15 12:49;30;1;1;timed;59;124;0;37;65;15;41;0.17999999999999999;0.45000000000000001;0.02;0.34999999999999998;40;7;98;30;0.070000000000000007;0.45000000000000001;0.45000000000000001;0.029999999999999898;0;5.899754934268913;4;59;20;2;
2019_03_15 12:49;30;1;1;timed;60;31;1;10;59;0;0;0.23999999999999999;0.76000000000000001;0.0;0.0;1;79;53;73;0.23000000000000001;0.58999999999999997;0.050000000000000003;0.13;0;2.7165383928290794;4;59;20;2;
2019_03_15 12:49;30;1;1;timed;61;12;0;53;68;0;0;0.31;0.68999999999999995;0.0;0.0;69;54;97;29;0.25;0.20999999999999999;0.20000000000000001;0.34000000000000002;0;3.7831920380740485;4;59;20;2;
2019_03_15 12:49;30;1;1;timed;62;142;0;98;65;64;84;0.88;0.070000000000000007;0.01;0.040000000000000001;5;68;60;16;0.46000000000000002;0.080000000000000002;0.27000000000000002;0.19;0;4.866605151672502;4;59;20;2;
2019_03_15 12:49;30;1;1;timed;63;77;1;24;17;99;41;0.17999999999999999;0.13;0.10000000000000001;0.58999999999999997;12;97;0;0;0.59999999999999998;0.40000000000000002;0.0;0.0;1;2.899870395155176;4;59;20;2;
2019_03_15 12:49;30;1;1;timed;64;76;1;39;62;9;28;0.01;0.51000000000000001;0.26000000000000001;0.22;77;7;0;0;0.57999999999999996;0.41999999999999998;0.0;0.0;0;3.8499707659448177;4;59;20;2;
2019_03_15 12:49;30;1;1;timed;65;17;1;81;52;0;0;0.059999999999999998;0.93999999999999995;0.0;0.0;34;3;69;41;0.01;0.22;0.75;0.02;0;3.8164762043134033;4;59;20;2;
2019_03_15 12:49;30;1;1;timed;66;11;1;17;36;0;0;0.14000000000000001;0.85999999999999999;0.0;0.0;19;41;34;95;0.88;0.02;0.050000000000000003;0.050000000000000003;1;4.84981585592277;4;59;20;2;
2019_03_15 12:49;30;1;1;timed;67;1;0;22;51;0;0;0.26000000000000001;0.73999999999999999;0.0;0.0;14;11;92;31;0.29999999999999999;0.40999999999999998;0.14999999999999999;0.14000000000000001;0;6.416426042972489;4;59;20;2;
2019_03_15 12:49;30;1;1;timed;68;23;1;54;40;0;0;0.93000000000000005;0.070000000000000007;0.0;0.0;36;23;71;86;0.02;0.41999999999999998;0.19;0.37;0;2.6000101349000033;4;59;20;2;
2019_03_15 12:49;30;1;1;timed;69;97;1;17;33;32;74;0.94999999999999996;0.01;0.029999999999999999;0.01;76;23;0;0;0.33000000000000002;0.67000000000000004;0.0;0.0;0;5.21657832305209;4;59;20;2;
2019_03_15 12:49;30;1;1;timed;70;105;0;49;74;63;58;0.84999999999999998;0.080000000000000002;0.02;0.050000000000000003;97;5;86;8;0.25;0.52000000000000002;0.070000000000000007;0.16;0;3.016546507163639;4;59;20;2;
2019_03_15 12:49;30;1;1;timed;71;91;1;74;81;86;48;0.93000000000000005;0.02;0.01;0.039999999999999897;7;64;0;0;0.13;0.87;0.0;0.0;0;2.816537142003199;4;59;20;2;
2019_03_15 12:49;30;1;1;timed;72;42;0;70;48;0;0;0.79000000000000004;0.20999999999999999;0.0;0.0;51;8;12;67;0.19;0.26000000000000001;0.28999999999999998;0.26000000000000001;0;3.1499756730327135;4;59;20;2;
2019_03_15 12:49;30;1;1;timed;73;115;0;50;28;61;79;0.83999999999999997;0.040000000000000001;0.059999999999999998;0.059999999999999998;1;26;97;55;0.45000000000000001;0.080000000000000002;0.40999999999999998;0.060000000000000102;0;2.9333748992521578;4;59;20;2;
2019_03_15 12:49;30;1;1;timed;74;2;0;59;32;0;0;0.080000000000000002;0.92000000000000004;0.0;0.0;33;38;85;1;0.28999999999999998;0.050000000000000003;0.070000000000000007;0.58999999999999997;0;5.383268242258964;4;59;20;2;
2019_03_15 12:49;30;1;1;timed;75;66;0;89;23;27;15;0.070000000000000007;0.54000000000000004;0.17000000000000001;0.22;9;73;0;0;0.72999999999999998;0.27000000000000002;0.0;0.0;0;4.6831323512101335;4;59;20;2;
2019_03_15 12:49;30;2;1;control;1;70;0;66;55;69;50;0.22;0.29999999999999999;0.29999999999999999;0.17999999999999999;2;90;0;0;0.34000000000000002;0.66000000000000003;0.0;0.0;0;8.111757157532793;4;59;20;2;
2019_03_15 12:49;30;2;1;control;2;107;1;52;48;13;63;0.68000000000000005;0.19;0.050000000000000003;0.079999999999999905;54;91;33;3;0.19;0.17999999999999999;0.33000000000000002;0.29999999999999999;0;13.032870752121653;4;59;20;2;
2019_03_15 12:49;30;2;1;control;3;4;0;40;43;0;0;0.58999999999999997;0.40999999999999998;0.0;0.0;2;33;88;81;0.69999999999999996;0.14000000000000001;0.13;0.029999999999999999;0;4.816430019958716;4;59;20;2;
2019_03_15 12:49;30;2;1;control;4;65;1;75;64;59;52;0.59999999999999998;0.22;0.14000000000000001;0.040000000000000001;1;99;0;0;0.35999999999999999;0.64000000000000001;0.0;0.0;0;7.083064485866998;4;59;20;2;
2019_03_15 12:49;30;2;1;control;5;53;1;26;70;50;80;0.29999999999999999;0.59999999999999998;0.040000000000000001;0.059999999999999998;89;1;0;0;0.40999999999999998;0.58999999999999997;0.0;0.0;0;5.516592531155766;4;59;20;2;
2019_03_15 12:49;30;2;1;control;6;35;0;33;37;0;0;0.88;0.12;0.0;0.0;63;4;79;98;0.16;0.46000000000000002;0.17000000000000001;0.20999999999999999;0;6.69990047913052;4;59;20;2;
2019_03_15 12:49;30;2;1;control;7;83;0;17;12;7;41;0.65000000000000002;0.19;0.089999999999999997;0.070000000000000007;6;84;0;0;0.72999999999999998;0.27000000000000002;0.0;0.0;0;14.482982508637633;4;59;20;2;
2019_03_15 12:49;30;2;1;control;8;18;1;68;50;0;0;0.029999999999999999;0.96999999999999997;0.0;0.0;34;64;15;89;0.65000000000000002;0.029999999999999999;0.050000000000000003;0.27000000000000002;0;6.916414977970817;4;59;20;2;
2019_03_15 12:49;30;2;1;control;9;10;0;45;62;0;0;0.059999999999999998;0.93999999999999995;0.0;0.0;17;99;28;67;0.58999999999999997;0.34000000000000002;0.01;0.059999999999999998;0;4.983204289756941;4;59;20;2;
2019_03_15 12:49;30;2;1;control;10;110;0;47;44;23;52;0.13;0.27000000000000002;0.040000000000000001;0.56000000000000005;99;2;30;22;0.28999999999999998;0.5;0.11;0.10000000000000001;0;10.23296029845369;4;59;20;2;
2019_03_15 12:49;30;2;1;control;11;139;0;44;31;16;8;0.79000000000000004;0.070000000000000007;0.13;0.0099999999999999499;92;58;2;88;0.55000000000000004;0.070000000000000007;0.34000000000000002;0.039999999999999897;0;5.616574602646324;4;59;20;2;
2019_03_15 12:49;30;2;1;control;12;146;0;25;5;64;35;0.94999999999999996;0.02;0.01;0.02;47;97;12;79;0.20999999999999999;0.029999999999999999;0.02;0.73999999999999999;1;8.983004478278872;4;59;20;2;
2019_03_15 12:49;30;2;1;control;13;33;0;27;70;0;0;0.88;0.12;0.0;0.0;93;3;77;16;0.080000000000000002;0.40000000000000002;0.5;0.02;0;6.849741768520744;4;59;20;2;
2019_03_15 12:49;30;2;1;control;14;31;1;10;59;0;0;0.23999999999999999;0.76000000000000001;0.0;0.0;1;79;53;73;0.23000000000000001;0.58999999999999997;0.050000000000000003;0.13;0;4.76646303856478;4;59;20;2;
2019_03_15 12:49;30;2;1;control;15;147;0;39;43;76;28;0.14000000000000001;0.10000000000000001;0.10000000000000001;0.66000000000000003;6;31;68;85;0.27000000000000002;0.20000000000000001;0.22;0.31;0;10.89961509830664;4;59;20;2;
2019_03_15 12:49;30;2;1;control;16;55;1;74;55;47;48;0.60999999999999999;0.31;0.070000000000000007;0.01;97;6;0;0;0.42999999999999999;0.56999999999999995;0.0;0.0;0;8.08303465847166;4;59;20;2;
2019_03_15 12:49;30;2;1;control;17;14;0;36;40;0;0;0.54000000000000004;0.46000000000000002;0.0;0.0;99;70;1;11;0.16;0.089999999999999997;0.080000000000000002;0.67000000000000004;0;6.3997743381123655;4;59;20;2;
2019_03_15 12:49;30;2;1;control;18;137;0;71;22;28;17;0.25;0.46000000000000002;0.050000000000000003;0.23999999999999999;3;98;92;69;0.42999999999999999;0.23999999999999999;0.20000000000000001;0.13;0;7.233042724697498;4;59;20;2;
2019_03_15 12:49;30;2;1;control;19;131;1;83;41;81;88;0.23999999999999999;0.58999999999999997;0.10000000000000001;0.070000000000000007;82;97;4;17;0.26000000000000001;0.46999999999999997;0.11;0.16;0;9.949648790434821;4;59;20;2;
2019_03_15 12:49;30;2;1;control;20;90;1;27;44;50;72;0.68000000000000005;0.28999999999999998;0.02;0.0099999999999999707;6;96;0;0;0.46999999999999997;0.53000000000000003;0.0;0.0;0;5.5165899653588895;4;59;20;2;
2019_03_15 12:49;30;2;1;control;21;148;1;37;63;55;10;0.72999999999999998;0.070000000000000007;0.029999999999999999;0.17000000000000001;80;14;23;70;0.46999999999999997;0.10000000000000001;0.23000000000000001;0.20000000000000001;1;11.932911452084227;4;59;20;2;
2019_03_15 12:49;30;2;1;control;22;6;0;9;51;0;0;0.14999999999999999;0.84999999999999998;0.0;0.0;6;40;50;73;0.42999999999999999;0.26000000000000001;0.059999999999999998;0.25;0;7.783172794592701;4;59;20;2;
2019_03_15 12:49;30;2;1;control;23;93;0;87;81;73;98;0.80000000000000004;0.040000000000000001;0.14999999999999999;0.0099999999999999499;5;71;0;0;0.51000000000000001;0.48999999999999999;0.0;0.0;0;5.3668516285920305;4;59;20;2;
2019_03_15 12:49;30;2;1;control;24;17;1;81;52;0;0;0.059999999999999998;0.93999999999999995;0.0;0.0;34;3;69;41;0.01;0.22;0.75;0.02;0;12.366245138214708;4;59;20;2;
2019_03_15 12:49;30;2;1;control;25;102;1;40;56;53;17;0.28000000000000003;0.26000000000000001;0.14999999999999999;0.31;1;76;29;62;0.68000000000000005;0.23000000000000001;0.050000000000000003;0.039999999999999897;0;7.116527937204864;4;59;20;2;
2019_03_15 12:49;30;2;1;control;26;67;1;44;42;8;89;0.88;0.070000000000000007;0.029999999999999999;0.02;10;63;0;0;0.39000000000000001;0.60999999999999999;0.0;0.0;0;8.183035011268657;4;59;20;2;
2019_03_15 12:49;30;2;1;control;27;123;1;26;24;51;92;0.72999999999999998;0.16;0.070000000000000007;0.040000000000000001;6;90;82;49;0.64000000000000001;0.25;0.050000000000000003;0.059999999999999998;0;12.43303252565238;4;59;20;2;
2019_03_15 12:49;30;2;1;control;28;91;1;74;81;86;48;0.93000000000000005;0.02;0.01;0.039999999999999897;7;64;0;0;0.13;0.87;0.0;0.0;0;3.8166301521614514;4;59;20;2;
2019_03_15 12:49;30;2;1;control;29;62;0;12;45;16;50;0.20999999999999999;0.76000000000000001;0.02;0.01;92;15;0;0;0.20999999999999999;0.79000000000000004;0.0;0.0;0;9.149816272864882;4;59;20;2;
2019_03_15 12:49;30;2;1;control;30;98;0;27;10;31;79;0.23000000000000001;0.67000000000000004;0.070000000000000007;0.029999999999999999;25;99;0;0;0.38;0.62;0.0;0.0;1;7.883028821282551;4;59;20;2;
2019_03_15 12:49;30;2;1;control;31;103;1;38;49;89;50;0.89000000000000001;0.070000000000000007;0.01;0.029999999999999999;6;64;99;27;0.70999999999999996;0.17999999999999999;0.059999999999999998;0.050000000000000003;0;6.499883416577177;4;59;20;2;
2019_03_15 12:49;30;2;1;control;32;80;1;47;39;45;10;0.13;0.76000000000000001;0.059999999999999998;0.050000000000000003;2;87;0;0;0.48999999999999999;0.51000000000000001;0.0;0.0;0;12.866370381203978;4;59;20;2;
2019_03_15 12:49;30;2;1;control;33;8;0;50;36;0;0;0.080000000000000002;0.92000000000000004;0.0;0.0;6;19;84;29;0.54000000000000004;0.070000000000000007;0.17000000000000001;0.22;0;8.316578996574663;4;59;20;2;
2019_03_15 12:49;30;2;1;control;34;59;1;56;47;83;90;0.31;0.12;0.54000000000000004;0.029999999999999898;10;98;0;0;0.46999999999999997;0.53000000000000003;0.0;0.0;0;8.7830178845702;4;59;20;2;
2019_03_15 12:49;30;2;1;control;35;72;0;63;82;51;61;0.01;0.96999999999999997;0.01;0.01;92;12;0;0;0.89000000000000001;0.11;0.0;0.0;0;13.316395542055488;4;59;20;2;
2019_03_15 12:49;30;2;1;control;36;144;0;99;93;90;71;0.65000000000000002;0.32000000000000001;0.01;0.02;97;14;48;73;0.23000000000000001;0.46000000000000002;0.13;0.17999999999999999;0;12.149590161962806;4;59;20;2;
2019_03_15 12:49;30;2;1;control;37;29;0;44;51;0;0;0.78000000000000003;0.22;0.0;0.0;74;1;68;82;0.69999999999999996;0.28000000000000003;0.01;0.01;0;5.449767618930309;4;59;20;2;
2019_03_15 12:49;30;2;1;control;38;136;1;29;67;14;75;0.46000000000000002;0.29999999999999999;0.20999999999999999;0.0300000000000001;70;86;1;85;0.31;0.39000000000000001;0.27000000000000002;0.029999999999999898;0;10.39979165724526;4;59;20;2;
2019_03_15 12:49;30;2;1;control;39;75;1;67;80;36;81;0.81999999999999995;0.080000000000000002;0.059999999999999998;0.040000000000000001;3;97;0;0;0.32000000000000001;0.68000000000000005;0.0;0.0;0;7.883169940143034;4;59;20;2;
2019_03_15 12:49;30;2;1;control;40;106;0;85;69;22;61;0.10000000000000001;0.58999999999999997;0.17999999999999999;0.13;20;79;91;84;0.55000000000000004;0.14999999999999999;0.26000000000000001;0.039999999999999897;0;13.29953664904906;4;59;20;2;
2019_03_15 12:49;30;2;1;control;41;1;0;22;51;0;0;0.26000000000000001;0.73999999999999999;0.0;0.0;14;11;92;31;0.29999999999999999;0.40999999999999998;0.14999999999999999;0.14000000000000001;0;13.616222446943539;4;59;20;2;
2019_03_15 12:49;30;2;1;control;42;142;0;98;65;64;84;0.88;0.070000000000000007;0.01;0.040000000000000001;5;68;60;16;0.46000000000000002;0.080000000000000002;0.27000000000000002;0.19;0;6.866406302368432;4;59;20;2;
2019_03_15 12:49;30;2;1;control;43;145;1;91;89;90;74;0.57999999999999996;0.29999999999999999;0.11;0.010000000000000101;2;75;84;39;0.32000000000000001;0.27000000000000002;0.39000000000000001;0.0199999999999999;0;7.383191909784273;4;59;20;2;
2019_03_15 12:49;30;2;1;control;44;76;1;39;62;9;28;0.01;0.51000000000000001;0.26000000000000001;0.22;77;7;0;0;0.57999999999999996;0.41999999999999998;0.0;0.0;0;5.9997738890979235;4;59;20;2;
2019_03_15 12:49;30;2;1;control;45;73;1;65;68;70;47;0.25;0.23000000000000001;0.20999999999999999;0.31;27;95;0;0;0.45000000000000001;0.55000000000000004;0.0;0.0;0;8.049688913092723;4;59;20;2;
2019_03_15 12:49;30;2;1;control;46;21;1;64;28;0;0;0.080000000000000002;0.92000000000000004;0.0;0.0;50;1;88;13;0.57999999999999996;0.13;0.02;0.27000000000000002;1;10.182977922274858;4;59;20;2;
2019_03_15 12:49;30;2;1;control;47;89;0;26;41;13;56;0.059999999999999998;0.40999999999999998;0.050000000000000003;0.47999999999999998;5;97;0;0;0.37;0.63;0.0;0.0;0;7.183238350718057;4;59;20;2;
2019_03_15 12:49;30;2;1;control;48;46;1;5;19;0;0;0.32000000000000001;0.68000000000000005;0.0;0.0;88;38;97;66;0.60999999999999999;0.20000000000000001;0.040000000000000001;0.14999999999999999;1;4.383306408496082;4;59;20;2;
2019_03_15 12:49;30;2;1;control;49;79;0;52;46;29;22;0.17999999999999999;0.51000000000000001;0.23999999999999999;0.070000000000000104;93;14;0;0;0.45000000000000001;0.55000000000000004;0.0;0.0;0;7.333198628966329;4;59;20;2;
2019_03_15 12:49;30;2;1;control;50;57;1;52;35;23;47;0.22;0.68000000000000005;0.040000000000000001;0.059999999999999998;71;7;0;0;0.28999999999999998;0.70999999999999996;0.0;0.0;0;6.31643338756794;4;59;20;2;
2019_03_15 12:49;30;2;1;control;51;48;0;13;32;0;0;0.90000000000000002;0.10000000000000001;0.0;0.0;24;99;84;94;0.62;0.14999999999999999;0.20000000000000001;0.029999999999999999;1;7.049729645128082;4;59;20;2;
2019_03_15 12:49;30;2;1;control;52;43;1;60;83;0;0;0.23000000000000001;0.77000000000000002;0.0;0.0;72;5;70;12;0.29999999999999999;0.40999999999999998;0.12;0.17000000000000001;0;3.9831677271426997;4;59;20;2;
2019_03_15 12:49;30;2;1;control;53;64;1;48;39;34;19;0.46000000000000002;0.5;0.02;0.02;13;92;0;0;0.68999999999999995;0.31;0.0;0.0;0;9.183145340560259;4;59;20;2;
2019_03_15 12:49;30;2;1;control;54;61;1;43;18;39;70;0.75;0.089999999999999997;0.089999999999999997;0.070000000000000007;16;66;0;0;0.64000000000000001;0.35999999999999999;0.0;0.0;0;8.166382985683867;4;59;20;2;
2019_03_15 12:49;30;2;1;control;55;126;1;16;55;51;42;0.68999999999999995;0.23999999999999999;0.01;0.060000000000000102;66;4;1;5;0.46999999999999997;0.38;0.089999999999999997;0.059999999999999998;0;7.249874035380344;4;59;20;2;
2019_03_15 12:49;30;2;1;control;56;44;1;79;74;0;0;0.71999999999999997;0.28000000000000003;0.0;0.0;3;67;15;36;0.41999999999999998;0.53000000000000003;0.02;0.029999999999999999;0;4.283151787125917;4;59;20;2;
2019_03_15 12:49;30;2;1;control;57;132;0;27;70;21;19;0.64000000000000001;0.23000000000000001;0.029999999999999999;0.10000000000000001;11;85;55;6;0.39000000000000001;0.46999999999999997;0.029999999999999999;0.11;1;17.749564696423022;4;59;20;2;
2019_03_15 12:49;30;2;1;control;58;143;1;88;44;56;73;0.95999999999999996;0.02;0.01;0.01;20;3;87;32;0.19;0.40000000000000002;0.28000000000000003;0.13;0;5.066466342029344;4;59;20;2;
2019_03_15 12:49;30;2;1;control;59;87;1;10;30;63;4;0.56999999999999995;0.12;0.16;0.14999999999999999;86;2;0;0;0.42999999999999999;0.56999999999999995;0.0;0.0;0;8.349825638025322;4;59;20;2;
2019_03_15 12:49;30;2;1;control;60;39;0;14;33;0;0;0.78000000000000003;0.22;0.0;0.0;93;84;1;25;0.14000000000000001;0.23999999999999999;0.39000000000000001;0.23000000000000001;0;8.61632219232024;4;59;20;2;
2019_03_15 12:49;30;2;1;control;61;34;0;32;48;0;0;0.28000000000000003;0.71999999999999997;0.0;0.0;97;83;7;62;0.040000000000000001;0.54000000000000004;0.35999999999999999;0.059999999999999901;0;8.049705911501405;4;59;20;2;
2019_03_15 12:49;30;2;1;control;62;15;1;77;81;0;0;0.28000000000000003;0.71999999999999997;0.0;0.0;98;14;87;18;0.55000000000000004;0.23000000000000001;0.16;0.059999999999999901;0;5.899767763256477;4;59;20;2;
2019_03_15 12:49;30;2;1;control;63;86;1;56;30;57;88;0.20000000000000001;0.35999999999999999;0.080000000000000002;0.35999999999999999;98;2;0;0;0.77000000000000002;0.23000000000000001;0.0;0.0;0;7.416531240668974;4;59;20;2;
2019_03_15 12:49;30;2;1;control;64;125;1;37;41;10;35;0.91000000000000003;0.040000000000000001;0.029999999999999999;0.02;7;13;91;93;0.26000000000000001;0.39000000000000001;0.16;0.19;0;11.899601948594864;4;59;20;2;
2019_03_15 12:49;30;2;1;control;65;49;1;21;30;0;0;0.53000000000000003;0.46999999999999997;0.0;0.0;93;99;89;25;0.44;0.02;0.11;0.42999999999999999;1;10.783125327339803;4;59;20;2;
2019_03_15 12:49;30;2;1;control;66;2;1;59;32;0;0;0.080000000000000002;0.92000000000000004;0.0;0.0;33;38;85;1;0.28999999999999998;0.050000000000000003;0.070000000000000007;0.58999999999999997;0;3.0500173351692865;4;59;20;2;
2019_03_15 12:49;30;2;1;control;67;52;1;71;51;10;54;0.22;0.12;0.19;0.46999999999999997;91;1;0;0;0.29999999999999999;0.69999999999999996;0.0;0.0;0;3.2833230541073135;4;59;20;2;
2019_03_15 12:49;30;2;1;control;68;149;0;14;89;73;53;0.93999999999999995;0.01;0.01;0.040000000000000001;97;45;6;13;0.34000000000000002;0.01;0.40999999999999998;0.23999999999999999;1;11.416272736573774;4;59;20;2;
2019_03_15 12:49;30;2;1;control;69;92;1;90;86;65;94;0.16;0.34000000000000002;0.28000000000000003;0.22;79;22;0;0;0.35999999999999999;0.64000000000000001;0.0;0.0;0;7.349713063661511;4;59;20;2;
2019_03_15 12:49;30;2;1;control;70;5;1;70;5;0;0;0.98999999999999999;0.01;0.0;0.0;92;87;47;1;0.44;0.02;0.16;0.38;0;5.383279788347409;4;59;20;2;
2019_03_15 12:49;30;2;1;control;71;81;0;67;38;52;65;0.27000000000000002;0.35999999999999999;0.01;0.35999999999999999;2;77;0;0;0.14000000000000001;0.85999999999999999;0.0;0.0;0;9.633131373000197;4;59;20;2;
2019_03_15 12:49;30;2;1;control;72;105;0;49;74;63;58;0.84999999999999998;0.080000000000000002;0.02;0.050000000000000003;97;5;86;8;0.25;0.52000000000000002;0.070000000000000007;0.16;0;7.449855176769233;4;59;20;2;
2019_03_15 12:49;30;2;1;control;73;82;0;78;66;30;27;0.28999999999999998;0.58999999999999997;0.080000000000000002;0.040000000000000001;90;6;0;0;0.82999999999999996;0.17000000000000001;0.0;0.0;0;8.016395445838043;4;59;20;2;
2019_03_15 12:49;30;2;1;control;74;20;1;44;40;0;0;0.91000000000000003;0.089999999999999997;0.0;0.0;29;5;80;99;0.25;0.40000000000000002;0.26000000000000001;0.089999999999999997;0;5.816583326357431;4;59;20;2;
2019_03_15 12:49;30;2;1;control;75;121;0;42;51;47;70;0.41999999999999998;0.17000000000000001;0.23999999999999999;0.17000000000000001;21;76;48;9;0.14999999999999999;0.34000000000000002;0.40999999999999998;0.10000000000000001;0;6.683093543523228;4;59;20;2;
2019_03_15 12:49;30;3;1;timed;1;103;0;38;49;89;50;0.89000000000000001;0.070000000000000007;0.01;0.029999999999999999;6;64;99;27;0.70999999999999996;0.17999999999999999;0.059999999999999998;0.050000000000000003;0;4.205327942592703;4;59;20;2;
2019_03_15 12:49;30;3;1;timed;2;54;1;44;79;78;52;0.79000000000000004;0.19;0.01;0.0099999999999999603;96;1;0;0;0.28000000000000003;0.71999999999999997;0.0;0.0;0;2.550010118863611;4;59;20;2;
2019_03_15 12:49;30;3;1;timed;3;100;0;27;14;59;52;0.02;0.95999999999999996;0.01;0.01;17;98;0;0;0.48999999999999999;0.51000000000000001;0.0;0.0;1;3.633325090708695;4;59;20;2;
2019_03_15 12:49;30;3;1;timed;4;16;1;64;53;0;0;0.65000000000000002;0.34999999999999998;0.0;0.0;29;17;81;46;0.10000000000000001;0.01;0.44;0.45000000000000001;0;3.3834379056165744;4;59;20;2;
2019_03_15 12:49;30;3;1;timed;5;84;1;43;10;5;45;0.78000000000000003;0.13;0.059999999999999998;0.029999999999999999;87;1;0;0;0.57999999999999996;0.41999999999999998;0.0;0.0;0;2.0333669132073737;4;59;20;2;
2019_03_15 12:49;30;3;1;timed;6;3;0;53;40;0;0;0.31;0.68999999999999995;0.0;0.0;96;24;7;88;0.11;0.27000000000000002;0.58999999999999997;0.029999999999999999;0;2.549867717104007;4;59;20;2;
2019_03_15 12:49;30;3;1;timed;7;37;1;14;98;0;0;0.93000000000000005;0.070000000000000007;0.0;0.0;41;2;87;66;0.17999999999999999;0.48999999999999999;0.32000000000000001;0.010000000000000101;0;2.3498827270191214;4;59;20;2;
2019_03_15 12:49;30;3;1;timed;8;135;1;48;60;41;51;0.14000000000000001;0.40000000000000002;0.089999999999999997;0.37;94;1;85;65;0.64000000000000001;0.29999999999999999;0.01;0.050000000000000003;0;5.149776182279311;4;59;20;2;
2019_03_15 12:49;30;3;1;timed;9;20;1;44;40;0;0;0.91000000000000003;0.089999999999999997;0.0;0.0;29;5;80;99;0.25;0.40000000000000002;0.26000000000000001;0.089999999999999997;0;2.999867540705509;4;59;20;2;
2019_03_15 12:49;30;3;1;timed;10;80;0;47;39;45;10;0.13;0.76000000000000001;0.059999999999999998;0.050000000000000003;2;87;0;0;0.48999999999999999;0.51000000000000001;0.0;0.0;0;2.283191877711488;4;59;20;2;
2019_03_15 12:49;30;3;1;timed;11;57;1;52;35;23;47;0.22;0.68000000000000005;0.040000000000000001;0.059999999999999998;71;7;0;0;0.28999999999999998;0.70999999999999996;0.0;0.0;0;2.316551414251535;4;59;20;2;
2019_03_15 12:49;30;3;1;timed;12;71;1;68;55;36;51;0.20000000000000001;0.75;0.02;0.029999999999999999;38;81;0;0;0.52000000000000002;0.47999999999999998;0.0;0.0;1;3.4831739812743763;4;59;20;2;
2019_03_15 12:49;30;3;1;timed;13;86;1;56;30;57;88;0.20000000000000001;0.35999999999999999;0.080000000000000002;0.35999999999999999;98;2;0;0;0.77000000000000002;0.23000000000000001;0.0;0.0;0;2.7166840018358016;4;59;20;2;
2019_03_15 12:49;30;3;1;timed;14;69;0;54;34;64;49;0.34000000000000002;0.25;0.20999999999999999;0.20000000000000001;14;98;0;0;0.62;0.38;0.0;0.0;1;5.433097632762838;4;59;20;2;
2019_03_15 12:49;30;3;1;timed;15;44;0;79;74;0;0;0.71999999999999997;0.28000000000000003;0.0;0.0;3;67;15;36;0.41999999999999998;0.53000000000000003;0.02;0.029999999999999999;0;3.5165187644788602;4;59;20;2;
2019_03_15 12:49;30;3;1;timed;16;87;1;10;30;63;4;0.56999999999999995;0.12;0.16;0.14999999999999999;86;2;0;0;0.42999999999999999;0.56999999999999995;0.0;0.0;0;2.716803632142728;4;59;20;2;
2019_03_15 12:49;30;3;1;timed;17;24;1;35;27;0;0;0.070000000000000007;0.93000000000000005;0.0;0.0;62;3;81;95;0.35999999999999999;0.55000000000000004;0.01;0.080000000000000002;0;3.816639453177231;4;59;20;2;
2019_03_15 12:49;30;3;1;timed;18;83;0;17;12;7;41;0.65000000000000002;0.19;0.089999999999999997;0.070000000000000007;6;84;0;0;0.72999999999999998;0.27000000000000002;0.0;0.0;0;4.1164666787904025;4;59;20;2;
2019_03_15 12:49;30;3;1;timed;19;73;1;65;68;70;47;0.25;0.23000000000000001;0.20999999999999999;0.31;27;95;0;0;0.45000000000000001;0.55000000000000004;0.0;0.0;0;3.516653468846016;4;59;20;2;
2019_03_15 12:49;30;3;1;timed;20;38;1;40;70;0;0;0.53000000000000003;0.46999999999999997;0.0;0.0;97;90;6;96;0.56999999999999995;0.070000000000000007;0.27000000000000002;0.089999999999999997;0;2.3166893258653545;4;59;20;2;
2019_03_15 12:49;30;3;1;timed;21;147;0;39;43;76;28;0.14000000000000001;0.10000000000000001;0.10000000000000001;0.66000000000000003;6;31;68;85;0.27000000000000002;0.20000000000000001;0.22;0.31;0;3.2998653918502896;4;59;20;2;
2019_03_15 12:49;30;3;1;timed;22;35;0;33;37;0;0;0.88;0.12;0.0;0.0;63;4;79;98;0.16;0.46000000000000002;0.17000000000000001;0.20999999999999999;0;2.8499890472521656;4;59;20;2;
2019_03_15 12:49;30;3;1;timed;23;127;1;89;26;62;79;0.02;0.28999999999999998;0.53000000000000003;0.16;96;6;60;13;0.53000000000000003;0.25;0.17000000000000001;0.050000000000000003;0;2.3499019705004685;4;59;20;2;
2019_03_15 12:49;30;3;1;timed;24;149;0;14;89;73;53;0.93999999999999995;0.01;0.01;0.040000000000000001;97;45;6;13;0.34000000000000002;0.01;0.40999999999999998;0.23999999999999999;0;2.2333406779284815;4;59;20;2;
2019_03_15 12:49;30;3;1;timed;25;18;1;68;50;0;0;0.029999999999999999;0.96999999999999997;0.0;0.0;34;64;15;89;0.65000000000000002;0.029999999999999999;0.050000000000000003;0.27000000000000002;0;3.649993793977046;4;59;20;2;
2019_03_15 12:49;30;3;1;timed;26;41;0;99;40;0;0;0.89000000000000001;0.11;0.0;0.0;1;67;52;46;0.51000000000000001;0.38;0.029999999999999999;0.080000000000000002;0;3.0165269429580803;4;59;20;2;
2019_03_15 12:49;30;3;1;timed;27;107;1;52;48;13;63;0.68000000000000005;0.19;0.050000000000000003;0.079999999999999905;54;91;33;3;0.19;0.17999999999999999;0.33000000000000002;0.29999999999999999;0;2.4332092449531046;4;59;20;2;
2019_03_15 12:49;30;3;1;timed;28;141;0;93;28;60;91;0.81999999999999995;0.10000000000000001;0.01;0.070000000000000007;14;85;7;89;0.45000000000000001;0.070000000000000007;0.23999999999999999;0.23999999999999999;0;3.8332962896324716;4;59;20;2;
2019_03_15 12:49;30;3;1;timed;29;74;1;66;47;52;44;0.41999999999999998;0.26000000000000001;0.17999999999999999;0.14000000000000001;17;99;0;0;0.47999999999999998;0.52000000000000002;0.0;0.0;0;3.3498554654215695;4;59;20;2;
2019_03_15 12:49;30;3;1;timed;30;99;1;8;24;15;73;0.56000000000000005;0.35999999999999999;0.070000000000000007;0.0099999999999999499;88;12;0;0;0.52000000000000002;0.47999999999999998;0.0;0.0;1;3.4165139215360796;4;59;20;2;
2019_03_15 12:49;30;3;1;timed;31;131;0;83;41;81;88;0.23999999999999999;0.58999999999999997;0.10000000000000001;0.070000000000000007;82;97;4;17;0.26000000000000001;0.46999999999999997;0.11;0.16;0;4.066532090589135;4;59;20;2;
2019_03_15 12:49;30;3;1;timed;32;148;0;37;63;55;10;0.72999999999999998;0.070000000000000007;0.029999999999999999;0.17000000000000001;80;14;23;70;0.46999999999999997;0.10000000000000001;0.23000000000000001;0.20000000000000001;1;5.8164200774936035;4;59;20;2;
2019_03_15 12:49;30;3;1;timed;33;94;0;84;86;93;39;0.78000000000000003;0.20000000000000001;0.01;0.0099999999999999603;9;83;0;0;0.46999999999999997;0.53000000000000003;0.0;0.0;0;3.7166484013960144;4;59;20;2;
2019_03_15 12:49;30;3;1;timed;34;133;1;59;88;60;36;0.67000000000000004;0.070000000000000007;0.12;0.14000000000000001;7;91;66;61;0.25;0.68999999999999995;0.01;0.0500000000000001;0;4.5164992002733015;4;59;20;2;
2019_03_15 12:49;30;3;1;timed;35;56;1;28;84;37;41;0.68000000000000005;0.28000000000000003;0.02;0.0199999999999999;6;95;0;0;0.72999999999999998;0.27000000000000002;0.0;0.0;0;3.2498320204467745;4;59;20;2;
2019_03_15 12:49;30;3;1;timed;36;15;1;77;81;0;0;0.28000000000000003;0.71999999999999997;0.0;0.0;98;14;87;18;0.55000000000000004;0.23000000000000001;0.16;0.059999999999999901;0;3.2166767855305807;4;59;20;2;
2019_03_15 12:49;30;3;1;timed;37;150;1;25;21;78;38;0.84999999999999998;0.059999999999999998;0.050000000000000003;0.040000000000000001;31;43;64;95;0.059999999999999998;0.45000000000000001;0.13;0.35999999999999999;0;5.166596267598834;4;59;20;2;
2019_03_15 12:49;30;3;1;timed;38;112;0;70;44;98;64;0.02;0.75;0.12;0.11;33;2;63;85;0.23999999999999999;0.31;0.080000000000000002;0.37;0;4.133307290489029;4;59;20;2;
2019_03_15 12:49;30;3;1;timed;39;113;1;85;65;39;64;0.44;0.34000000000000002;0.13;0.089999999999999997;87;2;4;35;0.67000000000000004;0.17000000000000001;0.11;0.049999999999999899;0;2.4665286909075803;4;59;20;2;
2019_03_15 12:49;30;3;1;timed;40;22;1;32;55;0;0;0.39000000000000001;0.60999999999999999;0.0;0.0;93;72;59;22;0.20000000000000001;0.11;0.14000000000000001;0.55000000000000004;0;2.8831911079723795;4;59;20;2;
2019_03_15 12:49;30;3;1;timed;41;47;0;2;40;0;0;0.45000000000000001;0.55000000000000004;0.0;0.0;93;89;11;56;0.58999999999999997;0.070000000000000007;0.28000000000000003;0.059999999999999998;1;2.133395489776831;4;59;20;2;
2019_03_15 12:49;30;3;1;timed;42;140;0;36;32;26;27;0.39000000000000001;0.14999999999999999;0.19;0.27000000000000002;44;3;99;25;0.29999999999999999;0.34000000000000002;0.34000000000000002;0.0199999999999999;0;2.849851777087224;4;59;20;2;
2019_03_15 12:49;30;3;1;timed;43;32;1;19;81;0;0;0.93000000000000005;0.070000000000000007;0.0;0.0;1;65;41;68;0.45000000000000001;0.050000000000000003;0.059999999999999998;0.44;0;3.3498580312189006;4;59;20;2;
2019_03_15 12:49;30;3;1;timed;44;110;0;47;44;23;52;0.13;0.27000000000000002;0.040000000000000001;0.56000000000000005;99;2;30;22;0.28999999999999998;0.5;0.11;0.10000000000000001;0;2.9332020286478837;4;59;20;2;
2019_03_15 12:49;30;3;1;timed;45;65;0;75;64;59;52;0.59999999999999998;0.22;0.14000000000000001;0.040000000000000001;1;99;0;0;0.35999999999999999;0.64000000000000001;0.0;0.0;0;3.5665001784832384;4;59;20;2;
2019_03_15 12:49;30;3;1;timed;46;102;1;40;56;53;17;0.28000000000000003;0.26000000000000001;0.14999999999999999;0.31;1;76;29;62;0.68000000000000005;0.23000000000000001;0.050000000000000003;0.039999999999999897;0;2.333193176646546;4;59;20;2;
2019_03_15 12:49;30;3;1;timed;47;5;0;70;5;0;0;0.98999999999999999;0.01;0.0;0.0;92;87;47;1;0.44;0.02;0.16;0.38;0;2.5165008038961787;4;59;20;2;
2019_03_15 12:49;30;3;1;timed;48;45;1;97;87;0;0;0.71999999999999997;0.28000000000000003;0.0;0.0;96;11;14;4;0.25;0.029999999999999999;0.14000000000000001;0.57999999999999996;0;3.083325555759984;4;59;20;2;
2019_03_15 12:49;30;3;1;timed;49;19;0;22;53;0;0;0.13;0.87;0.0;0.0;4;93;96;65;0.46999999999999997;0.059999999999999998;0.26000000000000001;0.20999999999999999;0;2.9832193638167155;4;59;20;2;
2019_03_15 12:49;30;3;1;timed;50;144;0;99;93;90;71;0.65000000000000002;0.32000000000000001;0.01;0.02;97;14;48;73;0.23000000000000001;0.46000000000000002;0.13;0.17999999999999999;0;4.633286924471577;4;59;20;2;
2019_03_15 12:49;30;3;1;timed;51;75;0;67;80;36;81;0.81999999999999995;0.080000000000000002;0.059999999999999998;0.040000000000000001;3;97;0;0;0.32000000000000001;0.68000000000000005;0.0;0.0;0;2.4167137330141486;4;59;20;2;
2019_03_15 12:49;30;3;1;timed;52;43;0;60;83;0;0;0.23000000000000001;0.77000000000000002;0.0;0.0;72;5;70;12;0.29999999999999999;0.40999999999999998;0.12;0.17000000000000001;0;2.883171864491487;4;59;20;2;
2019_03_15 12:49;30;3;1;timed;53;139;0;44;31;16;8;0.79000000000000004;0.070000000000000007;0.13;0.0099999999999999499;92;58;2;88;0.55000000000000004;0.070000000000000007;0.34000000000000002;0.039999999999999897;0;2.66653100012536;4;59;20;2;
2019_03_15 12:49;30;3;1;timed;54;50;1;15;20;0;0;0.82999999999999996;0.17000000000000001;0.0;0.0;97;18;88;87;0.56999999999999995;0.39000000000000001;0.01;0.029999999999999999;1;4.099809200885829;4;59;20;2;
2019_03_15 12:49;30;3;1;timed;55;55;1;74;55;47;48;0.60999999999999999;0.31;0.070000000000000007;0.01;97;6;0;0;0.42999999999999999;0.56999999999999995;0.0;0.0;0;2.3832217371796105;4;59;20;2;
2019_03_15 12:49;30;3;1;timed;56;101;0;30;96;61;45;0.65000000000000002;0.14000000000000001;0.11;0.10000000000000001;3;98;63;89;0.75;0.19;0.040000000000000001;0.02;0;3.8998437750065023;4;59;20;2;
2019_03_15 12:49;30;3;1;timed;57;21;0;64;28;0;0;0.080000000000000002;0.92000000000000004;0.0;0.0;50;1;88;13;0.57999999999999996;0.13;0.02;0.27000000000000002;0;3.5833407901823193;4;59;20;2;
2019_03_15 12:49;30;3;1;timed;58;51;0;52;23;43;16;0.60999999999999999;0.20999999999999999;0.01;0.17000000000000001;92;7;0;0;0.14999999999999999;0.84999999999999998;0.0;0.0;0;3.316649235280238;4;59;20;2;
2019_03_15 12:49;30;3;1;timed;59;95;0;93;88;68;85;0.83999999999999997;0.14000000000000001;0.01;0.01;2;82;0;0;0.41999999999999998;0.57999999999999996;0.0;0.0;0;4.083154288778587;4;59;20;2;
2019_03_15 12:49;30;3;1;timed;60;98;0;27;10;31;79;0.23000000000000001;0.67000000000000004;0.070000000000000007;0.029999999999999999;25;99;0;0;0.38;0.62;0.0;0.0;0;5.316459045542615;4;59;20;2;
2019_03_15 12:49;30;3;1;timed;61;88;0;77;13;12;7;0.12;0.19;0.66000000000000003;0.029999999999999898;94;2;0;0;0.40999999999999998;0.58999999999999997;0.0;0.0;0;2.283344863385537;4;59;20;2;
2019_03_15 12:49;30;3;1;timed;62;126;0;16;55;51;42;0.68999999999999995;0.23999999999999999;0.01;0.060000000000000102;66;4;1;5;0.46999999999999997;0.38;0.089999999999999997;0.059999999999999998;0;4.416638683438123;4;59;20;2;
2019_03_15 12:49;30;3;1;timed;63;118;0;62;52;65;68;0.40999999999999998;0.44;0.10000000000000001;0.0500000000000001;79;20;14;37;0.56999999999999995;0.23999999999999999;0.14000000000000001;0.050000000000000003;1;4.083278409230843;4;59;20;2;
2019_03_15 12:49;30;3;1;timed;64;109;0;75;28;16;56;0.19;0.070000000000000007;0.059999999999999998;0.68000000000000005;3;50;98;44;0.5;0.02;0.34999999999999998;0.13;0;2.116554236628872;4;59;20;2;
2019_03_15 12:49;30;3;1;timed;65;7;1;49;29;0;0;0.95999999999999996;0.040000000000000001;0.0;0.0;23;99;64;25;0.68999999999999995;0.12;0.059999999999999998;0.13;0;3.6499424780281515;4;59;20;2;
2019_03_15 12:49;30;3;1;timed;66;130;1;37;79;23;95;0.94999999999999996;0.029999999999999999;0.01;0.01;94;4;58;49;0.46000000000000002;0.5;0.029999999999999999;0.01;0;3.033334520014705;4;59;20;2;
2019_03_15 12:49;30;3;1;timed;67;27;0;44;26;0;0;0.35999999999999999;0.64000000000000001;0.0;0.0;63;10;3;5;0.58999999999999997;0.19;0.14999999999999999;0.070000000000000007;0;3.9833017900605228;4;59;20;2;
2019_03_15 12:49;30;3;1;timed;68;79;1;52;46;29;22;0.17999999999999999;0.51000000000000001;0.23999999999999999;0.070000000000000104;93;14;0;0;0.45000000000000001;0.55000000000000004;0.0;0.0;0;2.0165753723854323;4;59;20;2;
2019_03_15 12:49;30;3;1;timed;69;121;0;42;51;47;70;0.41999999999999998;0.17000000000000001;0.23999999999999999;0.17000000000000001;21;76;48;9;0.14999999999999999;0.34000000000000002;0.40999999999999998;0.10000000000000001;0;3.116809212752287;4;59;20;2;
2019_03_15 12:49;30;3;1;timed;70;106;0;85;69;22;61;0.10000000000000001;0.58999999999999997;0.17999999999999999;0.13;20;79;91;84;0.55000000000000004;0.14999999999999999;0.26000000000000001;0.039999999999999897;0;5.49977308728603;4;59;20;2;
2019_03_15 12:49;30;3;1;timed;71;145;1;91;89;90;74;0.57999999999999996;0.29999999999999999;0.11;0.010000000000000101;2;75;84;39;0.32000000000000001;0.27000000000000002;0.39000000000000001;0.0199999999999999;0;1.7166034999399926;4;59;20;2;
2019_03_15 12:49;30;3;1;timed;72;90;1;27;44;50;72;0.68000000000000005;0.28999999999999998;0.02;0.0099999999999999707;6;96;0;0;0.46999999999999997;0.53000000000000003;0.0;0.0;0;2.5998292461781602;4;59;20;2;
2019_03_15 12:49;30;3;1;timed;73;61;0;43;18;39;70;0.75;0.089999999999999997;0.089999999999999997;0.070000000000000007;16;66;0;0;0.64000000000000001;0.35999999999999999;0.0;0.0;0;3.3833384809645395;4;59;20;2;
2019_03_15 12:49;30;3;1;timed;74;46;1;5;19;0;0;0.32000000000000001;0.68000000000000005;0.0;0.0;88;38;97;66;0.60999999999999999;0.20000000000000001;0.040000000000000001;0.14999999999999999;1;4.249958065247483;4;59;20;2;
2019_03_15 12:49;30;3;1;timed;75;58;0;37;58;76;34;0.20999999999999999;0.57999999999999996;0.19;0.020000000000000101;86;5;0;0;0.47999999999999998;0.52000000000000002;0.0;0.0;0;2.0167062280565915;4;59;20;2;
2019_03_15 12:49;30;4;1;control;1;100;0;27;14;59;52;0.02;0.95999999999999996;0.01;0.01;17;98;0;0;0.48999999999999999;0.51000000000000001;0.0;0.0;1;5.958564936645416;4;59;20;2;
2019_03_15 12:49;30;4;1;control;2;63;0;56;78;42;36;0.93000000000000005;0.040000000000000001;0.01;0.0199999999999999;2;72;0;0;0.32000000000000001;0.68000000000000005;0.0;0.0;0;4.116633455625561;4;59;20;2;
2019_03_15 12:49;30;4;1;control;3;23;0;54;40;0;0;0.93000000000000005;0.070000000000000007;0.0;0.0;36;23;71;86;0.02;0.41999999999999998;0.19;0.37;0;3.0165349610751946;4;59;20;2;
2019_03_15 12:49;30;4;1;control;4;25;1;50;53;0;0;0.82999999999999996;0.17000000000000001;0.0;0.0;83;16;97;4;0.45000000000000001;0.29999999999999999;0.11;0.14000000000000001;0;3.916538136249528;4;59;20;2;
2019_03_15 12:49;30;4;1;control;5;11;1;17;36;0;0;0.14000000000000001;0.85999999999999999;0.0;0.0;19;41;34;95;0.88;0.02;0.050000000000000003;0.050000000000000003;0;8.183045915908224;4;59;20;2;
2019_03_15 12:49;30;4;1;control;6;109;0;75;28;16;56;0.19;0.070000000000000007;0.059999999999999998;0.68000000000000005;3;50;98;44;0.5;0.02;0.34999999999999998;0.13;0;8.0830179807881;4;59;20;2;
2019_03_15 12:49;30;4;1;control;7;99;0;8;24;15;73;0.56000000000000005;0.35999999999999999;0.070000000000000007;0.0099999999999999499;88;12;0;0;0.52000000000000002;0.47999999999999998;0.0;0.0;1;6.949864317422453;4;59;20;2;
2019_03_15 12:49;30;4;1;control;8;127;0;89;26;62;79;0.02;0.28999999999999998;0.53000000000000003;0.16;96;6;60;13;0.53000000000000003;0.25;0.17000000000000001;0.050000000000000003;0;6.999744703151464;4;59;20;2;
2019_03_15 12:49;30;4;1;control;9;68;1;84;27;55;62;0.01;0.050000000000000003;0.40999999999999998;0.53000000000000003;9;82;0;0;0.37;0.63;0.0;0.0;0;6.316439802061723;4;59;20;2;
2019_03_15 12:49;30;4;1;control;10;22;1;32;55;0;0;0.39000000000000001;0.60999999999999999;0.0;0.0;93;72;59;22;0.20000000000000001;0.11;0.14000000000000001;0.55000000000000004;0;5.14979574648487;4;59;20;2;
2019_03_15 12:49;30;4;1;control;11;69;1;54;34;64;49;0.34000000000000002;0.25;0.20999999999999999;0.20000000000000001;14;98;0;0;0.62;0.38;0.0;0.0;0;5.5497487282464135;4;59;20;2;
2019_03_15 12:49;30;4;1;control;12;27;0;44;26;0;0;0.35999999999999999;0.64000000000000001;0.0;0.0;63;10;3;5;0.58999999999999997;0.19;0.14999999999999999;0.070000000000000007;0;7.449717585879625;4;59;20;2;
2019_03_15 12:49;30;4;1;control;13;36;0;70;17;0;0;0.33000000000000002;0.67000000000000004;0.0;0.0;84;1;12;88;0.22;0.27000000000000002;0.14000000000000001;0.37;0;6.083099444857908;4;59;20;2;
2019_03_15 12:49;30;4;1;control;14;101;1;30;96;61;45;0.65000000000000002;0.14000000000000001;0.11;0.10000000000000001;3;98;63;89;0.75;0.19;0.040000000000000001;0.02;0;3.633171463585768;4;59;20;2;
2019_03_15 12:49;30;4;1;control;15;115;0;50;28;61;79;0.83999999999999997;0.040000000000000001;0.059999999999999998;0.059999999999999998;1;26;97;55;0.45000000000000001;0.080000000000000002;0.40999999999999998;0.060000000000000102;0;3.4831800750434923;4;59;20;2;
2019_03_15 12:49;30;4;1;control;16;16;0;64;53;0;0;0.65000000000000002;0.34999999999999998;0.0;0.0;29;17;81;46;0.10000000000000001;0.01;0.44;0.45000000000000001;0;3.383168496881808;4;59;20;2;
2019_03_15 12:49;30;4;1;control;17;78;1;74;36;34;3;0.14999999999999999;0.64000000000000001;0.13;0.080000000000000002;1;83;0;0;0.41999999999999998;0.57999999999999996;0.0;0.0;0;4.916470463341284;4;59;20;2;
2019_03_15 12:49;30;4;1;control;18;119;0;60;58;11;18;0.25;0.72999999999999998;0.01;0.01;96;23;42;85;0.44;0.48999999999999999;0.059999999999999998;0.010000000000000101;0;8.616482875386737;4;59;20;2;
2019_03_15 12:49;30;4;1;control;19;97;0;17;33;32;74;0.94999999999999996;0.01;0.029999999999999999;0.01;76;23;0;0;0.33000000000000002;0.67000000000000004;0.0;0.0;1;7.749706777457959;4;59;20;2;
2019_03_15 12:49;30;4;1;control;20;3;1;53;40;0;0;0.31;0.68999999999999995;0.0;0.0;96;24;7;88;0.11;0.27000000000000002;0.58999999999999997;0.029999999999999999;0;4.31661331411533;4;59;20;2;
2019_03_15 12:49;30;4;1;control;21;58;0;37;58;76;34;0.20999999999999999;0.57999999999999996;0.19;0.020000000000000101;86;5;0;0;0.47999999999999998;0.52000000000000002;0.0;0.0;0;3.249978270902375;4;59;20;2;
2019_03_15 12:49;30;4;1;control;22;13;1;52;56;0;0;0.46999999999999997;0.53000000000000003;0.0;0.0;94;71;27;2;0.089999999999999997;0.31;0.57999999999999996;0.020000000000000101;0;5.516449167222618;4;59;20;2;
2019_03_15 12:49;30;4;1;control;23;26;0;76;41;0;0;0.57999999999999996;0.41999999999999998;0.0;0.0;61;79;84;2;0.13;0.029999999999999999;0.67000000000000004;0.17000000000000001;0;6.083115481091681;4;59;20;2;
2019_03_15 12:49;30;4;1;control;24;113;0;85;65;39;64;0.44;0.34000000000000002;0.13;0.089999999999999997;87;2;4;35;0.67000000000000004;0.17000000000000001;0.11;0.049999999999999899;0;5.94978990929576;4;59;20;2;
2019_03_15 12:49;30;4;1;control;25;45;0;97;87;0;0;0.71999999999999997;0.28000000000000003;0.0;0.0;96;11;14;4;0.25;0.029999999999999999;0.14000000000000001;0.57999999999999996;0;4.816466903297169;4;59;20;2;
2019_03_15 12:49;30;4;1;control;26;129;1;12;29;81;36;0.17999999999999999;0.79000000000000004;0.01;0.02;5;19;95;92;0.47999999999999998;0.26000000000000001;0.13;0.13;0;6.68306724409922;4;59;20;2;
2019_03_15 12:49;30;4;1;control;27;130;0;37;79;23;95;0.94999999999999996;0.029999999999999999;0.01;0.01;94;4;58;49;0.46000000000000002;0.5;0.029999999999999999;0.01;0;5.39978716709993;4;59;20;2;
2019_03_15 12:49;30;4;1;control;28;96;0;51;54;39;7;0.17000000000000001;0.26000000000000001;0.10000000000000001;0.46999999999999997;24;96;0;0;0.28000000000000003;0.71999999999999997;0.0;0.0;1;4.799936111643092;4;59;20;2;
2019_03_15 12:49;30;4;1;control;29;150;0;25;21;78;38;0.84999999999999998;0.059999999999999998;0.050000000000000003;0.040000000000000001;31;43;64;95;0.059999999999999998;0.45000000000000001;0.13;0.35999999999999999;1;9.96628285543784;4;59;20;2;
2019_03_15 12:49;30;4;1;control;30;77;1;24;17;99;41;0.17999999999999999;0.13;0.10000000000000001;0.58999999999999997;12;97;0;0;0.59999999999999998;0.40000000000000002;0.0;0.0;0;3.449844913579909;4;59;20;2;
2019_03_15 12:49;30;4;1;control;31;47;1;2;40;0;0;0.45000000000000001;0.55000000000000004;0.0;0.0;93;89;11;56;0.58999999999999997;0.070000000000000007;0.28000000000000003;0.059999999999999998;1;3.2165234791318653;4;59;20;2;
2019_03_15 12:49;30;4;1;control;32;54;0;44;79;78;52;0.79000000000000004;0.19;0.01;0.0099999999999999603;96;1;0;0;0.28000000000000003;0.71999999999999997;0.0;0.0;0;2.449879872569909;4;59;20;2;
2019_03_15 12:49;30;4;1;control;33;95;1;93;88;68;85;0.83999999999999997;0.14000000000000001;0.01;0.01;2;82;0;0;0.41999999999999998;0.57999999999999996;0.0;0.0;0;2.116711712448705;4;59;20;2;
2019_03_15 12:49;30;4;1;control;34;133;1;59;88;60;36;0.67000000000000004;0.070000000000000007;0.12;0.14000000000000001;7;91;66;61;0.25;0.68999999999999995;0.01;0.0500000000000001;0;3.2165699842107642;4;59;20;2;
2019_03_15 12:49;30;4;1;control;35;60;1;64;59;57;96;0.83999999999999997;0.13;0.02;0.01;83;6;0;0;0.54000000000000004;0.46000000000000002;0.0;0.0;0;3.116682205777579;4;59;20;2;
2019_03_15 12:49;30;4;1;control;36;51;1;52;23;43;16;0.60999999999999999;0.20999999999999999;0.01;0.17000000000000001;92;7;0;0;0.14999999999999999;0.84999999999999998;0.0;0.0;0;2.483195149103267;4;59;20;2;
2019_03_15 12:49;30;4;1;control;37;74;0;66;47;52;44;0.41999999999999998;0.26000000000000001;0.17999999999999999;0.14000000000000001;17;99;0;0;0.47999999999999998;0.52000000000000002;0.0;0.0;0;6.766439946388346;4;59;20;2;
2019_03_15 12:49;30;4;1;control;38;140;1;36;32;26;27;0.39000000000000001;0.14999999999999999;0.19;0.27000000000000002;44;3;99;25;0.29999999999999999;0.34000000000000002;0.34000000000000002;0.0199999999999999;0;4.233178711963774;4;59;20;2;
2019_03_15 12:49;30;4;1;control;39;7;0;49;29;0;0;0.95999999999999996;0.040000000000000001;0.0;0.0;23;99;64;25;0.68999999999999995;0.12;0.059999999999999998;0.13;0;2.78333508128253;4;59;20;2;
2019_03_15 12:49;30;4;1;control;40;104;0;55;85;93;3;0.87;0.02;0.089999999999999997;0.02;1;2;90;8;0.35999999999999999;0.070000000000000007;0.40000000000000002;0.17000000000000001;0;3.499987331374541;4;59;20;2;
2019_03_15 12:49;30;4;1;control;41;124;1;37;65;15;41;0.17999999999999999;0.45000000000000001;0.02;0.34999999999999998;40;7;98;30;0.070000000000000007;0.45000000000000001;0.45000000000000001;0.029999999999999898;0;10.016368504964703;4;59;20;2;
2019_03_15 12:49;30;4;1;control;42;134;1;57;48;50;55;0.02;0.62;0.17999999999999999;0.17999999999999999;80;96;15;18;0.23999999999999999;0.35999999999999999;0.33000000000000002;0.070000000000000007;0;6.199758237733477;4;59;20;2;
2019_03_15 12:49;30;4;1;control;43;117;1;65;85;92;41;0.23000000000000001;0.17999999999999999;0.54000000000000004;0.050000000000000003;99;93;10;13;0.64000000000000001;0.16;0.01;0.19;1;3.8999573115443127;4;59;20;2;
2019_03_15 12:49;30;4;1;control;44;120;0;64;40;48;51;0.19;0.02;0.070000000000000007;0.71999999999999997;97;9;79;94;0.23000000000000001;0.54000000000000004;0.01;0.22;0;3.5832076894384954;4;59;20;2;
2019_03_15 12:49;30;4;1;control;45;111;0;51;36;48;27;0.93000000000000005;0.01;0.01;0.049999999999999899;31;78;30;53;0.55000000000000004;0.16;0.029999999999999999;0.26000000000000001;0;3.1331713032232074;4;59;20;2;
2019_03_15 12:49;30;4;1;control;46;135;0;48;60;41;51;0.14000000000000001;0.40000000000000002;0.089999999999999997;0.37;94;1;85;65;0.64000000000000001;0.29999999999999999;0.01;0.050000000000000003;0;2.399893006245293;4;59;20;2;
2019_03_15 12:49;30;4;1;control;47;114;1;57;39;79;97;0.77000000000000002;0.02;0.13;0.080000000000000002;92;36;6;1;0.54000000000000004;0.12;0.13;0.20999999999999999;0;2.6666762884078707;4;59;20;2;
2019_03_15 12:49;30;4;1;control;48;71;0;68;55;36;51;0.20000000000000001;0.75;0.02;0.029999999999999999;38;81;0;0;0.52000000000000002;0.47999999999999998;0.0;0.0;0;4.783148419516692;4;59;20;2;
2019_03_15 12:49;30;4;1;control;49;50;0;15;20;0;0;0.82999999999999996;0.17000000000000001;0.0;0.0;97;18;88;87;0.56999999999999995;0.39000000000000001;0.01;0.029999999999999999;1;3.949821661040005;4;59;20;2;
2019_03_15 12:49;30;4;1;control;50;38;0;40;70;0;0;0.53000000000000003;0.46999999999999997;0.0;0.0;97;90;6;96;0.56999999999999995;0.070000000000000007;0.27000000000000002;0.089999999999999997;0;3.799852402500619;4;59;20;2;
2019_03_15 12:49;30;4;1;control;51;32;1;19;81;0;0;0.93000000000000005;0.070000000000000007;0.0;0.0;1;65;41;68;0.45000000000000001;0.050000000000000003;0.059999999999999998;0.44;0;2.583170485374467;4;59;20;2;
2019_03_15 12:49;30;4;1;control;52;30;0;33;30;0;0;0.71999999999999997;0.28000000000000003;0.0;0.0;9;88;1;14;0.55000000000000004;0.39000000000000001;0.01;0.049999999999999899;0;4.516611133188235;4;59;20;2;
2019_03_15 12:49;30;4;1;control;53;128;0;70;49;27;54;0.27000000000000002;0.53000000000000003;0.02;0.17999999999999999;72;97;6;20;0.29999999999999999;0.39000000000000001;0.22;0.0899999999999999;0;5.099793485376722;4;59;20;2;
2019_03_15 12:49;30;4;1;control;54;42;0;70;48;0;0;0.79000000000000004;0.20999999999999999;0.0;0.0;51;8;12;67;0.19;0.26000000000000001;0.28999999999999998;0.26000000000000001;0;2.9165278730597493;4;59;20;2;
2019_03_15 12:49;30;4;1;control;55;19;0;22;53;0;0;0.13;0.87;0.0;0.0;4;93;96;65;0.46999999999999997;0.059999999999999998;0.26000000000000001;0.20999999999999999;0;3.7833232144694193;4;59;20;2;
2019_03_15 12:49;30;4;1;control;56;122;0;35;58;25;31;0.81999999999999995;0.070000000000000007;0.080000000000000002;0.029999999999999999;18;64;68;89;0.63;0.17000000000000001;0.11;0.089999999999999997;0;4.999789604607031;4;59;20;2;
2019_03_15 12:49;30;4;1;control;57;40;0;45;49;0;0;0.68999999999999995;0.31;0.0;0.0;2;92;65;73;0.23999999999999999;0.59999999999999998;0.11;0.050000000000000003;0;5.416431495292272;4;59;20;2;
2019_03_15 12:49;30;4;1;control;58;9;1;61;69;0;0;0.93999999999999995;0.060000000000000102;0.0;0.0;18;93;72;16;0.40999999999999998;0.34999999999999998;0.089999999999999997;0.14999999999999999;0;3.9833422013707604;4;59;20;2;
2019_03_15 12:49;30;4;1;control;59;56;0;28;84;37;41;0.68000000000000005;0.28000000000000003;0.02;0.0199999999999999;6;95;0;0;0.72999999999999998;0.27000000000000002;0.0;0.0;0;2.3665456572434778;4;59;20;2;
2019_03_15 12:49;30;4;1;control;60;94;1;84;86;93;39;0.78000000000000003;0.20000000000000001;0.01;0.0099999999999999603;9;83;0;0;0.46999999999999997;0.53000000000000003;0.0;0.0;0;3.416531882118761;4;59;20;2;
2019_03_15 12:49;30;4;1;control;61;108;0;48;72;39;70;0.14000000000000001;0.66000000000000003;0.02;0.17999999999999999;81;44;98;8;0.59999999999999998;0.029999999999999999;0.050000000000000003;0.32000000000000001;0;4.6831551226632655;4;59;20;2;
2019_03_15 12:49;30;4;1;control;62;138;0;8;20;43;51;0.38;0.5;0.02;0.10000000000000001;72;82;70;1;0.39000000000000001;0.050000000000000003;0.070000000000000007;0.48999999999999999;0;3.9666253894001784;4;59;20;2;
2019_03_15 12:49;30;4;1;control;63;28;0;47;30;0;0;0.97999999999999998;0.02;0.0;0.0;55;48;77;13;0.070000000000000007;0.26000000000000001;0.42999999999999999;0.23999999999999999;0;8.083047808183437;4;59;20;2;
2019_03_15 12:49;30;4;1;control;64;112;0;70;44;98;64;0.02;0.75;0.12;0.11;33;2;63;85;0.23999999999999999;0.31;0.080000000000000002;0.37;0;5.7331121615916345;4;59;20;2;
2019_03_15 12:49;30;4;1;control;65;85;0;31;22;82;50;0.11;0.69999999999999996;0.01;0.17999999999999999;3;99;0;0;0.62;0.38;0.0;0.0;0;2.7831926795233812;4;59;20;2;
2019_03_15 12:49;30;4;1;control;66;24;0;35;27;0;0;0.070000000000000007;0.93000000000000005;0.0;0.0;62;3;81;95;0.35999999999999999;0.55000000000000004;0.01;0.080000000000000002;0;7.549872848699124;4;59;20;2;
2019_03_15 12:49;30;4;1;control;67;41;0;99;40;0;0;0.89000000000000001;0.11;0.0;0.0;1;67;52;46;0.51000000000000001;0.38;0.029999999999999999;0.080000000000000002;0;5.1832098062213845;4;59;20;2;
2019_03_15 12:49;30;4;1;control;68;84;1;43;10;5;45;0.78000000000000003;0.13;0.059999999999999998;0.029999999999999999;87;1;0;0;0.57999999999999996;0.41999999999999998;0.0;0.0;0;3.966635652590412;4;59;20;2;
2019_03_15 12:49;30;4;1;control;69;88;1;77;13;12;7;0.12;0.19;0.66000000000000003;0.029999999999999898;94;2;0;0;0.40999999999999998;0.58999999999999997;0.0;0.0;0;1.883367827273105;4;59;20;2;
2019_03_15 12:49;30;4;1;control;70;118;0;62;52;65;68;0.40999999999999998;0.44;0.10000000000000001;0.0500000000000001;79;20;14;37;0.56999999999999995;0.23999999999999999;0.14000000000000001;0.050000000000000003;0;4.63316376619332;4;59;20;2;
2019_03_15 12:49;30;4;1;control;71;37;1;14;98;0;0;0.93000000000000005;0.070000000000000007;0.0;0.0;41;2;87;66;0.17999999999999999;0.48999999999999999;0.32000000000000001;0.010000000000000101;1;4.483277575346619;4;59;20;2;
2019_03_15 12:49;30;4;1;control;72;66;0;89;23;27;15;0.070000000000000007;0.54000000000000004;0.17000000000000001;0.22;9;73;0;0;0.72999999999999998;0.27000000000000002;0.0;0.0;0;4.01665074268567;4;59;20;2;
2019_03_15 12:49;30;4;1;control;73;12;1;53;68;0;0;0.31;0.68999999999999995;0.0;0.0;69;54;97;29;0.25;0.20999999999999999;0.20000000000000001;0.34000000000000002;0;3.4831816786663694;4;59;20;2;
2019_03_15 12:49;30;4;1;control;74;141;0;93;28;60;91;0.81999999999999995;0.10000000000000001;0.01;0.070000000000000007;14;85;7;89;0.45000000000000001;0.070000000000000007;0.23999999999999999;0.23999999999999999;0;4.683253264415725;4;59;20;2;
2019_03_15 12:49;30;4;1;control;75;116;0;53;65;43;99;0.56999999999999995;0.37;0.050000000000000003;0.010000000000000101;57;72;11;87;0.67000000000000004;0.13;0.14999999999999999;0.050000000000000003;0;12.432888520269444;4;59;20;2;
