date;id;block;order;cond;trial;gameid;leftright;oa1;oa2;oa3;oa4;pa1;pa2;pa3;pa4;ob1;ob2;ob3;ob4;pb1;pb2;pb3;pb4;choice;rt;paytrial;payout;alter;geschlecht;comment
2019_03_21 13:12;47;0;0;practice;1;65;1;35;15;77;1;0.62;0.33000000000000002;0.029999999999999999;0.02;68;3;25;96;0.38;0.28000000000000003;0.28000000000000003;0.059999999999999901;1;10.680462380878907;39;58;22;1;
2019_03_21 13:12;47;0;0;practice;2;63;1;24;82;6;96;0.91000000000000003;0.070000000000000007;0.01;0.0099999999999999603;73;10;71;22;0.31;0.51000000000000001;0.050000000000000003;0.13;1;5.76655711815647;39;58;22;1;
2019_03_21 13:12;47;0;0;practice;3;36;1;56;89;86;77;0.66000000000000003;0.080000000000000002;0.14999999999999999;0.11;29;91;0;0;0.40999999999999998;0.58999999999999997;0.0;0.0;1;7.083353832920238;39;58;22;1;
2019_03_21 13:12;47;0;0;practice;4;72;1;86;85;97;43;0.51000000000000001;0.14999999999999999;0.33000000000000002;0.0099999999999999499;72;29;10;90;0.01;0.11;0.65000000000000002;0.23000000000000001;0;6.416472815944417;39;58;22;1;
2019_03_21 13:12;47;0;0;practice;5;8;0;20;44;0;0;0.26000000000000001;0.73999999999999999;0.0;0.0;99;3;69;24;0.20999999999999999;0.60999999999999999;0.12;0.060000000000000102;1;5.799883192445122;39;58;22;1;
2019_03_21 13:12;47;0;0;practice;6;75;0;21;86;27;62;0.88;0.040000000000000001;0.070000000000000007;0.0099999999999999794;13;3;49;87;0.28999999999999998;0.39000000000000001;0.070000000000000007;0.25;0;5.949891739729992;39;58;22;1;
2019_03_21 13:12;47;0;0;practice;7;71;1;94;87;26;75;0.71999999999999997;0.23999999999999999;0.02;0.02;90;27;12;83;0.16;0.73999999999999999;0.02;0.080000000000000002;0;4.566486815531334;39;58;22;1;
2019_03_21 13:12;47;0;0;practice;8;43;0;11;17;21;44;0.16;0.46000000000000002;0.25;0.13;2;66;0;0;0.44;0.56000000000000005;0.0;0.0;1;7.333206219857857;39;58;22;1;
2019_03_21 13:12;47;0;0;practice;9;35;0;84;95;4;35;0.89000000000000001;0.050000000000000003;0.01;0.050000000000000003;5;98;0;0;0.19;0.81000000000000005;0.0;0.0;1;3.966726524391561;39;58;22;1;
2019_03_21 13:12;47;0;0;practice;10;50;0;17;12;21;14;0.55000000000000004;0.34000000000000002;0.059999999999999998;0.049999999999999899;13;93;0;0;0.28999999999999998;0.70999999999999996;0.0;0.0;1;3.166660840186978;39;58;22;1;
2019_03_21 13:12;47;0;0;practice;11;48;1;20;25;24;35;0.32000000000000001;0.13;0.48999999999999999;0.059999999999999901;44;76;0;0;0.29999999999999999;0.69999999999999996;0.0;0.0;0;3.5998702993538245;39;58;22;1;
2019_03_21 13:12;47;0;0;practice;12;37;1;50;66;99;12;0.26000000000000001;0.71999999999999997;0.01;0.01;22;90;0;0;0.37;0.63;0.0;0.0;1;5.250080100732703;39;58;22;1;
2019_03_21 13:12;47;0;0;practice;13;70;1;21;42;14;63;0.96999999999999997;0.01;0.01;0.01;70;2;6;76;0.23999999999999999;0.42999999999999999;0.01;0.32000000000000001;1;3.6998895748452014;39;58;22;1;
2019_03_21 13:12;47;0;0;practice;14;15;0;24;59;0;0;0.56999999999999995;0.42999999999999999;0.0;0.0;9;8;80;22;0.31;0.10000000000000001;0.55000000000000004;0.039999999999999897;0;4.983252131449262;39;58;22;1;
2019_03_21 13:12;47;0;0;practice;15;24;1;19;38;0;0;0.89000000000000001;0.11;0.0;0.0;45;76;95;57;0.29999999999999999;0.22;0.40000000000000002;0.080000000000000002;1;6.599895315799131;39;58;22;1;
2019_03_21 13:12;47;0;0;practice;16;57;1;39;68;59;91;0.73999999999999999;0.040000000000000001;0.14999999999999999;0.070000000000000007;9;22;40;84;0.29999999999999999;0.32000000000000001;0.040000000000000001;0.34000000000000002;0;2.5500343334670106;39;58;22;1;
2019_03_21 13:12;47;0;0;practice;17;23;0;99;93;0;0;0.57999999999999996;0.41999999999999998;0.0;0.0;64;10;80;81;0.13;0.55000000000000004;0.02;0.29999999999999999;0;2.7668454487225063;39;58;22;1;
2019_03_21 13:12;47;0;0;practice;18;64;0;44;60;96;45;0.53000000000000003;0.10000000000000001;0.029999999999999999;0.34000000000000002;88;20;43;31;0.47999999999999998;0.38;0.050000000000000003;0.089999999999999997;0;2.7000662935793116;39;58;22;1;
2019_03_21 13:12;47;0;0;practice;19;73;0;99;88;95;28;0.83999999999999997;0.14000000000000001;0.01;0.01;90;93;10;74;0.080000000000000002;0.46000000000000002;0.34999999999999998;0.11;0;1.7333946129328979;39;58;22;1;
2019_03_21 13:12;47;0;0;practice;20;4;0;40;59;0;0;0.19;0.81000000000000005;0.0;0.0;10;88;13;45;0.56000000000000005;0.28999999999999998;0.01;0.14000000000000001;0;4.533262731365994;39;58;22;1;
2019_03_21 13:12;47;0;0;practice;21;51;0;38;13;51;84;0.91000000000000003;0.070000000000000007;0.01;0.0099999999999999603;4;89;35;16;0.80000000000000004;0.089999999999999997;0.059999999999999998;0.050000000000000003;0;5.53347344680742;39;58;22;1;
2019_03_21 13:12;47;0;0;practice;22;7;1;13;31;0;0;0.51000000000000001;0.48999999999999999;0.0;0.0;8;79;42;18;0.85999999999999999;0.089999999999999997;0.02;0.029999999999999999;0;6.199923731914623;39;58;22;1;
2019_03_21 13:12;47;0;0;practice;23;39;1;53;65;48;75;0.92000000000000004;0.029999999999999999;0.01;0.040000000000000001;16;83;0;0;0.31;0.68999999999999995;0.0;0.0;0;1.8667556781715575;39;58;22;1;
2019_03_21 13:12;47;0;0;practice;24;44;1;69;48;22;63;0.39000000000000001;0.40999999999999998;0.19;0.01;1;94;0;0;0.22;0.78000000000000003;0.0;0.0;0;2.7332441935391216;39;58;22;1;
2019_03_21 13:12;47;0;0;practice;25;17;0;27;61;0;0;0.68999999999999995;0.31;0.0;0.0;3;91;69;43;0.29999999999999999;0.33000000000000002;0.27000000000000002;0.099999999999999895;1;2.0333421104710396;39;58;22;1;
2019_03_21 13:12;47;0;0;practice;26;69;1;38;74;27;73;0.22;0.19;0.45000000000000001;0.14000000000000001;1;97;79;84;0.28000000000000003;0.45000000000000001;0.17000000000000001;0.10000000000000001;0;2.366689128013604;39;58;22;1;
2019_03_21 13:12;47;0;0;practice;27;46;0;79;57;98;81;0.67000000000000004;0.070000000000000007;0.20999999999999999;0.050000000000000003;1;76;0;0;0.56000000000000005;0.44;0.0;0.0;0;2.13344701917822;39;58;22;1;
2019_03_21 13:12;47;0;0;practice;28;21;0;59;69;0;0;0.34000000000000002;0.66000000000000003;0.0;0.0;64;18;5;24;0.14999999999999999;0.040000000000000001;0.51000000000000001;0.29999999999999999;1;1.116629553594521;39;58;22;1;
2019_03_21 13:12;47;0;0;practice;29;30;0;54;78;85;25;0.20999999999999999;0.60999999999999999;0.089999999999999997;0.090000000000000094;87;20;0;0;0.58999999999999997;0.40999999999999998;0.0;0.0;1;3.1167171111519565;39;58;22;1;
2019_03_21 13:12;47;0;0;practice;30;56;0;47;52;64;10;0.77000000000000002;0.040000000000000001;0.11;0.080000000000000002;1;5;12;99;0.14000000000000001;0.28999999999999998;0.27000000000000002;0.29999999999999999;0;2.000089802623279;39;58;22;1;
2019_03_21 13:12;47;0;0;practice;31;61;1;51;48;56;88;0.91000000000000003;0.02;0.01;0.059999999999999998;78;21;14;82;0.55000000000000004;0.29999999999999999;0.070000000000000007;0.080000000000000002;1;4.533209491239177;39;58;22;1;
2019_03_21 13:12;47;0;0;practice;32;32;0;21;86;16;78;0.45000000000000001;0.41999999999999998;0.050000000000000003;0.080000000000000099;95;9;0;0;0.42999999999999999;0.56999999999999995;0.0;0.0;0;1.8667755630385727;39;58;22;1;
2019_03_21 13:12;47;0;0;practice;33;11;0;10;44;0;0;0.48999999999999999;0.51000000000000001;0.0;0.0;88;12;54;50;0.17000000000000001;0.75;0.02;0.059999999999999998;1;2.8832363839173922;39;58;22;1;
2019_03_21 13:12;47;0;0;practice;34;58;1;44;50;85;42;0.38;0.57999999999999996;0.02;0.02;37;88;19;12;0.20000000000000001;0.29999999999999999;0.46000000000000002;0.040000000000000001;1;3.2665755597668067;39;58;22;1;
2019_03_21 13:12;47;0;0;practice;35;74;1;36;46;10;12;0.11;0.19;0.65000000000000002;0.049999999999999899;92;24;79;19;0.51000000000000001;0.40999999999999998;0.02;0.059999999999999998;1;2.6665695943070205;39;58;22;1;
2019_03_21 13:12;47;0;0;practice;36;60;1;39;93;27;78;0.85999999999999999;0.02;0.11;0.01;22;5;62;95;0.059999999999999998;0.56999999999999995;0.14000000000000001;0.23000000000000001;1;1.8666235400255573;39;58;22;1;
2019_03_21 13:12;47;0;0;practice;37;41;0;19;54;51;8;0.76000000000000001;0.070000000000000007;0.16;0.0099999999999999794;2;77;0;0;0.54000000000000004;0.46000000000000002;0.0;0.0;1;1.766607471770385;39;58;22;1;
2019_03_21 13:12;47;0;0;practice;38;38;1;51;89;10;60;0.57999999999999996;0.029999999999999999;0.080000000000000002;0.31;8;84;0;0;0.33000000000000002;0.67000000000000004;0.0;0.0;1;2.550131512734879;39;58;22;1;
2019_03_21 13:12;47;0;0;practice;39;31;1;72;59;40;92;0.59999999999999998;0.34999999999999998;0.02;0.029999999999999999;97;29;0;0;0.38;0.62;0.0;0.0;1;4.533450675427957;39;58;22;1;
2019_03_21 13:12;47;0;0;practice;40;29;1;66;40;92;49;0.46999999999999997;0.10000000000000001;0.34000000000000002;0.089999999999999997;8;94;0;0;0.44;0.56000000000000005;0.0;0.0;0;1.9331945455169262;39;58;22;1;
2019_03_21 13:12;47;0;0;practice;41;16;1;50;42;0;0;0.32000000000000001;0.68000000000000005;0.0;0.0;97;2;56;31;0.35999999999999999;0.16;0.16;0.32000000000000001;0;1.5833199965745735;39;58;22;1;
2019_03_21 13:12;47;0;0;practice;42;14;0;92;56;0;0;0.11;0.89000000000000001;0.0;0.0;97;31;51;4;0.58999999999999997;0.22;0.080000000000000002;0.11;0;4.900040699831607;39;58;22;1;
2019_03_21 13:12;47;0;0;practice;43;33;1;54;82;55;71;0.56000000000000005;0.20999999999999999;0.02;0.20999999999999999;13;99;0;0;0.5;0.5;0.0;0.0;0;1.5666446115701547;39;58;22;1;
2019_03_21 13:12;47;0;0;practice;44;54;0;69;80;22;55;0.27000000000000002;0.31;0.059999999999999998;0.35999999999999999;52;2;49;90;0.059999999999999998;0.33000000000000002;0.20000000000000001;0.40999999999999998;0;2.033304265079096;39;58;22;1;
2019_03_21 13:12;47;0;0;practice;45;49;1;14;31;42;22;0.77000000000000002;0.089999999999999997;0.02;0.12;87;28;0;0;0.68000000000000005;0.32000000000000001;0.0;0.0;1;2.4000639522969323;39;58;22;1;
2019_03_21 13:12;47;0;0;practice;46;34;1;57;23;66;79;0.56000000000000005;0.23000000000000001;0.13;0.079999999999999905;85;9;0;0;0.56000000000000005;0.44;0.0;0.0;0;1.8165957813935165;39;58;22;1;
2019_03_21 13:12;47;0;0;practice;47;26;0;24;46;74;59;0.29999999999999999;0.11;0.25;0.34000000000000002;91;6;0;0;0.28999999999999998;0.70999999999999996;0.0;0.0;0;3.533318858005714;39;58;22;1;
2019_03_21 13:12;47;0;0;practice;48;59;0;13;27;48;51;0.56999999999999995;0.13;0.13;0.17000000000000001;8;37;97;1;0.65000000000000002;0.16;0.14999999999999999;0.040000000000000001;0;2.133218984659834;39;58;22;1;
2019_03_21 13:12;47;0;0;practice;49;9;0;57;44;0;0;0.14999999999999999;0.84999999999999998;0.0;0.0;38;35;64;95;0.34000000000000002;0.45000000000000001;0.089999999999999997;0.12;1;3.1835539965532007;39;58;22;1;
2019_03_21 13:12;47;0;0;practice;50;45;1;37;40;75;23;0.54000000000000004;0.38;0.059999999999999998;0.02;1;90;0;0;0.28000000000000003;0.71999999999999997;0.0;0.0;1;3.7000611620010204;39;58;22;1;
2019_03_21 13:12;47;0;0;practice;51;18;0;47;36;0;0;0.089999999999999997;0.91000000000000003;0.0;0.0;2;44;81;9;0.20000000000000001;0.25;0.51000000000000001;0.040000000000000001;1;2.349868455192791;39;58;22;1;
2019_03_21 13:12;47;0;0;practice;52;5;0;23;58;0;0;0.71999999999999997;0.28000000000000003;0.0;0.0;94;12;52;3;0.11;0.84999999999999998;0.029999999999999999;0.01;1;3.5832462301341366;39;58;22;1;
2019_03_21 13:12;47;0;0;practice;53;42;1;23;45;91;22;0.72999999999999998;0.02;0.20000000000000001;0.050000000000000003;2;86;0;0;0.40999999999999998;0.58999999999999997;0.0;0.0;0;1.6839595516153167;39;58;22;1;
2019_03_21 13:12;47;0;0;practice;54;19;0;25;73;0;0;0.69999999999999996;0.29999999999999999;0.0;0.0;87;84;1;86;0.040000000000000001;0.59999999999999998;0.28000000000000003;0.080000000000000002;1;0.6001259161071175;39;58;22;1;
2019_03_21 13:12;47;0;0;practice;55;52;0;17;61;57;59;0.070000000000000007;0.050000000000000003;0.33000000000000002;0.55000000000000004;12;93;94;62;0.71999999999999997;0.16;0.080000000000000002;0.040000000000000001;1;1.9832749028287253;39;58;22;1;
2019_03_21 13:12;47;0;0;practice;56;10;1;34;59;0;0;0.16;0.83999999999999997;0.0;0.0;21;61;96;7;0.19;0.01;0.5;0.29999999999999999;0;4.833369949284133;39;58;22;1;
2019_03_21 13:12;47;0;0;practice;57;25;1;7;18;0;0;0.20999999999999999;0.79000000000000004;0.0;0.0;92;45;33;13;0.41999999999999998;0.17999999999999999;0.22;0.17999999999999999;1;3.900015362662998;39;58;22;1;
2019_03_21 13:12;47;0;0;practice;58;3;0;20;70;0;0;0.13;0.87;0.0;0.0;95;19;80;73;0.31;0.57999999999999996;0.029999999999999999;0.080000000000000002;1;1.3665922694694927;39;58;22;1;
2019_03_21 13:12;47;0;0;practice;59;28;1;37;83;75;8;0.83999999999999997;0.070000000000000007;0.01;0.080000000000000002;94;2;0;0;0.19;0.81000000000000005;0.0;0.0;0;1.9832203798077899;39;58;22;1;
2019_03_21 13:12;47;0;0;practice;60;20;1;32;11;0;0;0.40999999999999998;0.58999999999999997;0.0;0.0;1;86;42;65;0.45000000000000001;0.38;0.050000000000000003;0.12;1;2.483253895429698;39;58;22;1;
2019_03_21 13:12;47;0;0;practice;61;62;0;65;52;74;55;0.16;0.12;0.14999999999999999;0.56999999999999995;72;86;2;68;0.12;0.53000000000000003;0.22;0.13;1;1.8665545844396547;39;58;22;1;
2019_03_21 13:12;47;0;0;practice;62;1;0;67;36;0;0;0.14999999999999999;0.84999999999999998;0.0;0.0;1;4;81;77;0.25;0.54000000000000004;0.14000000000000001;0.070000000000000007;0;2.7165745815595983;39;58;22;1;
2019_03_21 13:12;47;0;0;practice;63;12;1;45;86;0;0;0.97999999999999998;0.02;0.0;0.0;6;23;95;81;0.14999999999999999;0.40999999999999998;0.050000000000000003;0.39000000000000001;1;5.266591916673406;39;58;22;1;
2019_03_21 13:12;47;0;0;practice;64;6;0;42;59;0;0;0.35999999999999999;0.64000000000000001;0.0;0.0;77;19;6;7;0.44;0.14999999999999999;0.17999999999999999;0.23000000000000001;0;2.9332259764350965;39;58;22;1;
2019_03_21 13:12;47;0;0;practice;65;66;1;44;18;63;36;0.47999999999999998;0.10000000000000001;0.029999999999999999;0.39000000000000001;13;93;61;53;0.52000000000000002;0.45000000000000001;0.02;0.0099999999999999707;1;1.8336355084702518;39;58;22;1;
2019_03_21 13:12;47;0;0;practice;66;53;1;47;24;95;38;0.57999999999999996;0.28000000000000003;0.02;0.12;8;22;93;96;0.54000000000000004;0.34000000000000002;0.10000000000000001;0.0199999999999999;1;1.3667500655078584;39;58;22;1;
2019_03_21 13:12;47;0;0;practice;67;27;0;68;43;98;36;0.54000000000000004;0.44;0.01;0.0099999999999999603;97;13;0;0;0.27000000000000002;0.72999999999999998;0.0;0.0;1;3.049826344176836;39;58;22;1;
2019_03_21 13:12;47;0;0;practice;68;55;1;53;11;80;74;0.31;0.37;0.28000000000000003;0.039999999999999897;6;93;98;96;0.69999999999999996;0.22;0.050000000000000003;0.029999999999999999;0;1.9999185361916716;39;58;22;1;
2019_03_21 13:12;47;0;0;practice;69;67;0;74;31;10;77;0.11;0.070000000000000007;0.77000000000000002;0.050000000000000003;2;23;8;97;0.56999999999999995;0.01;0.059999999999999998;0.35999999999999999;0;2.1832929274983144;39;58;22;1;
2019_03_21 13:12;47;0;0;practice;70;13;0;15;25;0;0;0.29999999999999999;0.69999999999999996;0.0;0.0;3;43;35;73;0.44;0.40000000000000002;0.01;0.14999999999999999;1;1.566643007951825;39;58;22;1;
2019_03_21 13:12;47;0;0;practice;71;40;0;29;65;30;41;0.70999999999999996;0.01;0.14999999999999999;0.13;2;59;0;0;0.32000000000000001;0.68000000000000005;0.0;0.0;0;3.366569818813332;39;58;22;1;
2019_03_21 13:12;47;0;0;practice;72;22;0;84;87;0;0;0.17000000000000001;0.82999999999999996;0.0;0.0;3;24;41;83;0.68000000000000005;0.11;0.10000000000000001;0.11;1;1.766619017821995;39;58;22;1;
2019_03_21 13:12;47;0;0;practice;73;2;1;41;60;0;0;0.97999999999999998;0.02;0.0;0.0;10;14;97;6;0.54000000000000004;0.17000000000000001;0.12;0.17000000000000001;0;7.250068554681093;39;58;22;1;
2019_03_21 13:12;47;0;0;practice;74;68;1;39;58;40;8;0.48999999999999999;0.44;0.02;0.050000000000000003;92;83;51;2;0.57999999999999996;0.13;0.02;0.27000000000000002;0;1.9666123467704892;39;58;22;1;
2019_03_21 13:12;47;0;0;practice;75;47;0;91;99;90;78;0.93000000000000005;0.040000000000000001;0.02;0.0099999999999999499;10;87;0;0;0.23000000000000001;0.77000000000000002;0.0;0.0;0;1.6499413556798572;39;58;22;1;
2019_03_21 13:12;47;1;0;control;1;84;0;43;10;5;45;0.78000000000000003;0.13;0.059999999999999998;0.029999999999999999;87;1;0;0;0.57999999999999996;0.41999999999999998;0.0;0.0;0;2.76774026772091;39;58;22;1;
2019_03_21 13:12;47;1;0;control;2;3;1;53;40;0;0;0.31;0.68999999999999995;0.0;0.0;96;24;7;88;0.11;0.27000000000000002;0.58999999999999997;0.029999999999999999;0;4.383192925862659;39;58;22;1;
2019_03_21 13:12;47;1;0;control;3;12;0;53;68;0;0;0.31;0.68999999999999995;0.0;0.0;69;54;97;29;0.25;0.20999999999999999;0.20000000000000001;0.34000000000000002;1;2.0998980419503823;39;58;22;1;
2019_03_21 13:12;47;1;0;control;4;83;1;17;12;7;41;0.65000000000000002;0.19;0.089999999999999997;0.070000000000000007;6;84;0;0;0.72999999999999998;0.27000000000000002;0.0;0.0;0;6.7998623454068365;39;58;22;1;
2019_03_21 13:12;47;1;0;control;5;64;0;48;39;34;19;0.46000000000000002;0.5;0.02;0.02;13;92;0;0;0.68999999999999995;0.31;0.0;0.0;0;2.666728352516202;39;58;22;1;
2019_03_21 13:12;47;1;0;control;6;56;0;28;84;37;41;0.68000000000000005;0.28000000000000003;0.02;0.0199999999999999;6;95;0;0;0.72999999999999998;0.27000000000000002;0.0;0.0;0;6.600033226970481;39;58;22;1;
2019_03_21 13:12;47;1;0;control;7;34;0;32;48;0;0;0.28000000000000003;0.71999999999999997;0.0;0.0;97;83;7;62;0.040000000000000001;0.54000000000000004;0.35999999999999999;0.059999999999999901;0;3.3498998861109612;39;58;22;1;
2019_03_21 13:12;47;1;0;control;8;105;0;49;74;63;58;0.84999999999999998;0.080000000000000002;0.02;0.050000000000000003;97;5;86;8;0.25;0.52000000000000002;0.070000000000000007;0.16;0;3.883242477666954;39;58;22;1;
2019_03_21 13:12;47;1;0;control;9;76;0;39;62;9;28;0.01;0.51000000000000001;0.26000000000000001;0.22;77;7;0;0;0.57999999999999996;0.41999999999999998;0.0;0.0;1;2.466547400229956;39;58;22;1;
2019_03_21 13:12;47;1;0;control;10;132;0;27;70;21;19;0.64000000000000001;0.23000000000000001;0.029999999999999999;0.10000000000000001;11;85;55;6;0.39000000000000001;0.46999999999999997;0.029999999999999999;0.11;0;5.233281557844748;39;58;22;1;
2019_03_21 13:12;47;1;0;control;11;36;1;70;17;0;0;0.33000000000000002;0.67000000000000004;0.0;0.0;84;1;12;88;0.22;0.27000000000000002;0.14000000000000001;0.37;1;2.799942847044804;39;58;22;1;
2019_03_21 13:12;47;1;0;control;12;133;0;59;88;60;36;0.67000000000000004;0.070000000000000007;0.12;0.14000000000000001;7;91;66;61;0.25;0.68999999999999995;0.01;0.0500000000000001;1;5.8000121233540085;39;58;22;1;
2019_03_21 13:12;47;1;0;control;13;144;0;99;93;90;71;0.65000000000000002;0.32000000000000001;0.01;0.02;97;14;48;73;0.23000000000000001;0.46000000000000002;0.13;0.17999999999999999;0;4.033265778241002;39;58;22;1;
2019_03_21 13:12;47;1;0;control;14;41;1;99;40;0;0;0.89000000000000001;0.11;0.0;0.0;1;67;52;46;0.51000000000000001;0.38;0.029999999999999999;0.080000000000000002;0;2.9334257872724265;39;58;22;1;
2019_03_21 13:12;47;1;0;control;15;32;1;19;81;0;0;0.93000000000000005;0.070000000000000007;0.0;0.0;1;65;41;68;0.45000000000000001;0.050000000000000003;0.059999999999999998;0.44;1;3.916578494388432;39;58;22;1;
2019_03_21 13:12;47;1;0;control;16;140;0;36;32;26;27;0.39000000000000001;0.14999999999999999;0.19;0.27000000000000002;44;3;99;25;0.29999999999999999;0.34000000000000002;0.34000000000000002;0.0199999999999999;1;1.8999355024729994;39;58;22;1;
2019_03_21 13:12;47;1;0;control;17;55;1;74;55;47;48;0.60999999999999999;0.31;0.070000000000000007;0.01;97;6;0;0;0.42999999999999999;0.56999999999999995;0.0;0.0;1;2.449911143511599;39;58;22;1;
2019_03_21 13:12;47;1;0;control;18;131;1;83;41;81;88;0.23999999999999999;0.58999999999999997;0.10000000000000001;0.070000000000000007;82;97;4;17;0.26000000000000001;0.46999999999999997;0.11;0.16;1;3.983281958749558;39;58;22;1;
2019_03_21 13:12;47;1;0;control;19;33;0;27;70;0;0;0.88;0.12;0.0;0.0;93;3;77;16;0.080000000000000002;0.40000000000000002;0.5;0.02;1;1.9999069901400617;39;58;22;1;
2019_03_21 13:12;47;1;0;control;20;11;1;17;36;0;0;0.14000000000000001;0.85999999999999999;0.0;0.0;19;41;34;95;0.88;0.02;0.050000000000000003;0.050000000000000003;0;2.6999120255013622;39;58;22;1;
2019_03_21 13:12;47;1;0;control;21;126;0;16;55;51;42;0.68999999999999995;0.23999999999999999;0.01;0.060000000000000102;66;4;1;5;0.46999999999999997;0.38;0.089999999999999997;0.059999999999999998;0;2.0999269070789524;39;58;22;1;
2019_03_21 13:12;47;1;0;control;22;51;1;52;23;43;16;0.60999999999999999;0.20999999999999999;0.01;0.17000000000000001;92;7;0;0;0.14999999999999999;0.84999999999999998;0.0;0.0;0;5.066539574572744;39;58;22;1;
2019_03_21 13:12;47;1;0;control;23;15;0;77;81;0;0;0.28000000000000003;0.71999999999999997;0.0;0.0;98;14;87;18;0.55000000000000004;0.23000000000000001;0.16;0.059999999999999901;0;4.65004751520928;39;58;22;1;
2019_03_21 13:12;47;1;0;control;24;42;0;70;48;0;0;0.79000000000000004;0.20999999999999999;0.0;0.0;51;8;12;67;0.19;0.26000000000000001;0.28999999999999998;0.26000000000000001;0;3.6831471585969666;39;58;22;1;
2019_03_21 13:12;47;1;0;control;25;75;0;67;80;36;81;0.81999999999999995;0.080000000000000002;0.059999999999999998;0.040000000000000001;3;97;0;0;0.32000000000000001;0.68000000000000005;0.0;0.0;1;6.683233112536527;39;58;22;1;
2019_03_21 13:12;47;1;0;control;26;1;1;22;51;0;0;0.26000000000000001;0.73999999999999999;0.0;0.0;14;11;92;31;0.29999999999999999;0.40999999999999998;0.14999999999999999;0.14000000000000001;0;5.300513574788965;39;58;22;1;
2019_03_21 13:12;47;1;0;control;27;117;1;65;85;92;41;0.23000000000000001;0.17999999999999999;0.54000000000000004;0.050000000000000003;99;93;10;13;0.64000000000000001;0.16;0.01;0.19;1;2.2498036369420333;39;58;22;1;
2019_03_21 13:12;47;1;0;control;28;35;0;33;37;0;0;0.88;0.12;0.0;0.0;63;4;79;98;0.16;0.46000000000000002;0.17000000000000001;0.20999999999999999;0;3.2668045564569184;39;58;22;1;
2019_03_21 13:12;47;1;0;control;29;4;1;40;43;0;0;0.58999999999999997;0.40999999999999998;0.0;0.0;2;33;88;81;0.69999999999999996;0.14000000000000001;0.13;0.029999999999999999;0;5.283234267141779;39;58;22;1;
2019_03_21 13:12;47;1;0;control;30;107;0;52;48;13;63;0.68000000000000005;0.19;0.050000000000000003;0.079999999999999905;54;91;33;3;0.19;0.17999999999999999;0.33000000000000002;0.29999999999999999;0;2.2834167589012395;39;58;22;1;
2019_03_21 13:12;47;1;0;control;31;61;1;43;18;39;70;0.75;0.089999999999999997;0.089999999999999997;0.070000000000000007;16;66;0;0;0.64000000000000001;0.35999999999999999;0.0;0.0;0;2.3999295690850886;39;58;22;1;
2019_03_21 13:12;47;1;0;control;32;111;0;51;36;48;27;0.93000000000000005;0.01;0.01;0.049999999999999899;31;78;30;53;0.55000000000000004;0.16;0.029999999999999999;0.26000000000000001;0;4.249864253712985;39;58;22;1;
2019_03_21 13:12;47;1;0;control;33;73;0;65;68;70;47;0.25;0.23000000000000001;0.20999999999999999;0.31;27;95;0;0;0.45000000000000001;0.55000000000000004;0.0;0.0;1;4.0165483784371645;39;58;22;1;
2019_03_21 13:12;47;1;0;control;34;148;0;37;63;55;10;0.72999999999999998;0.070000000000000007;0.029999999999999999;0.17000000000000001;80;14;23;70;0.46999999999999997;0.10000000000000001;0.23000000000000001;0.20000000000000001;0;3.200085376637162;39;58;22;1;
2019_03_21 13:12;47;1;0;control;35;68;0;84;27;55;62;0.01;0.050000000000000003;0.40999999999999998;0.53000000000000003;9;82;0;0;0.37;0.63;0.0;0.0;1;3.2832047605652406;39;58;22;1;
2019_03_21 13:12;47;1;0;control;36;17;1;81;52;0;0;0.059999999999999998;0.93999999999999995;0.0;0.0;34;3;69;41;0.01;0.22;0.75;0.02;1;2.0000593338763792;39;58;22;1;
2019_03_21 13:12;47;1;0;control;37;114;0;57;39;79;97;0.77000000000000002;0.02;0.13;0.080000000000000002;92;36;6;1;0.54000000000000004;0.12;0.13;0.20999999999999999;0;3.4499056912090964;39;58;22;1;
2019_03_21 13:12;47;1;0;control;38;58;1;37;58;76;34;0.20999999999999999;0.57999999999999996;0.19;0.020000000000000101;86;5;0;0;0.47999999999999998;0.52000000000000002;0.0;0.0;1;6.083368586208508;39;58;22;1;
2019_03_21 13:12;47;1;0;control;39;95;0;93;88;68;85;0.83999999999999997;0.14000000000000001;0.01;0.01;2;82;0;0;0.41999999999999998;0.57999999999999996;0.0;0.0;0;5.60006273354702;39;58;22;1;
2019_03_21 13:12;47;1;0;control;40;101;0;30;96;61;45;0.65000000000000002;0.14000000000000001;0.11;0.10000000000000001;3;98;63;89;0.75;0.19;0.040000000000000001;0.02;1;2.266656382128076;39;58;22;1;
2019_03_21 13:12;47;1;0;control;41;80;1;47;39;45;10;0.13;0.76000000000000001;0.059999999999999998;0.050000000000000003;2;87;0;0;0.48999999999999999;0.51000000000000001;0.0;0.0;0;4.033340827576012;39;58;22;1;
2019_03_21 13:12;47;1;0;control;42;134;0;57;48;50;55;0.02;0.62;0.17999999999999999;0.17999999999999999;80;96;15;18;0.23999999999999999;0.35999999999999999;0.33000000000000002;0.070000000000000007;1;1.9665498056574506;39;58;22;1;
2019_03_21 13:12;47;1;0;control;43;87;1;10;30;63;4;0.56999999999999995;0.12;0.16;0.14999999999999999;86;2;0;0;0.42999999999999999;0.56999999999999995;0.0;0.0;0;4.1999208454021755;39;58;22;1;
2019_03_21 13:12;47;1;0;control;44;98;1;27;10;31;79;0.23000000000000001;0.67000000000000004;0.070000000000000007;0.029999999999999999;25;99;0;0;0.38;0.62;0.0;0.0;1;2.383390812357902;39;58;22;1;
2019_03_21 13:12;47;1;0;control;45;21;0;64;28;0;0;0.080000000000000002;0.92000000000000004;0.0;0.0;50;1;88;13;0.57999999999999996;0.13;0.02;0.27000000000000002;0;2.6165902649463533;39;58;22;1;
2019_03_21 13:12;47;1;0;control;46;20;1;44;40;0;0;0.91000000000000003;0.089999999999999997;0.0;0.0;29;5;80;99;0.25;0.40000000000000002;0.26000000000000001;0.089999999999999997;0;5.833240697651036;39;58;22;1;
2019_03_21 13:12;47;1;0;control;47;122;0;35;58;25;31;0.81999999999999995;0.070000000000000007;0.080000000000000002;0.029999999999999999;18;64;68;89;0.63;0.17000000000000001;0.11;0.089999999999999997;0;4.999874917774832;39;58;22;1;
2019_03_21 13:12;47;1;0;control;48;97;0;17;33;32;74;0.94999999999999996;0.01;0.029999999999999999;0.01;76;23;0;0;0.33000000000000002;0.67000000000000004;0.0;0.0;0;2.9831568765234806;39;58;22;1;
2019_03_21 13:12;47;1;0;control;49;85;1;31;22;82;50;0.11;0.69999999999999996;0.01;0.17999999999999999;3;99;0;0;0.62;0.38;0.0;0.0;0;2.8666995515322924;39;58;22;1;
2019_03_21 13:12;47;1;0;control;50;103;0;38;49;89;50;0.89000000000000001;0.070000000000000007;0.01;0.029999999999999999;6;64;99;27;0.70999999999999996;0.17999999999999999;0.059999999999999998;0.050000000000000003;0;3.516568423665376;39;58;22;1;
2019_03_21 13:12;47;1;0;control;51;13;0;52;56;0;0;0.46999999999999997;0.53000000000000003;0.0;0.0;94;71;27;2;0.089999999999999997;0.31;0.57999999999999996;0.020000000000000101;1;1.566876494772714;39;58;22;1;
2019_03_21 13:12;47;1;0;control;52;18;1;68;50;0;0;0.029999999999999999;0.96999999999999997;0.0;0.0;34;64;15;89;0.65000000000000002;0.029999999999999999;0.050000000000000003;0.27000000000000002;0;1.4000876858476659;39;58;22;1;
2019_03_21 13:12;47;1;0;control;53;48;1;13;32;0;0;0.90000000000000002;0.10000000000000001;0.0;0.0;24;99;84;94;0.62;0.14999999999999999;0.20000000000000001;0.029999999999999999;1;5.033171164762734;39;58;22;1;
2019_03_21 13:12;47;1;0;control;54;25;0;50;53;0;0;0.82999999999999996;0.17000000000000001;0.0;0.0;83;16;97;4;0.45000000000000001;0.29999999999999999;0.11;0.14000000000000001;1;6.216713294540568;39;58;22;1;
2019_03_21 13:12;47;1;0;control;55;39;1;14;33;0;0;0.78000000000000003;0.22;0.0;0.0;93;84;1;25;0.14000000000000001;0.23999999999999999;0.39000000000000001;0.23000000000000001;0;2.0001202713706334;39;58;22;1;
2019_03_21 13:12;47;1;0;control;56;78;1;74;36;34;3;0.14999999999999999;0.64000000000000001;0.13;0.080000000000000002;1;83;0;0;0.41999999999999998;0.57999999999999996;0.0;0.0;0;3.6833748723920507;39;58;22;1;
2019_03_21 13:12;47;1;0;control;57;16;0;64;53;0;0;0.65000000000000002;0.34999999999999998;0.0;0.0;29;17;81;46;0.10000000000000001;0.01;0.44;0.45000000000000001;0;2.300058467922554;39;58;22;1;
2019_03_21 13:12;47;1;0;control;58;136;0;29;67;14;75;0.46000000000000002;0.29999999999999999;0.20999999999999999;0.0300000000000001;70;86;1;85;0.31;0.39000000000000001;0.27000000000000002;0.029999999999999898;0;2.3668334536582734;39;58;22;1;
2019_03_21 13:12;47;1;0;control;59;53;1;26;70;50;80;0.29999999999999999;0.59999999999999998;0.040000000000000001;0.059999999999999998;89;1;0;0;0.40999999999999998;0.58999999999999997;0.0;0.0;1;2.366540312237248;39;58;22;1;
2019_03_21 13:12;47;1;0;control;60;118;0;62;52;65;68;0.40999999999999998;0.44;0.10000000000000001;0.0500000000000001;79;20;14;37;0.56999999999999995;0.23999999999999999;0.14000000000000001;0.050000000000000003;1;5.049901714235602;39;58;22;1;
2019_03_21 13:12;47;1;0;control;61;6;1;9;51;0;0;0.14999999999999999;0.84999999999999998;0.0;0.0;6;40;50;73;0.42999999999999999;0.26000000000000001;0.059999999999999998;0.25;0;4.716560469718843;39;58;22;1;
2019_03_21 13:12;47;1;0;control;62;43;1;60;83;0;0;0.23000000000000001;0.77000000000000002;0.0;0.0;72;5;70;12;0.29999999999999999;0.40999999999999998;0.12;0.17000000000000001;0;2.2666105186453933;39;58;22;1;
2019_03_21 13:12;47;1;0;control;63;121;1;42;51;47;70;0.41999999999999998;0.17000000000000001;0.23999999999999999;0.17000000000000001;21;76;48;9;0.14999999999999999;0.34000000000000002;0.40999999999999998;0.10000000000000001;1;7.2165856465258;39;58;22;1;
2019_03_21 13:12;47;1;0;control;64;70;0;66;55;69;50;0.22;0.29999999999999999;0.29999999999999999;0.17999999999999999;2;90;0;0;0.34000000000000002;0.66000000000000003;0.0;0.0;1;3.3001521192295513;39;58;22;1;
2019_03_21 13:12;47;1;0;control;65;38;1;40;70;0;0;0.53000000000000003;0.46999999999999997;0.0;0.0;97;90;6;96;0.56999999999999995;0.070000000000000007;0.27000000000000002;0.089999999999999997;0;6.69984306991546;39;58;22;1;
2019_03_21 13:12;47;1;0;control;66;74;1;66;47;52;44;0.41999999999999998;0.26000000000000001;0.17999999999999999;0.14000000000000001;17;99;0;0;0.47999999999999998;0.52000000000000002;0.0;0.0;1;3.2998769383334547;39;58;22;1;
2019_03_21 13:12;47;1;0;control;67;128;1;70;49;27;54;0.27000000000000002;0.53000000000000003;0.02;0.17999999999999999;72;97;6;20;0.29999999999999999;0.39000000000000001;0.22;0.0899999999999999;1;5.399860613499186;39;58;22;1;
2019_03_21 13:12;47;1;0;control;68;130;1;37;79;23;95;0.94999999999999996;0.029999999999999999;0.01;0.01;94;4;58;49;0.46000000000000002;0.5;0.029999999999999999;0.01;1;1.2331891894318687;39;58;22;1;
2019_03_21 13:12;47;1;0;control;69;123;0;26;24;51;92;0.72999999999999998;0.16;0.070000000000000007;0.040000000000000001;6;90;82;49;0.64000000000000001;0.25;0.050000000000000003;0.059999999999999998;1;2.2167437632879228;39;58;22;1;
2019_03_21 13:12;47;1;0;control;70;120;0;64;40;48;51;0.19;0.02;0.070000000000000007;0.71999999999999997;97;9;79;94;0.23000000000000001;0.54000000000000004;0.01;0.22;1;2.2165843636312275;39;58;22;1;
2019_03_21 13:12;47;1;0;control;71;40;0;45;49;0;0;0.68999999999999995;0.31;0.0;0.0;2;92;65;73;0.23999999999999999;0.59999999999999998;0.11;0.050000000000000003;0;4.166724984917892;39;58;22;1;
2019_03_21 13:12;47;1;0;control;72;77;0;24;17;99;41;0.17999999999999999;0.13;0.10000000000000001;0.58999999999999997;12;97;0;0;0.59999999999999998;0.40000000000000002;0.0;0.0;1;2.3667452546528693;39;58;22;1;
2019_03_21 13:12;47;1;0;control;73;81;0;67;38;52;65;0.27000000000000002;0.35999999999999999;0.01;0.35999999999999999;2;77;0;0;0.14000000000000001;0.85999999999999999;0.0;0.0;1;1.85004501356525;39;58;22;1;
2019_03_21 13:12;47;1;0;control;74;104;0;55;85;93;3;0.87;0.02;0.089999999999999997;0.02;1;2;90;8;0.35999999999999999;0.070000000000000007;0.40000000000000002;0.17000000000000001;1;2.5999097483631886;39;58;22;1;
2019_03_21 13:12;47;1;0;control;75;24;0;35;27;0;0;0.070000000000000007;0.93000000000000005;0.0;0.0;62;3;81;95;0.35999999999999999;0.55000000000000004;0.01;0.080000000000000002;0;5.116481058542377;39;58;22;1;
2019_03_21 13:12;47;2;0;timed;1;84;1;43;10;5;45;0.78000000000000003;0.13;0.059999999999999998;0.029999999999999999;87;1;0;0;0.57999999999999996;0.41999999999999998;0.0;0.0;NA;1.9241145381142815;39;58;22;1;
2019_03_21 13:12;47;2;0;timed;2;148;0;37;63;55;10;0.72999999999999998;0.070000000000000007;0.029999999999999999;0.17000000000000001;80;14;23;70;0.46999999999999997;0.10000000000000001;0.23000000000000001;0.20000000000000001;0;1.149960759460555;39;58;22;1;
2019_03_21 13:12;47;2;0;timed;3;80;0;47;39;45;10;0.13;0.76000000000000001;0.059999999999999998;0.050000000000000003;2;87;0;0;0.48999999999999999;0.51000000000000001;0.0;0.0;1;0.7668015095819101;39;58;22;1;
2019_03_21 13:12;47;2;0;timed;4;128;0;70;49;27;54;0.27000000000000002;0.53000000000000003;0.02;0.17999999999999999;72;97;6;20;0.29999999999999999;0.39000000000000001;0.22;0.0899999999999999;0;0.7834063353825513;39;58;22;1;
2019_03_21 13:12;47;2;0;timed;5;59;0;56;47;83;90;0.31;0.12;0.54000000000000004;0.029999999999999898;10;98;0;0;0.46999999999999997;0.53000000000000003;0.0;0.0;0;0.9164909368305416;39;58;22;1;
2019_03_21 13:12;47;2;0;timed;6;87;1;10;30;63;4;0.56999999999999995;0.12;0.16;0.14999999999999999;86;2;0;0;0.42999999999999999;0.56999999999999995;0.0;0.0;0;0.9166436012906161;39;58;22;1;
2019_03_21 13:12;47;2;0;timed;7;73;0;65;68;70;47;0.25;0.23000000000000001;0.20999999999999999;0.31;27;95;0;0;0.45000000000000001;0.55000000000000004;0.0;0.0;0;0.8833284316069694;39;58;22;1;
2019_03_21 13:12;47;2;0;timed;8;2;1;59;32;0;0;0.080000000000000002;0.92000000000000004;0.0;0.0;33;38;85;1;0.28999999999999998;0.050000000000000003;0.070000000000000007;0.58999999999999997;0;0.7999470164522791;39;58;22;1;
2019_03_21 13:12;47;2;0;timed;9;39;0;14;33;0;0;0.78000000000000003;0.22;0.0;0.0;93;84;1;25;0.14000000000000001;0.23999999999999999;0.39000000000000001;0.23000000000000001;0;0.7332393826836778;39;58;22;1;
2019_03_21 13:12;47;2;0;timed;10;97;1;17;33;32;74;0.94999999999999996;0.01;0.029999999999999999;0.01;76;23;0;0;0.33000000000000002;0.67000000000000004;0.0;0.0;0;0.7832507844100292;39;58;22;1;
2019_03_21 13:12;47;2;0;timed;11;41;1;99;40;0;0;0.89000000000000001;0.11;0.0;0.0;1;67;52;46;0.51000000000000001;0.38;0.029999999999999999;0.080000000000000002;1;0.7333599747785229;39;58;22;1;
2019_03_21 13:12;47;2;0;timed;12;48;1;13;32;0;0;0.90000000000000002;0.10000000000000001;0.0;0.0;24;99;84;94;0.62;0.14999999999999999;0.20000000000000001;0.029999999999999999;0;0.8499677191639421;39;58;22;1;
2019_03_21 13:12;47;2;0;timed;13;118;0;62;52;65;68;0.40999999999999998;0.44;0.10000000000000001;0.0500000000000001;79;20;14;37;0.56999999999999995;0.23999999999999999;0.14000000000000001;0.050000000000000003;1;0.7499259930164044;39;58;22;1;
2019_03_21 13:12;47;2;0;timed;14;47;0;2;40;0;0;0.45000000000000001;0.55000000000000004;0.0;0.0;93;89;11;56;0.58999999999999997;0.070000000000000007;0.28000000000000003;0.059999999999999998;0;0.9667371082723548;39;58;22;1;
2019_03_21 13:12;47;2;0;timed;15;138;0;8;20;43;51;0.38;0.5;0.02;0.10000000000000001;72;82;70;1;0.39000000000000001;0.050000000000000003;0.070000000000000007;0.48999999999999999;1;0.8666690827849379;39;58;22;1;
2019_03_21 13:12;47;2;0;timed;16;66;1;89;23;27;15;0.070000000000000007;0.54000000000000004;0.17000000000000001;0.22;9;73;0;0;0.72999999999999998;0.27000000000000002;0.0;0.0;1;0.816559218897055;39;58;22;1;
2019_03_21 13:12;47;2;0;timed;17;119;0;60;58;11;18;0.25;0.72999999999999998;0.01;0.01;96;23;42;85;0.44;0.48999999999999999;0.059999999999999998;0.010000000000000101;0;0.9666011214421815;39;58;22;1;
2019_03_21 13:12;47;2;0;timed;18;8;0;50;36;0;0;0.080000000000000002;0.92000000000000004;0.0;0.0;6;19;84;29;0.54000000000000004;0.070000000000000007;0.17000000000000001;0.22;1;0.8833200927915641;39;58;22;1;
2019_03_21 13:12;47;2;0;timed;19;60;1;64;59;57;96;0.83999999999999997;0.13;0.02;0.01;83;6;0;0;0.54000000000000004;0.46000000000000002;0.0;0.0;0;0.8667781288277183;39;58;22;1;
2019_03_21 13:12;47;2;0;timed;20;117;1;65;85;92;41;0.23000000000000001;0.17999999999999999;0.54000000000000004;0.050000000000000003;99;93;10;13;0.64000000000000001;0.16;0.01;0.19;1;1.0165772435661893;39;58;22;1;
2019_03_21 13:12;47;2;0;timed;21;100;0;27;14;59;52;0.02;0.95999999999999996;0.01;0.01;17;98;0;0;0.48999999999999999;0.51000000000000001;0.0;0.0;1;0.8999220320793029;39;58;22;1;
2019_03_21 13:12;47;2;0;timed;22;3;0;53;40;0;0;0.31;0.68999999999999995;0.0;0.0;96;24;7;88;0.11;0.27000000000000002;0.58999999999999997;0.029999999999999999;1;1.0001177055814878;39;58;22;1;
2019_03_21 13:12;47;2;0;timed;23;120;0;64;40;48;51;0.19;0.02;0.070000000000000007;0.71999999999999997;97;9;79;94;0.23000000000000001;0.54000000000000004;0.01;0.22;0;0.7835105705703427;39;58;22;1;
2019_03_21 13:12;47;2;0;timed;24;86;0;56;30;57;88;0.20000000000000001;0.35999999999999999;0.080000000000000002;0.35999999999999999;98;2;0;0;0.77000000000000002;0.23000000000000001;0.0;0.0;1;0.8332955413957279;39;58;22;1;
2019_03_21 13:12;47;2;0;timed;25;88;1;77;13;12;7;0.12;0.19;0.66000000000000003;0.029999999999999898;94;2;0;0;0.40999999999999998;0.58999999999999997;0.0;0.0;0;0.9332542001170623;39;58;22;1;
2019_03_21 13:12;47;2;0;timed;26;22;1;32;55;0;0;0.39000000000000001;0.60999999999999999;0.0;0.0;93;72;59;22;0.20000000000000001;0.11;0.14000000000000001;0.55000000000000004;1;0.8329122766276669;39;58;22;1;
2019_03_21 13:12;47;2;0;timed;27;58;1;37;58;76;34;0.20999999999999999;0.57999999999999996;0.19;0.020000000000000101;86;5;0;0;0.47999999999999998;0.52000000000000002;0.0;0.0;0;0.9832774686178709;39;58;22;1;
2019_03_21 13:12;47;2;0;timed;28;17;0;81;52;0;0;0.059999999999999998;0.93999999999999995;0.0;0.0;34;3;69;41;0.01;0.22;0.75;0.02;1;1.016767753417298;39;58;22;1;
2019_03_21 13:12;47;2;0;timed;29;123;0;26;24;51;92;0.72999999999999998;0.16;0.070000000000000007;0.040000000000000001;6;90;82;49;0.64000000000000001;0.25;0.050000000000000003;0.059999999999999998;0;0.7834284653149552;39;58;22;1;
2019_03_21 13:12;47;2;0;timed;30;31;0;10;59;0;0;0.23999999999999999;0.76000000000000001;0.0;0.0;1;79;53;73;0.23000000000000001;0.58999999999999997;0.050000000000000003;0.13;1;0.8832883411496368;39;58;22;1;
2019_03_21 13:12;47;2;0;timed;31;72;0;63;82;51;61;0.01;0.96999999999999997;0.01;0.01;92;12;0;0;0.89000000000000001;0.11;0.0;0.0;1;1.0167125889483941;39;58;22;1;
2019_03_21 13:12;47;2;0;timed;32;144;0;99;93;90;71;0.65000000000000002;0.32000000000000001;0.01;0.02;97;14;48;73;0.23000000000000001;0.46000000000000002;0.13;0.17999999999999999;1;0.8832501750348456;39;58;22;1;
2019_03_21 13:12;47;2;0;timed;33;71;1;68;55;36;51;0.20000000000000001;0.75;0.02;0.029999999999999999;38;81;0;0;0.52000000000000002;0.47999999999999998;0.0;0.0;0;0.8499038951567854;39;58;22;1;
2019_03_21 13:12;47;2;0;timed;34;11;0;17;36;0;0;0.14000000000000001;0.85999999999999999;0.0;0.0;19;41;34;95;0.88;0.02;0.050000000000000003;0.050000000000000003;1;0.9333994879330021;39;58;22;1;
2019_03_21 13:12;47;2;0;timed;35;64;0;48;39;34;19;0.46000000000000002;0.5;0.02;0.02;13;92;0;0;0.68999999999999995;0.31;0.0;0.0;0;0.9500472907029689;39;58;22;1;
2019_03_21 13:12;47;2;0;timed;36;70;0;66;55;69;50;0.22;0.29999999999999999;0.29999999999999999;0.17999999999999999;2;90;0;0;0.34000000000000002;0.66000000000000003;0.0;0.0;1;0.966742239850646;39;58;22;1;
2019_03_21 13:12;47;2;0;timed;37;77;1;24;17;99;41;0.17999999999999999;0.13;0.10000000000000001;0.58999999999999997;12;97;0;0;0.59999999999999998;0.40000000000000002;0.0;0.0;0;0.9999544572410741;39;58;22;1;
2019_03_21 13:12;47;2;0;timed;38;29;1;44;51;0;0;0.78000000000000003;0.22;0.0;0.0;74;1;68;82;0.69999999999999996;0.28000000000000003;0.01;0.01;1;1.0166105988264462;39;58;22;1;
2019_03_21 13:12;47;2;0;timed;39;130;0;37;79;23;95;0.94999999999999996;0.029999999999999999;0.01;0.01;94;4;58;49;0.46000000000000002;0.5;0.029999999999999999;0.01;1;0.9666120260462776;39;58;22;1;
2019_03_21 13:12;47;2;0;timed;40;102;0;40;56;53;17;0.28000000000000003;0.26000000000000001;0.14999999999999999;0.31;1;76;29;62;0.68000000000000005;0.23000000000000001;0.050000000000000003;0.039999999999999897;1;0.9999118009950507;39;58;22;1;
2019_03_21 13:12;47;2;0;timed;41;142;1;98;65;64;84;0.88;0.070000000000000007;0.01;0.040000000000000001;5;68;60;16;0.46000000000000002;0.080000000000000002;0.27000000000000002;0.19;1;0.9332548415641213;39;58;22;1;
2019_03_21 13:12;47;2;0;timed;42;69;1;54;34;64;49;0.34000000000000002;0.25;0.20999999999999999;0.20000000000000001;14;98;0;0;0.62;0.38;0.0;0.0;0;0.866618729171023;39;58;22;1;
2019_03_21 13:12;47;2;0;timed;43;125;1;37;41;10;35;0.91000000000000003;0.040000000000000001;0.029999999999999999;0.02;7;13;91;93;0.26000000000000001;0.39000000000000001;0.16;0.19;1;0.800047402956352;39;58;22;1;
2019_03_21 13:12;47;2;0;timed;44;40;1;45;49;0;0;0.68999999999999995;0.31;0.0;0.0;2;92;65;73;0.23999999999999999;0.59999999999999998;0.11;0.050000000000000003;0;0.6499301303520042;39;58;22;1;
2019_03_21 13:12;47;2;0;timed;45;146;1;25;5;64;35;0.94999999999999996;0.02;0.01;0.02;47;97;12;79;0.20999999999999999;0.029999999999999999;0.02;0.73999999999999999;1;0.6331758473274931;39;58;22;1;
2019_03_21 13:12;47;2;0;timed;46;14;1;36;40;0;0;0.54000000000000004;0.46000000000000002;0.0;0.0;99;70;1;11;0.16;0.089999999999999997;0.080000000000000002;0.67000000000000004;0;0.633174564433375;39;58;22;1;
2019_03_21 13:12;47;2;0;timed;47;89;1;26;41;13;56;0.059999999999999998;0.40999999999999998;0.050000000000000003;0.47999999999999998;5;97;0;0;0.37;0.63;0.0;0.0;0;0.6666177028550919;39;58;22;1;
2019_03_21 13:12;47;2;0;timed;48;9;0;61;69;0;0;0.93999999999999995;0.060000000000000102;0.0;0.0;18;93;72;16;0.40999999999999998;0.34999999999999998;0.089999999999999997;0.14999999999999999;1;0.8666078245669269;39;58;22;1;
2019_03_21 13:12;47;2;0;timed;49;134;0;57;48;50;55;0.02;0.62;0.17999999999999999;0.17999999999999999;80;96;15;18;0.23999999999999999;0.35999999999999999;0.33000000000000002;0.070000000000000007;0;0.9332708777469634;39;58;22;1;
2019_03_21 13:12;47;2;0;timed;50;110;0;47;44;23;52;0.13;0.27000000000000002;0.040000000000000001;0.56000000000000005;99;2;30;22;0.28999999999999998;0.5;0.11;0.10000000000000001;0;0.8664686305000942;39;58;22;1;
2019_03_21 13:12;47;2;0;timed;51;63;1;56;78;42;36;0.93000000000000005;0.040000000000000001;0.01;0.0199999999999999;2;72;0;0;0.32000000000000001;0.68000000000000005;0.0;0.0;0;0.8832777572692976;39;58;22;1;
2019_03_21 13:12;47;2;0;timed;52;95;0;93;88;68;85;0.83999999999999997;0.14000000000000001;0.01;0.01;2;82;0;0;0.41999999999999998;0.57999999999999996;0.0;0.0;1;0.6999104218834873;39;58;22;1;
2019_03_21 13:12;47;2;0;timed;53;79;1;52;46;29;22;0.17999999999999999;0.51000000000000001;0.23999999999999999;0.070000000000000104;93;14;0;0;0.45000000000000001;0.55000000000000004;0.0;0.0;0;0.8502066582868792;39;58;22;1;
2019_03_21 13:12;47;2;0;timed;54;36;0;70;17;0;0;0.33000000000000002;0.67000000000000004;0.0;0.0;84;1;12;88;0.22;0.27000000000000002;0.14000000000000001;0.37;0;0.7998854375100564;39;58;22;1;
2019_03_21 13:12;47;2;0;timed;55;81;1;67;38;52;65;0.27000000000000002;0.35999999999999999;0.01;0.35999999999999999;2;77;0;0;0.14000000000000001;0.85999999999999999;0.0;0.0;0;0.9000583396327784;39;58;22;1;
2019_03_21 13:12;47;2;0;timed;56;94;0;84;86;93;39;0.78000000000000003;0.20000000000000001;0.01;0.0099999999999999603;9;83;0;0;0.46999999999999997;0.53000000000000003;0.0;0.0;1;0.8332567338334229;39;58;22;1;
2019_03_21 13:12;47;2;0;timed;57;45;0;97;87;0;0;0.71999999999999997;0.28000000000000003;0.0;0.0;96;11;14;4;0.25;0.029999999999999999;0.14000000000000001;0.57999999999999996;1;0.8499199313396275;39;58;22;1;
2019_03_21 13:12;47;2;0;timed;58;50;1;15;20;0;0;0.82999999999999996;0.17000000000000001;0.0;0.0;97;18;88;87;0.56999999999999995;0.39000000000000001;0.01;0.029999999999999999;1;0.9166432805668592;39;58;22;1;
2019_03_21 13:12;47;2;0;timed;59;74;1;66;47;52;44;0.41999999999999998;0.26000000000000001;0.17999999999999999;0.14000000000000001;17;99;0;0;0.47999999999999998;0.52000000000000002;0.0;0.0;0;1.000089802623279;39;58;22;1;
2019_03_21 13:12;47;2;0;timed;60;112;1;70;44;98;64;0.02;0.75;0.12;0.11;33;2;63;85;0.23999999999999999;0.31;0.080000000000000002;0.37;1;0.9998912746809765;39;58;22;1;
2019_03_21 13:12;47;2;0;timed;61;42;0;70;48;0;0;0.79000000000000004;0.20999999999999999;0.0;0.0;51;8;12;67;0.19;0.26000000000000001;0.28999999999999998;0.26000000000000001;1;0.8500950464549533;39;58;22;1;
2019_03_21 13:12;47;2;0;timed;62;126;0;16;55;51;42;0.68999999999999995;0.23999999999999999;0.01;0.060000000000000102;66;4;1;5;0.46999999999999997;0.38;0.089999999999999997;0.059999999999999998;0;0.9667002250516816;39;58;22;1;
2019_03_21 13:12;47;2;0;timed;63;26;1;76;41;0;0;0.57999999999999996;0.41999999999999998;0.0;0.0;61;79;84;2;0.13;0.029999999999999999;0.67000000000000004;0.17000000000000001;0;0.6831102753767482;39;58;22;1;
2019_03_21 13:12;47;2;0;timed;64;107;0;52;48;13;63;0.68000000000000005;0.19;0.050000000000000003;0.079999999999999905;54;91;33;3;0.19;0.17999999999999999;0.33000000000000002;0.29999999999999999;0;0.8999448034592206;39;58;22;1;
2019_03_21 13:12;47;2;0;timed;65;20;1;44;40;0;0;0.91000000000000003;0.089999999999999997;0.0;0.0;29;5;80;99;0.25;0.40000000000000002;0.26000000000000001;0.089999999999999997;0;0.7334295718114845;39;58;22;1;
2019_03_21 13:12;47;2;0;timed;66;145;0;91;89;90;74;0.57999999999999996;0.29999999999999999;0.11;0.010000000000000101;2;75;84;39;0.32000000000000001;0.27000000000000002;0.39000000000000001;0.0199999999999999;0;0.6999447393145601;39;58;22;1;
2019_03_21 13:12;47;2;0;timed;67;114;0;57;39;79;97;0.77000000000000002;0.02;0.13;0.080000000000000002;92;36;6;1;0.54000000000000004;0.12;0.13;0.20999999999999999;1;0.8499462306795067;39;58;22;1;
2019_03_21 13:12;47;2;0;timed;68;16;0;64;53;0;0;0.65000000000000002;0.34999999999999998;0.0;0.0;29;17;81;46;0.10000000000000001;0.01;0.44;0.45000000000000001;1;0.9332888382714373;39;58;22;1;
2019_03_21 13:12;47;2;0;timed;69;108;1;48;72;39;70;0.14000000000000001;0.66000000000000003;0.02;0.17999999999999999;81;44;98;8;0.59999999999999998;0.029999999999999999;0.050000000000000003;0.32000000000000001;1;0.8667252094246578;39;58;22;1;
2019_03_21 13:12;47;2;0;timed;70;90;1;27;44;50;72;0.68000000000000005;0.28999999999999998;0.02;0.0099999999999999707;6;96;0;0;0.46999999999999997;0.53000000000000003;0.0;0.0;0;0.8001067368322765;39;58;22;1;
2019_03_21 13:12;47;2;0;timed;71;32;1;19;81;0;0;0.93000000000000005;0.070000000000000007;0.0;0.0;1;65;41;68;0.45000000000000001;0.050000000000000003;0.059999999999999998;0.44;1;0.9833608567682859;39;58;22;1;
2019_03_21 13:12;47;2;0;timed;72;62;0;12;45;16;50;0.20999999999999999;0.76000000000000001;0.02;0.01;92;15;0;0;0.20999999999999999;0.79000000000000004;0.0;0.0;1;0.8998296636668783;39;58;22;1;
2019_03_21 13:12;47;2;0;timed;73;34;0;32;48;0;0;0.28000000000000003;0.71999999999999997;0.0;0.0;97;83;7;62;0.040000000000000001;0.54000000000000004;0.35999999999999999;0.059999999999999901;0;0.766828450369303;39;58;22;1;
2019_03_21 13:12;47;2;0;timed;74;93;0;87;81;73;98;0.80000000000000004;0.040000000000000001;0.14999999999999999;0.0099999999999999499;5;71;0;0;0.51000000000000001;0.48999999999999999;0.0;0.0;0;1.1832255755307415;39;58;22;1;
2019_03_21 13:12;47;2;0;timed;75;104;0;55;85;93;3;0.87;0.02;0.089999999999999997;0.02;1;2;90;8;0.35999999999999999;0.070000000000000007;0.40000000000000002;0.17000000000000001;1;0.8499160826554544;39;58;22;1;
2019_03_21 13:12;47;3;0;control;1;26;1;76;41;0;0;0.57999999999999996;0.41999999999999998;0.0;0.0;61;79;84;2;0.13;0.029999999999999999;0.67000000000000004;0.17000000000000001;0;3.2852067176213495;39;58;22;1;
2019_03_21 13:12;47;3;0;control;2;125;0;37;41;10;35;0.91000000000000003;0.040000000000000001;0.029999999999999999;0.02;7;13;91;93;0.26000000000000001;0.39000000000000001;0.16;0.19;0;3.3665938730878224;39;58;22;1;
2019_03_21 13:12;47;3;0;control;3;37;1;14;98;0;0;0.93000000000000005;0.070000000000000007;0.0;0.0;41;2;87;66;0.17999999999999999;0.48999999999999999;0.32000000000000001;0.010000000000000101;1;5.1500800686603725;39;58;22;1;
2019_03_21 13:12;47;3;0;control;4;44;1;79;74;0;0;0.71999999999999997;0.28000000000000003;0.0;0.0;3;67;15;36;0.41999999999999998;0.53000000000000003;0.02;0.029999999999999999;0;3.116558032219018;39;58;22;1;
2019_03_21 13:12;47;3;0;control;5;145;0;91;89;90;74;0.57999999999999996;0.29999999999999999;0.11;0.010000000000000101;2;75;84;39;0.32000000000000001;0.27000000000000002;0.39000000000000001;0.0199999999999999;0;4.4998648149789915;39;58;22;1;
2019_03_21 13:12;47;3;0;control;6;66;1;89;23;27;15;0.070000000000000007;0.54000000000000004;0.17000000000000001;0.22;9;73;0;0;0.72999999999999998;0.27000000000000002;0.0;0.0;0;1.466703592649992;39;58;22;1;
2019_03_21 13:12;47;3;0;control;7;5;1;70;5;0;0;0.98999999999999999;0.01;0.0;0.0;92;87;47;1;0.44;0.02;0.16;0.38;0;2.766579889536388;39;58;22;1;
2019_03_21 13:12;47;3;0;control;8;108;1;48;72;39;70;0.14000000000000001;0.66000000000000003;0.02;0.17999999999999999;81;44;98;8;0.59999999999999998;0.029999999999999999;0.050000000000000003;0.32000000000000001;1;3.916594209847517;39;58;22;1;
2019_03_21 13:12;47;3;0;control;9;8;1;50;36;0;0;0.080000000000000002;0.92000000000000004;0.0;0.0;6;19;84;29;0.54000000000000004;0.070000000000000007;0.17000000000000001;0.22;0;3.900022097859619;39;58;22;1;
2019_03_21 13:12;47;3;0;control;10;65;0;75;64;59;52;0.59999999999999998;0.22;0.14000000000000001;0.040000000000000001;1;99;0;0;0.35999999999999999;0.64000000000000001;0.0;0.0;1;2.3165465503125233;39;58;22;1;
2019_03_21 13:12;47;3;0;control;11;82;0;78;66;30;27;0.28999999999999998;0.58999999999999997;0.080000000000000002;0.040000000000000001;90;6;0;0;0.82999999999999996;0.17000000000000001;0.0;0.0;1;2.2665819742401254;39;58;22;1;
2019_03_21 13:12;47;3;0;control;12;92;1;90;86;65;94;0.16;0.34000000000000002;0.28000000000000003;0.22;79;22;0;0;0.35999999999999999;0.64000000000000001;0.0;0.0;1;1.766534346777462;39;58;22;1;
2019_03_21 13:12;47;3;0;control;13;110;1;47;44;23;52;0.13;0.27000000000000002;0.040000000000000001;0.56000000000000005;99;2;30;22;0.28999999999999998;0.5;0.11;0.10000000000000001;0;4.3165122328814505;39;58;22;1;
2019_03_21 13:12;47;3;0;control;14;115;1;50;28;61;79;0.83999999999999997;0.040000000000000001;0.059999999999999998;0.059999999999999998;1;26;97;55;0.45000000000000001;0.080000000000000002;0.40999999999999998;0.060000000000000102;0;1.9666075359155002;39;58;22;1;
2019_03_21 13:12;47;3;0;control;15;71;1;68;55;36;51;0.20000000000000001;0.75;0.02;0.029999999999999999;38;81;0;0;0.52000000000000002;0.47999999999999998;0.0;0.0;0;4.0498888852898745;39;58;22;1;
2019_03_21 13:12;47;3;0;control;16;31;1;10;59;0;0;0.23999999999999999;0.76000000000000001;0.0;0.0;1;79;53;73;0.23000000000000001;0.58999999999999997;0.050000000000000003;0.13;0;2.9832790722362006;39;58;22;1;
2019_03_21 13:12;47;3;0;control;17;109;0;75;28;16;56;0.19;0.070000000000000007;0.059999999999999998;0.68000000000000005;3;50;98;44;0.5;0.02;0.34999999999999998;0.13;0;2.216587570867887;39;58;22;1;
2019_03_21 13:12;47;3;0;control;18;89;0;26;41;13;56;0.059999999999999998;0.40999999999999998;0.050000000000000003;0.47999999999999998;5;97;0;0;0.37;0.63;0.0;0.0;1;2.1333004484681624;39;58;22;1;
2019_03_21 13:12;47;3;0;control;19;99;0;8;24;15;73;0.56000000000000005;0.35999999999999999;0.070000000000000007;0.0099999999999999499;88;12;0;0;0.52000000000000002;0.47999999999999998;0.0;0.0;0;1.2832339464180222;39;58;22;1;
2019_03_21 13:12;47;3;0;control;20;23;1;54;40;0;0;0.93000000000000005;0.070000000000000007;0.0;0.0;36;23;71;86;0.02;0.41999999999999998;0.19;0.37;0;1.6000752417694457;39;58;22;1;
2019_03_21 13:12;47;3;0;control;21;62;1;12;45;16;50;0.20999999999999999;0.76000000000000001;0.02;0.01;92;15;0;0;0.20999999999999999;0.79000000000000004;0.0;0.0;1;0.49987475741272647;39;58;22;1;
2019_03_21 13:12;47;3;0;control;22;91;1;74;81;86;48;0.93000000000000005;0.02;0.01;0.039999999999999897;7;64;0;0;0.13;0.87;0.0;0.0;0;1.7501046360921464;39;58;22;1;
2019_03_21 13:12;47;3;0;control;23;138;1;8;20;43;51;0.38;0.5;0.02;0.10000000000000001;72;82;70;1;0.39000000000000001;0.050000000000000003;0.070000000000000007;0.48999999999999999;0;2.2499190974581325;39;58;22;1;
2019_03_21 13:12;47;3;0;control;24;113;0;85;65;39;64;0.44;0.34000000000000002;0.13;0.089999999999999997;87;2;4;35;0.67000000000000004;0.17000000000000001;0.11;0.049999999999999899;1;2.349929713410802;39;58;22;1;
2019_03_21 13:12;47;3;0;control;25;127;1;89;26;62;79;0.02;0.28999999999999998;0.53000000000000003;0.16;96;6;60;13;0.53000000000000003;0.25;0.17000000000000001;0.050000000000000003;1;3.9834137761713464;39;58;22;1;
2019_03_21 13:12;47;3;0;control;26;2;0;59;32;0;0;0.080000000000000002;0.92000000000000004;0.0;0.0;33;38;85;1;0.28999999999999998;0.050000000000000003;0.070000000000000007;0.58999999999999997;0;2.333489739569359;39;58;22;1;
2019_03_21 13:12;47;3;0;control;27;94;1;84;86;93;39;0.78000000000000003;0.20000000000000001;0.01;0.0099999999999999603;9;83;0;0;0.46999999999999997;0.53000000000000003;0.0;0.0;0;1.983489146230113;39;58;22;1;
2019_03_21 13:12;47;3;0;control;28;28;0;47;30;0;0;0.97999999999999998;0.02;0.0;0.0;55;48;77;13;0.070000000000000007;0.26000000000000001;0.42999999999999999;0.23999999999999999;0;3.4499756089662696;39;58;22;1;
2019_03_21 13:12;47;3;0;control;29;67;1;44;42;8;89;0.88;0.070000000000000007;0.029999999999999999;0.02;10;63;0;0;0.39000000000000001;0.60999999999999999;0.0;0.0;0;2.0499292964700544;39;58;22;1;
2019_03_21 13:12;47;3;0;control;30;116;1;53;65;43;99;0.56999999999999995;0.37;0.050000000000000003;0.010000000000000101;57;72;11;87;0.67000000000000004;0.13;0.14999999999999999;0.050000000000000003;1;2.5000412129897995;39;58;22;1;
2019_03_21 13:12;47;3;0;control;31;10;0;45;62;0;0;0.059999999999999998;0.93999999999999995;0.0;0.0;17;99;28;67;0.58999999999999997;0.34000000000000002;0.01;0.059999999999999998;1;3.0165823751444805;39;58;22;1;
2019_03_21 13:12;47;3;0;control;32;50;0;15;20;0;0;0.82999999999999996;0.17000000000000001;0.0;0.0;97;18;88;87;0.56999999999999995;0.39000000000000001;0.01;0.029999999999999999;1;3.8666219364076824;39;58;22;1;
2019_03_21 13:12;47;3;0;control;33;90;1;27;44;50;72;0.68000000000000005;0.28999999999999998;0.02;0.0099999999999999707;6;96;0;0;0.46999999999999997;0.53000000000000003;0.0;0.0;1;3.0998993248445004;39;58;22;1;
2019_03_21 13:12;47;3;0;control;34;63;1;56;78;42;36;0.93000000000000005;0.040000000000000001;0.01;0.0199999999999999;2;72;0;0;0.32000000000000001;0.68000000000000005;0.0;0.0;0;2.4665772275302515;39;58;22;1;
2019_03_21 13:12;47;3;0;control;35;137;0;71;22;28;17;0.25;0.46000000000000002;0.050000000000000003;0.23999999999999999;3;98;92;69;0.42999999999999999;0.23999999999999999;0.20000000000000001;0.13;1;1.8332702042271194;39;58;22;1;
2019_03_21 13:12;47;3;0;control;36;45;0;97;87;0;0;0.71999999999999997;0.28000000000000003;0.0;0.0;96;11;14;4;0.25;0.029999999999999999;0.14000000000000001;0.57999999999999996;0;1.8832120089200544;39;58;22;1;
2019_03_21 13:12;47;3;0;control;37;135;0;48;60;41;51;0.14000000000000001;0.40000000000000002;0.089999999999999997;0.37;94;1;85;65;0.64000000000000001;0.29999999999999999;0.01;0.050000000000000003;1;2.999932968756184;39;58;22;1;
2019_03_21 13:12;47;3;0;control;38;141;1;93;28;60;91;0.81999999999999995;0.10000000000000001;0.01;0.070000000000000007;14;85;7;89;0.45000000000000001;0.070000000000000007;0.23999999999999999;0.23999999999999999;0;1.4998539103748953;39;58;22;1;
2019_03_21 13:12;47;3;0;control;39;112;1;70;44;98;64;0.02;0.75;0.12;0.11;33;2;63;85;0.23999999999999999;0.31;0.080000000000000002;0.37;0;3.5667074734060407;39;58;22;1;
2019_03_21 13:12;47;3;0;control;40;124;0;37;65;15;41;0.17999999999999999;0.45000000000000001;0.02;0.34999999999999998;40;7;98;30;0.070000000000000007;0.45000000000000001;0.45000000000000001;0.029999999999999898;1;2.3665601971042634;39;58;22;1;
2019_03_21 13:12;47;3;0;control;41;79;0;52;46;29;22;0.17999999999999999;0.51000000000000001;0.23999999999999999;0.070000000000000104;93;14;0;0;0.45000000000000001;0.55000000000000004;0.0;0.0;1;5.516528333208953;39;58;22;1;
2019_03_21 13:12;47;3;0;control;42;129;0;12;29;81;36;0.17999999999999999;0.79000000000000004;0.01;0.02;5;19;95;92;0.47999999999999998;0.26000000000000001;0.13;0.13;0;4.666597497264775;39;58;22;1;
2019_03_21 13:12;47;3;0;control;43;19;0;22;53;0;0;0.13;0.87;0.0;0.0;4;93;96;65;0.46999999999999997;0.059999999999999998;0.26000000000000001;0.20999999999999999;0;1.866547528519277;39;58;22;1;
2019_03_21 13:12;47;3;0;control;44;72;1;63;82;51;61;0.01;0.96999999999999997;0.01;0.01;92;12;0;0;0.89000000000000001;0.11;0.0;0.0;0;1.7999492615176678;39;58;22;1;
2019_03_21 13:12;47;3;0;control;45;96;1;51;54;39;7;0.17000000000000001;0.26000000000000001;0.10000000000000001;0.46999999999999997;24;96;0;0;0.28000000000000003;0.71999999999999997;0.0;0.0;1;1.7499599897237204;39;58;22;1;
2019_03_21 13:12;47;3;0;control;46;29;0;44;51;0;0;0.78000000000000003;0.22;0.0;0.0;74;1;68;82;0.69999999999999996;0.28000000000000003;0.01;0.01;0;1.3334461211520647;39;58;22;1;
2019_03_21 13:12;47;3;0;control;47;106;1;85;69;22;61;0.10000000000000001;0.58999999999999997;0.17999999999999999;0.13;20;79;91;84;0.55000000000000004;0.14999999999999999;0.26000000000000001;0.039999999999999897;0;4.233220941073796;39;58;22;1;
2019_03_21 13:12;47;3;0;control;48;142;1;98;65;64;84;0.88;0.070000000000000007;0.01;0.040000000000000001;5;68;60;16;0.46000000000000002;0.080000000000000002;0.27000000000000002;0.19;0;2.349922657490424;39;58;22;1;
2019_03_21 13:12;47;3;0;control;49;59;1;56;47;83;90;0.31;0.12;0.54000000000000004;0.029999999999999898;10;98;0;0;0.46999999999999997;0.53000000000000003;0.0;0.0;1;1.7666052267049963;39;58;22;1;
2019_03_21 13:12;47;3;0;control;50;143;1;88;44;56;73;0.95999999999999996;0.02;0.01;0.01;20;3;87;32;0.19;0.40000000000000002;0.28000000000000003;0.13;0;3.083406752323299;39;58;22;1;
2019_03_21 13:12;47;3;0;control;51;54;0;44;79;78;52;0.79000000000000004;0.19;0.01;0.0099999999999999603;96;1;0;0;0.28000000000000003;0.71999999999999997;0.0;0.0;0;4.533170042229813;39;58;22;1;
2019_03_21 13:12;47;3;0;control;52;14;1;36;40;0;0;0.54000000000000004;0.46000000000000002;0.0;0.0;99;70;1;11;0.16;0.089999999999999997;0.080000000000000002;0.67000000000000004;0;2.3334361787183298;39;58;22;1;
2019_03_21 13:12;47;3;0;control;53;147;1;39;43;76;28;0.14000000000000001;0.10000000000000001;0.10000000000000001;0.66000000000000003;6;31;68;85;0.27000000000000002;0.20000000000000001;0.22;0.31;1;3.3999084013239553;39;58;22;1;
2019_03_21 13:12;47;3;0;control;54;60;1;64;59;57;96;0.83999999999999997;0.13;0.02;0.01;83;6;0;0;0.54000000000000004;0.46000000000000002;0.0;0.0;0;1.4832603099025619;39;58;22;1;
2019_03_21 13:12;47;3;0;control;55;100;1;27;14;59;52;0.02;0.95999999999999996;0.01;0.01;17;98;0;0;0.48999999999999999;0.51000000000000001;0.0;0.0;1;3.61642541298761;39;58;22;1;
2019_03_21 13:12;47;3;0;control;56;150;1;25;21;78;38;0.84999999999999998;0.059999999999999998;0.050000000000000003;0.040000000000000001;31;43;64;95;0.059999999999999998;0.45000000000000001;0.13;0.35999999999999999;0;2.4999142064220905;39;58;22;1;
2019_03_21 13:12;47;3;0;control;57;27;1;44;26;0;0;0.35999999999999999;0.64000000000000001;0.0;0.0;63;10;3;5;0.58999999999999997;0.19;0.14999999999999999;0.070000000000000007;0;3.616573908040209;39;58;22;1;
2019_03_21 13:12;47;3;0;control;58;88;0;77;13;12;7;0.12;0.19;0.66000000000000003;0.029999999999999898;94;2;0;0;0.40999999999999998;0.58999999999999997;0.0;0.0;0;4.966485019479023;39;58;22;1;
2019_03_21 13:12;47;3;0;control;59;146;0;25;5;64;35;0.94999999999999996;0.02;0.01;0.02;47;97;12;79;0.20999999999999999;0.029999999999999999;0.02;0.73999999999999999;1;4.933253237946246;39;58;22;1;
2019_03_21 13:12;47;3;0;control;60;86;0;56;30;57;88;0.20000000000000001;0.35999999999999999;0.080000000000000002;0.35999999999999999;98;2;0;0;0.77000000000000002;0.23000000000000001;0.0;0.0;1;3.3665387086189185;39;58;22;1;
2019_03_21 13:12;47;3;0;control;61;93;1;87;81;73;98;0.80000000000000004;0.040000000000000001;0.14999999999999999;0.0099999999999999499;5;71;0;0;0.51000000000000001;0.48999999999999999;0.0;0.0;0;1.7000194679262677;39;58;22;1;
2019_03_21 13:12;47;3;0;control;62;46;1;5;19;0;0;0.32000000000000001;0.68000000000000005;0.0;0.0;88;38;97;66;0.60999999999999999;0.20000000000000001;0.040000000000000001;0.14999999999999999;1;4.499878926820202;39;58;22;1;
2019_03_21 13:12;47;3;0;control;63;7;0;49;29;0;0;0.95999999999999996;0.040000000000000001;0.0;0.0;23;99;64;25;0.68999999999999995;0.12;0.059999999999999998;0.13;0;3.616802904729866;39;58;22;1;
2019_03_21 13:12;47;3;0;control;64;119;0;60;58;11;18;0.25;0.72999999999999998;0.01;0.01;96;23;42;85;0.44;0.48999999999999999;0.059999999999999998;0.010000000000000101;1;1.8665622818075462;39;58;22;1;
2019_03_21 13:12;47;3;0;control;65;47;1;2;40;0;0;0.45000000000000001;0.55000000000000004;0.0;0.0;93;89;11;56;0.58999999999999997;0.070000000000000007;0.28000000000000003;0.059999999999999998;0;1.4501321221100625;39;58;22;1;
2019_03_21 13:12;47;3;0;control;66;102;0;40;56;53;17;0.28000000000000003;0.26000000000000001;0.14999999999999999;0.31;1;76;29;62;0.68000000000000005;0.23000000000000001;0.050000000000000003;0.039999999999999897;1;2.0167517172349108;39;58;22;1;
2019_03_21 13:12;47;3;0;control;67;30;0;33;30;0;0;0.71999999999999997;0.28000000000000003;0.0;0.0;9;88;1;14;0.55000000000000004;0.39000000000000001;0.01;0.049999999999999899;0;1.1665915638773185;39;58;22;1;
2019_03_21 13:12;47;3;0;control;68;22;0;32;55;0;0;0.39000000000000001;0.60999999999999999;0.0;0.0;93;72;59;22;0.20000000000000001;0.11;0.14000000000000001;0.55000000000000004;0;2.0166882139510562;39;58;22;1;
2019_03_21 13:12;47;3;0;control;69;139;0;44;31;16;8;0.79000000000000004;0.070000000000000007;0.13;0.0099999999999999499;92;58;2;88;0.55000000000000004;0.070000000000000007;0.34000000000000002;0.039999999999999897;1;1.849812488914722;39;58;22;1;
2019_03_21 13:12;47;3;0;control;70;52;1;71;51;10;54;0.22;0.12;0.19;0.46999999999999997;91;1;0;0;0.29999999999999999;0.69999999999999996;0.0;0.0;0;2.8666010893698513;39;58;22;1;
2019_03_21 13:12;47;3;0;control;71;57;0;52;35;23;47;0.22;0.68000000000000005;0.040000000000000001;0.059999999999999998;71;7;0;0;0.28999999999999998;0.70999999999999996;0.0;0.0;0;3.1998945460622963;39;58;22;1;
2019_03_21 13:12;47;3;0;control;72;9;0;61;69;0;0;0.93999999999999995;0.060000000000000102;0.0;0.0;18;93;72;16;0.40999999999999998;0.34999999999999998;0.089999999999999997;0.14999999999999999;0;3.566626651045226;39;58;22;1;
2019_03_21 13:12;47;3;0;control;73;149;1;14;89;73;53;0.93999999999999995;0.01;0.01;0.040000000000000001;97;45;6;13;0.34000000000000002;0.01;0.40999999999999998;0.23999999999999999;1;2.9333776787239003;39;58;22;1;
2019_03_21 13:12;47;3;0;control;74;69;0;54;34;64;49;0.34000000000000002;0.25;0.20999999999999999;0.20000000000000001;14;98;0;0;0.62;0.38;0.0;0.0;0;7.766871106615326;39;58;22;1;
2019_03_21 13:12;47;3;0;control;75;49;1;21;30;0;0;0.53000000000000003;0.46999999999999997;0.0;0.0;93;99;89;25;0.44;0.02;0.11;0.42999999999999999;1;3.8832113674729953;39;58;22;1;
2019_03_21 13:12;47;4;0;timed;1;96;1;51;54;39;7;0.17000000000000001;0.26000000000000001;0.10000000000000001;0.46999999999999997;24;96;0;0;0.28000000000000003;0.71999999999999997;0.0;0.0;1;1.3408234066687328;39;58;22;1;
2019_03_21 13:12;47;4;0;timed;2;19;1;22;53;0;0;0.13;0.87;0.0;0.0;4;93;96;65;0.46999999999999997;0.059999999999999998;0.26000000000000001;0.20999999999999999;0;0.8830510056454841;39;58;22;1;
2019_03_21 13:12;47;4;0;timed;3;53;0;26;70;50;80;0.29999999999999999;0.59999999999999998;0.040000000000000001;0.059999999999999998;89;1;0;0;0.40999999999999998;0.58999999999999997;0.0;0.0;1;0.9333901869467809;39;58;22;1;
2019_03_21 13:12;47;4;0;timed;4;140;1;36;32;26;27;0.39000000000000001;0.14999999999999999;0.19;0.27000000000000002;44;3;99;25;0.29999999999999999;0.34000000000000002;0.34000000000000002;0.0199999999999999;1;0.899938709709204;39;58;22;1;
2019_03_21 13:12;47;4;0;timed;5;44;1;79;74;0;0;0.71999999999999997;0.28000000000000003;0.0;0.0;3;67;15;36;0.41999999999999998;0.53000000000000003;0.02;0.029999999999999999;0;0.7999171891519836;39;58;22;1;
2019_03_21 13:12;47;4;0;timed;6;85;0;31;22;82;50;0.11;0.69999999999999996;0.01;0.17999999999999999;3;99;0;0;0.62;0.38;0.0;0.0;0;0.7332429106440941;39;58;22;1;
2019_03_21 13:12;47;4;0;timed;7;52;1;71;51;10;54;0.22;0.12;0.19;0.46999999999999997;91;1;0;0;0.29999999999999999;0.69999999999999996;0.0;0.0;0;0.7835057597158084;39;58;22;1;
2019_03_21 13:12;47;4;0;timed;8;103;1;38;49;89;50;0.89000000000000001;0.070000000000000007;0.01;0.029999999999999999;6;64;99;27;0.70999999999999996;0.17999999999999999;0.059999999999999998;0.050000000000000003;1;0.7832985722343437;39;58;22;1;
2019_03_21 13:12;47;4;0;timed;9;116;0;53;65;43;99;0.56999999999999995;0.37;0.050000000000000003;0.010000000000000101;57;72;11;87;0.67000000000000004;0.13;0.14999999999999999;0.050000000000000003;0;0.7999335460590373;39;58;22;1;
2019_03_21 13:12;47;4;0;timed;10;37;0;14;98;0;0;0.93000000000000005;0.070000000000000007;0.0;0.0;41;2;87;66;0.17999999999999999;0.48999999999999999;0.32000000000000001;0.010000000000000101;1;0.8834156684411028;39;58;22;1;
2019_03_21 13:12;47;4;0;timed;11;113;1;85;65;39;64;0.44;0.34000000000000002;0.13;0.089999999999999997;87;2;4;35;0.67000000000000004;0.17000000000000001;0.11;0.049999999999999899;1;0.7165530930751629;39;58;22;1;
2019_03_21 13:12;47;4;0;timed;12;149;1;14;89;73;53;0.93999999999999995;0.01;0.01;0.040000000000000001;97;45;6;13;0.34000000000000002;0.01;0.40999999999999998;0.23999999999999999;0;0.8999544251687439;39;58;22;1;
2019_03_21 13:12;47;4;0;timed;13;91;1;74;81;86;48;0.93000000000000005;0.02;0.01;0.039999999999999897;7;64;0;0;0.13;0.87;0.0;0.0;1;0.8500895941529052;39;58;22;1;
2019_03_21 13:12;47;4;0;timed;14;150;1;25;21;78;38;0.84999999999999998;0.059999999999999998;0.050000000000000003;0.040000000000000001;31;43;64;95;0.059999999999999998;0.45000000000000001;0.13;0.35999999999999999;1;1.0165371531093115;39;58;22;1;
2019_03_21 13:12;47;4;0;timed;15;78;1;74;36;34;3;0.14999999999999999;0.64000000000000001;0.13;0.080000000000000002;1;83;0;0;0.41999999999999998;0.57999999999999996;0.0;0.0;0;1.0834089973891423;39;58;22;1;
2019_03_21 13:12;47;4;0;timed;16;57;0;52;35;23;47;0.22;0.68000000000000005;0.040000000000000001;0.059999999999999998;71;7;0;0;0.28999999999999998;0.70999999999999996;0.0;0.0;1;0.9333096853088136;39;58;22;1;
2019_03_21 13:12;47;4;0;timed;17;127;0;89;26;62;79;0.02;0.28999999999999998;0.53000000000000003;0.16;96;6;60;13;0.53000000000000003;0.25;0.17000000000000001;0.050000000000000003;1;0.9167648348325201;39;58;22;1;
2019_03_21 13:12;47;4;0;timed;18;18;0;68;50;0;0;0.029999999999999999;0.96999999999999997;0.0;0.0;34;64;15;89;0.65000000000000002;0.029999999999999999;0.050000000000000003;0.27000000000000002;0;1.1999009605351603;39;58;22;1;
2019_03_21 13:12;47;4;0;timed;19;111;0;51;36;48;27;0.93000000000000005;0.01;0.01;0.049999999999999899;31;78;30;53;0.55000000000000004;0.16;0.029999999999999999;0.26000000000000001;1;1.0332779657396713;39;58;22;1;
2019_03_21 13:12;47;4;0;timed;20;131;1;83;41;81;88;0.23999999999999999;0.58999999999999997;0.10000000000000001;0.070000000000000007;82;97;4;17;0.26000000000000001;0.46999999999999997;0.11;0.16;1;0.9000849596959597;39;58;22;1;
2019_03_21 13:12;47;4;0;timed;21;136;1;29;67;14;75;0.46000000000000002;0.29999999999999999;0.20999999999999999;0.0300000000000001;70;86;1;85;0.31;0.39000000000000001;0.27000000000000002;0.029999999999999898;1;1.283291355952315;39;58;22;1;
2019_03_21 13:12;47;4;0;timed;22;24;1;35;27;0;0;0.070000000000000007;0.93000000000000005;0.0;0.0;62;3;81;95;0.35999999999999999;0.55000000000000004;0.01;0.080000000000000002;1;0.9499222084773464;39;58;22;1;
2019_03_21 13:12;47;4;0;timed;23;30;1;33;30;0;0;0.71999999999999997;0.28000000000000003;0.0;0.0;9;88;1;14;0.55000000000000004;0.39000000000000001;0.01;0.049999999999999899;1;0.9333051951775815;39;58;22;1;
2019_03_21 13:12;47;4;0;timed;24;65;0;75;64;59;52;0.59999999999999998;0.22;0.14000000000000001;0.040000000000000001;1;99;0;0;0.35999999999999999;0.64000000000000001;0.0;0.0;1;0.8501383441484904;39;58;22;1;
2019_03_21 13:12;47;4;0;timed;25;23;0;54;40;0;0;0.93000000000000005;0.070000000000000007;0.0;0.0;36;23;71;86;0.02;0.41999999999999998;0.19;0.37;1;0.8499019708146989;39;58;22;1;
2019_03_21 13:12;47;4;0;timed;26;7;0;49;29;0;0;0.95999999999999996;0.040000000000000001;0.0;0.0;23;99;64;25;0.68999999999999995;0.12;0.059999999999999998;0.13;0;0.8333853440194616;39;58;22;1;
2019_03_21 13:12;47;4;0;timed;27;105;0;49;74;63;58;0.84999999999999998;0.080000000000000002;0.02;0.050000000000000003;97;5;86;8;0.25;0.52000000000000002;0.070000000000000007;0.16;1;0.7999662598713257;39;58;22;1;
2019_03_21 13:12;47;4;0;timed;28;1;0;22;51;0;0;0.26000000000000001;0.73999999999999999;0.0;0.0;14;11;92;31;0.29999999999999999;0.40999999999999998;0.14999999999999999;0.14000000000000001;0;0.7333513152398154;39;58;22;1;
2019_03_21 13:12;47;4;0;timed;29;38;0;40;70;0;0;0.53000000000000003;0.46999999999999997;0.0;0.0;97;90;6;96;0.56999999999999995;0.070000000000000007;0.27000000000000002;0.089999999999999997;1;0.7667027266961668;39;58;22;1;
2019_03_21 13:12;47;4;0;timed;30;129;1;12;29;81;36;0.17999999999999999;0.79000000000000004;0.01;0.02;5;19;95;92;0.47999999999999998;0.26000000000000001;0.13;0.13;1;0.8333276137614121;39;58;22;1;
2019_03_21 13:12;47;4;0;timed;31;35;1;33;37;0;0;0.88;0.12;0.0;0.0;63;4;79;98;0.16;0.46000000000000002;0.17000000000000001;0.20999999999999999;0;0.7999794095412653;39;58;22;1;
2019_03_21 13:12;47;4;0;timed;32;143;1;88;44;56;73;0.95999999999999996;0.02;0.01;0.01;20;3;87;32;0.19;0.40000000000000002;0.28000000000000003;0.13;1;0.9332792165619139;39;58;22;1;
2019_03_21 13:12;47;4;0;timed;33;135;0;48;60;41;51;0.14000000000000001;0.40000000000000002;0.089999999999999997;0.37;94;1;85;65;0.64000000000000001;0.29999999999999999;0.01;0.050000000000000003;1;0.8666177669997523;39;58;22;1;
2019_03_21 13:12;47;4;0;timed;34;4;1;40;43;0;0;0.58999999999999997;0.40999999999999998;0.0;0.0;2;33;88;81;0.69999999999999996;0.14000000000000001;0.13;0.029999999999999999;0;0.9999361759923886;39;58;22;1;
2019_03_21 13:12;47;4;0;timed;35;6;1;9;51;0;0;0.14999999999999999;0.84999999999999998;0.0;0.0;6;40;50;73;0.42999999999999999;0.26000000000000001;0.059999999999999998;0.25;1;0.9499501114355553;39;58;22;1;
2019_03_21 13:12;47;4;0;timed;36;139;0;44;31;16;8;0.79000000000000004;0.070000000000000007;0.13;0.0099999999999999499;92;58;2;88;0.55000000000000004;0.070000000000000007;0.34000000000000002;0.039999999999999897;0;0.9334036573400226;39;58;22;1;
2019_03_21 13:12;47;4;0;timed;37;43;0;60;83;0;0;0.23000000000000001;0.77000000000000002;0.0;0.0;72;5;70;12;0.29999999999999999;0.40999999999999998;0.12;0.17000000000000001;1;1.0000872368341334;39;58;22;1;
2019_03_21 13:12;47;4;0;timed;38;82;0;78;66;30;27;0.28999999999999998;0.58999999999999997;0.080000000000000002;0.040000000000000001;90;6;0;0;0.82999999999999996;0.17000000000000001;0.0;0.0;0;0.899926522210535;39;58;22;1;
2019_03_21 13:12;47;4;0;timed;39;67;0;44;42;8;89;0.88;0.070000000000000007;0.029999999999999999;0.02;10;63;0;0;0.39000000000000001;0.60999999999999999;0.0;0.0;1;0.9331999978189742;39;58;22;1;
2019_03_21 13:12;47;4;0;timed;40;12;1;53;68;0;0;0.31;0.68999999999999995;0.0;0.0;69;54;97;29;0.25;0.20999999999999999;0.20000000000000001;0.34000000000000002;1;0.9665546165124397;39;58;22;1;
2019_03_21 13:12;47;4;0;timed;41;51;0;52;23;43;16;0.60999999999999999;0.20999999999999999;0.01;0.17000000000000001;92;7;0;0;0.14999999999999999;0.84999999999999998;0.0;0.0;1;1.0166080330373006;39;58;22;1;
2019_03_21 13:12;47;4;0;timed;42;56;1;28;84;37;41;0.68000000000000005;0.28000000000000003;0.02;0.0199999999999999;6;95;0;0;0.72999999999999998;0.27000000000000002;0.0;0.0;1;0.9332859517585348;39;58;22;1;
2019_03_21 13:12;47;4;0;timed;43;33;1;27;70;0;0;0.88;0.12;0.0;0.0;93;3;77;16;0.080000000000000002;0.40000000000000002;0.5;0.02;0;1.066532518652366;39;58;22;1;
2019_03_21 13:12;47;4;0;timed;44;98;0;27;10;31;79;0.23000000000000001;0.67000000000000004;0.070000000000000007;0.029999999999999999;25;99;0;0;0.38;0.62;0.0;0.0;0;0.9333982050379745;39;58;22;1;
2019_03_21 13:12;47;4;0;timed;45;54;0;44;79;78;52;0.79000000000000004;0.19;0.01;0.0099999999999999603;96;1;0;0;0.28000000000000003;0.71999999999999997;0.0;0.0;0;0.9169662492877251;39;58;22;1;
2019_03_21 13:12;47;4;0;timed;46;55;0;74;55;47;48;0.60999999999999999;0.31;0.070000000000000007;0.01;97;6;0;0;0.42999999999999999;0.56999999999999995;0.0;0.0;1;1.083573207900372;39;58;22;1;
2019_03_21 13:12;47;4;0;timed;47;10;1;45;62;0;0;0.059999999999999998;0.93999999999999995;0.0;0.0;17;99;28;67;0.58999999999999997;0.34000000000000002;0.01;0.059999999999999998;0;1.0999278692497683;39;58;22;1;
2019_03_21 13:12;47;4;0;timed;48;13;1;52;56;0;0;0.46999999999999997;0.53000000000000003;0.0;0.0;94;71;27;2;0.089999999999999997;0.31;0.57999999999999996;0.020000000000000101;0;1.0999365287884757;39;58;22;1;
2019_03_21 13:12;47;4;0;timed;49;83;0;17;12;7;41;0.65000000000000002;0.19;0.089999999999999997;0.070000000000000007;6;84;0;0;0.72999999999999998;0.27000000000000002;0.0;0.0;0;1.2999272919473697;39;58;22;1;
2019_03_21 13:12;47;4;0;timed;50;28;1;47;30;0;0;0.97999999999999998;0.02;0.0;0.0;55;48;77;13;0.070000000000000007;0.26000000000000001;0.42999999999999999;0.23999999999999999;0;0.9000631504877674;39;58;22;1;
2019_03_21 13:12;47;4;0;timed;51;49;0;21;30;0;0;0.53000000000000003;0.46999999999999997;0.0;0.0;93;99;89;25;0.44;0.02;0.11;0.42999999999999999;0;1.0165705083691137;39;58;22;1;
2019_03_21 13:12;47;4;0;timed;52;147;1;39;43;76;28;0.14000000000000001;0.10000000000000001;0.10000000000000001;0.66000000000000003;6;31;68;85;0.27000000000000002;0.20000000000000001;0.22;0.31;0;0.8331977206812553;39;58;22;1;
2019_03_21 13:12;47;4;0;timed;53;27;1;44;26;0;0;0.35999999999999999;0.64000000000000001;0.0;0.0;63;10;3;5;0.58999999999999997;0.19;0.14999999999999999;0.070000000000000007;1;0.9165874746508962;39;58;22;1;
2019_03_21 13:12;47;4;0;timed;54;133;0;59;88;60;36;0.67000000000000004;0.070000000000000007;0.12;0.14000000000000001;7;91;66;61;0.25;0.68999999999999995;0.01;0.0500000000000001;1;0.9332404089996089;39;58;22;1;
2019_03_21 13:12;47;4;0;timed;55;137;1;71;22;28;17;0.25;0.46000000000000002;0.050000000000000003;0.23999999999999999;3;98;92;69;0.42999999999999999;0.23999999999999999;0.20000000000000001;0.13;1;0.8834487029771481;39;58;22;1;
2019_03_21 13:12;47;4;0;timed;56;61;0;43;18;39;70;0.75;0.089999999999999997;0.089999999999999997;0.070000000000000007;16;66;0;0;0.64000000000000001;0.35999999999999999;0.0;0.0;1;1.033234668046589;39;58;22;1;
2019_03_21 13:12;47;4;0;timed;57;92;0;90;86;65;94;0.16;0.34000000000000002;0.28000000000000003;0.22;79;22;0;0;0.35999999999999999;0.64000000000000001;0.0;0.0;0;1.000033996707316;39;58;22;1;
2019_03_21 13:12;47;4;0;timed;58;122;0;35;58;25;31;0.81999999999999995;0.070000000000000007;0.080000000000000002;0.029999999999999999;18;64;68;89;0.63;0.17000000000000001;0.11;0.089999999999999997;1;0.9499603745925924;39;58;22;1;
2019_03_21 13:12;47;4;0;timed;59;106;1;85;69;22;61;0.10000000000000001;0.58999999999999997;0.17999999999999999;0.13;20;79;91;84;0.55000000000000004;0.14999999999999999;0.26000000000000001;0.039999999999999897;1;0.9832569423037967;39;58;22;1;
2019_03_21 13:12;47;4;0;timed;60;75;0;67;80;36;81;0.81999999999999995;0.080000000000000002;0.059999999999999998;0.040000000000000001;3;97;0;0;0.32000000000000001;0.68000000000000005;0.0;0.0;0;1.0665524035189264;39;58;22;1;
2019_03_21 13:12;47;4;0;timed;61;121;0;42;51;47;70;0.41999999999999998;0.17000000000000001;0.23999999999999999;0.17000000000000001;21;76;48;9;0.14999999999999999;0.34000000000000002;0.40999999999999998;0.10000000000000001;1;1.0832726898356668;39;58;22;1;
2019_03_21 13:12;47;4;0;timed;62;101;1;30;96;61;45;0.65000000000000002;0.14000000000000001;0.11;0.10000000000000001;3;98;63;89;0.75;0.19;0.040000000000000001;0.02;0;1.0999451883271831;39;58;22;1;
2019_03_21 13:12;47;4;0;timed;63;99;0;8;24;15;73;0.56000000000000005;0.35999999999999999;0.070000000000000007;0.0099999999999999499;88;12;0;0;0.52000000000000002;0.47999999999999998;0.0;0.0;0;1.2999423659593958;39;58;22;1;
2019_03_21 13:12;47;4;0;timed;64;124;0;37;65;15;41;0.17999999999999999;0.45000000000000001;0.02;0.34999999999999998;40;7;98;30;0.070000000000000007;0.45000000000000001;0.45000000000000001;0.029999999999999898;1;0.966641211899514;39;58;22;1;
2019_03_21 13:12;47;4;0;timed;65;115;0;50;28;61;79;0.83999999999999997;0.040000000000000001;0.059999999999999998;0.059999999999999998;1;26;97;55;0.45000000000000001;0.080000000000000002;0.40999999999999998;0.060000000000000102;0;0.9832563008567377;39;58;22;1;
2019_03_21 13:12;47;4;0;timed;66;132;0;27;70;21;19;0.64000000000000001;0.23000000000000001;0.029999999999999999;0.10000000000000001;11;85;55;6;0.39000000000000001;0.46999999999999997;0.029999999999999999;0.11;1;1.066486334446381;39;58;22;1;
2019_03_21 13:12;47;4;0;timed;67;109;0;75;28;16;56;0.19;0.070000000000000007;0.059999999999999998;0.68000000000000005;3;50;98;44;0.5;0.02;0.34999999999999998;0.13;1;0.9999249506645356;39;58;22;1;
2019_03_21 13:12;47;4;0;timed;68;25;0;50;53;0;0;0.82999999999999996;0.17000000000000001;0.0;0.0;83;16;97;4;0.45000000000000001;0.29999999999999999;0.11;0.14000000000000001;1;1.1667118352484067;39;58;22;1;
2019_03_21 13:12;47;4;0;timed;69;21;0;64;28;0;0;0.080000000000000002;0.92000000000000004;0.0;0.0;50;1;88;13;0.57999999999999996;0.13;0.02;0.27000000000000002;1;1.233232166401649;39;58;22;1;
2019_03_21 13:12;47;4;0;timed;70;5;0;70;5;0;0;0.98999999999999999;0.01;0.0;0.0;92;87;47;1;0.44;0.02;0.16;0.38;0;1.4332854706731268;39;58;22;1;
2019_03_21 13:12;47;4;0;timed;71;141;0;93;28;60;91;0.81999999999999995;0.10000000000000001;0.01;0.070000000000000007;14;85;7;89;0.45000000000000001;0.070000000000000007;0.23999999999999999;0.23999999999999999;0;1.5000954152874328;39;58;22;1;
2019_03_21 13:12;47;4;0;timed;72;46;0;5;19;0;0;0.32000000000000001;0.68000000000000005;0.0;0.0;88;38;97;66;0.60999999999999999;0.20000000000000001;0.040000000000000001;0.14999999999999999;1;1.349974293998912;39;58;22;1;
2019_03_21 13:12;47;4;0;timed;73;68;1;84;27;55;62;0.01;0.050000000000000003;0.40999999999999998;0.53000000000000003;9;82;0;0;0.37;0.63;0.0;0.0;0;1.2832721125328135;39;58;22;1;
2019_03_21 13:12;47;4;0;timed;74;15;0;77;81;0;0;0.28000000000000003;0.71999999999999997;0.0;0.0;98;14;87;18;0.55000000000000004;0.23000000000000001;0.16;0.059999999999999901;0;1.1998839621815023;39;58;22;1;
2019_03_21 13:12;47;4;0;timed;75;76;0;39;62;9;28;0.01;0.51000000000000001;0.26000000000000001;0.22;77;7;0;0;0.57999999999999996;0.41999999999999998;0.0;0.0;1;1.1499520999218475;39;58;22;1;
