date;id;block;order;cond;trial;gameid;leftright;oa1;oa2;oa3;oa4;pa1;pa2;pa3;pa4;ob1;ob2;ob3;ob4;pb1;pb2;pb3;pb4;choice;rt;paytrial;payout;alter;geschlecht;comment
2019_03_18 11:43;41;0;0;practice;1;64;1;44;60;96;45;0.53000000000000003;0.10000000000000001;0.029999999999999999;0.34000000000000002;88;20;43;31;0.47999999999999998;0.38;0.050000000000000003;0.089999999999999997;1;9.704283687324278;43;61;28;1;
2019_03_18 11:43;41;0;0;practice;2;68;1;39;58;40;8;0.48999999999999999;0.44;0.02;0.050000000000000003;92;83;51;2;0.57999999999999996;0.13;0.02;0.27000000000000002;0;15.616335061809878;43;61;28;1;
2019_03_18 11:43;41;0;0;practice;3;38;0;51;89;10;60;0.57999999999999996;0.029999999999999999;0.080000000000000002;0.31;8;84;0;0;0.33000000000000002;0.67000000000000004;0.0;0.0;0;13.933135619094173;43;61;28;1;
2019_03_18 11:43;41;0;0;practice;4;1;0;67;36;0;0;0.14999999999999999;0.84999999999999998;0.0;0.0;1;4;81;77;0.25;0.54000000000000004;0.14000000000000001;0.070000000000000007;0;12.449626166786402;43;61;28;1;
2019_03_18 11:43;41;0;0;practice;5;51;1;38;13;51;84;0.91000000000000003;0.070000000000000007;0.01;0.0099999999999999603;4;89;35;16;0.80000000000000004;0.089999999999999997;0.059999999999999998;0.050000000000000003;0;4.916519348498696;43;61;28;1;
2019_03_18 11:43;41;0;0;practice;6;60;1;39;93;27;78;0.85999999999999999;0.02;0.11;0.01;22;5;62;95;0.059999999999999998;0.56999999999999995;0.14000000000000001;0.23000000000000001;1;32.499371385465565;43;61;28;1;
2019_03_18 11:43;41;0;0;practice;7;54;1;69;80;22;55;0.27000000000000002;0.31;0.059999999999999998;0.35999999999999999;52;2;49;90;0.059999999999999998;0.33000000000000002;0.20000000000000001;0.40999999999999998;0;14.333040300607536;43;61;28;1;
2019_03_18 11:43;41;0;0;practice;8;40;0;29;65;30;41;0.70999999999999996;0.01;0.14999999999999999;0.13;2;59;0;0;0.32000000000000001;0.68000000000000005;0.0;0.0;0;10.566383619074259;43;61;28;1;
2019_03_18 11:43;41;0;0;practice;9;49;1;14;31;42;22;0.77000000000000002;0.089999999999999997;0.02;0.12;87;28;0;0;0.68000000000000005;0.32000000000000001;0.0;0.0;1;6.699962283128116;43;61;28;1;
2019_03_18 11:43;41;0;0;practice;10;45;0;37;40;75;23;0.54000000000000004;0.38;0.059999999999999998;0.02;1;90;0;0;0.28000000000000003;0.71999999999999997;0.0;0.0;1;40.01592896399234;43;61;28;1;
2019_03_18 11:43;41;0;0;practice;11;61;1;51;48;56;88;0.91000000000000003;0.02;0.01;0.059999999999999998;78;21;14;82;0.55000000000000004;0.29999999999999999;0.070000000000000007;0.080000000000000002;0;21.74972674511082;43;61;28;1;
2019_03_18 11:43;41;0;0;practice;12;28;0;37;83;75;8;0.83999999999999997;0.070000000000000007;0.01;0.080000000000000002;94;2;0;0;0.19;0.81000000000000005;0.0;0.0;0;8.89980365417432;43;61;28;1;
2019_03_18 11:43;41;0;0;practice;13;25;0;7;18;0;0;0.20999999999999999;0.79000000000000004;0.0;0.0;92;45;33;13;0.41999999999999998;0.17999999999999999;0.22;0.17999999999999999;1;5.449819241250225;43;61;28;1;
2019_03_18 11:43;41;0;0;practice;14;3;0;20;70;0;0;0.13;0.87;0.0;0.0;95;19;80;73;0.31;0.57999999999999996;0.029999999999999999;0.080000000000000002;0;12.166344555171236;43;61;28;1;
2019_03_18 11:43;41;0;0;practice;15;7;1;13;31;0;0;0.51000000000000001;0.48999999999999999;0.0;0.0;8;79;42;18;0.85999999999999999;0.089999999999999997;0.02;0.029999999999999999;0;29.06627681874852;43;61;28;1;
2019_03_18 11:43;41;0;0;practice;16;11;0;10;44;0;0;0.48999999999999999;0.51000000000000001;0.0;0.0;88;12;54;50;0.17000000000000001;0.75;0.02;0.059999999999999998;1;24.399651632087625;43;61;28;1;
2019_03_18 11:43;41;0;0;practice;17;10;0;34;59;0;0;0.16;0.83999999999999997;0.0;0.0;21;61;96;7;0.19;0.01;0.5;0.29999999999999999;1;14.382968009935212;43;61;28;1;
2019_03_18 11:43;41;0;0;practice;18;43;0;11;17;21;44;0.16;0.46000000000000002;0.25;0.13;2;66;0;0;0.44;0.56000000000000005;0.0;0.0;1;27.83305858174208;43;61;28;1;
2019_03_18 11:43;41;0;0;practice;19;72;0;86;85;97;43;0.51000000000000001;0.14999999999999999;0.33000000000000002;0.0099999999999999499;72;29;10;90;0.01;0.11;0.65000000000000002;0.23000000000000001;0;9.316475666202678;43;61;28;1;
2019_03_18 11:43;41;0;0;practice;20;42;0;23;45;91;22;0.72999999999999998;0.02;0.20000000000000001;0.050000000000000003;2;86;0;0;0.40999999999999998;0.58999999999999997;0.0;0.0;0;17.96628509336915;43;61;28;1;
2019_03_18 11:43;41;0;0;practice;21;20;0;32;11;0;0;0.40999999999999998;0.58999999999999997;0.0;0.0;1;86;42;65;0.45000000000000001;0.38;0.050000000000000003;0.12;0;9.583127216186767;43;61;28;1;
2019_03_18 11:43;41;0;0;practice;22;13;1;15;25;0;0;0.29999999999999999;0.69999999999999996;0.0;0.0;3;43;35;73;0.44;0.40000000000000002;0.01;0.14999999999999999;0;14.333041904214042;43;61;28;1;
2019_03_18 11:43;41;0;0;practice;23;18;1;47;36;0;0;0.089999999999999997;0.91000000000000003;0.0;0.0;2;44;81;9;0.20000000000000001;0.25;0.51000000000000001;0.040000000000000001;1;15.183126638887188;43;61;28;1;
2019_03_18 11:43;41;0;0;practice;24;69;1;38;74;27;73;0.22;0.19;0.45000000000000001;0.14000000000000001;1;97;79;84;0.28000000000000003;0.45000000000000001;0.17000000000000001;0.10000000000000001;1;42.96590920753442;43;61;28;1;
2019_03_18 11:43;41;0;0;practice;25;41;0;19;54;51;8;0.76000000000000001;0.070000000000000007;0.16;0.0099999999999999794;2;77;0;0;0.54000000000000004;0.46000000000000002;0.0;0.0;0;10.88321560708755;43;61;28;1;
2019_03_18 11:43;41;0;0;practice;26;5;1;23;58;0;0;0.71999999999999997;0.28000000000000003;0.0;0.0;94;12;52;3;0.11;0.84999999999999998;0.029999999999999999;0.01;0;20.98288564860195;43;61;28;1;
2019_03_18 11:43;41;0;0;practice;27;44;1;69;48;22;63;0.39000000000000001;0.40999999999999998;0.19;0.01;1;94;0;0;0.22;0.78000000000000003;0.0;0.0;0;16.81641986062641;43;61;28;1;
2019_03_18 11:43;41;0;0;practice;28;24;1;19;38;0;0;0.89000000000000001;0.11;0.0;0.0;45;76;95;57;0.29999999999999999;0.22;0.40000000000000002;0.080000000000000002;1;10.316511587032437;43;61;28;1;
2019_03_18 11:43;41;0;0;practice;29;62;1;65;52;74;55;0.16;0.12;0.14999999999999999;0.56999999999999995;72;86;2;68;0.12;0.53000000000000003;0.22;0.13;0;41.516076816695204;43;61;28;1;
2019_03_18 11:43;41;0;0;practice;30;37;1;50;66;99;12;0.26000000000000001;0.71999999999999997;0.01;0.01;22;90;0;0;0.37;0.63;0.0;0.0;0;30.032958644860628;43;61;28;1;
2019_03_18 11:43;41;0;0;practice;31;33;1;54;82;55;71;0.56000000000000005;0.20999999999999999;0.02;0.20999999999999999;13;99;0;0;0.5;0.5;0.0;0.0;0;12.866336023973417;43;61;28;1;
2019_03_18 11:43;41;0;0;practice;32;8;0;20;44;0;0;0.26000000000000001;0.73999999999999999;0.0;0.0;99;3;69;24;0.20999999999999999;0.60999999999999999;0.12;0.060000000000000102;0;7.583170834337579;43;61;28;1;
2019_03_18 11:43;41;0;0;practice;33;39;0;53;65;48;75;0.92000000000000004;0.029999999999999999;0.01;0.040000000000000001;16;83;0;0;0.31;0.68999999999999995;0.0;0.0;0;9.916688368835821;43;61;28;1;
2019_03_18 11:43;41;0;0;practice;34;31;1;72;59;40;92;0.59999999999999998;0.34999999999999998;0.02;0.029999999999999999;97;29;0;0;0.38;0.62;0.0;0.0;0;33.18285466688576;43;61;28;1;
2019_03_18 11:43;41;0;0;practice;35;30;1;54;78;85;25;0.20999999999999999;0.60999999999999999;0.089999999999999997;0.090000000000000094;87;20;0;0;0.58999999999999997;0.40999999999999998;0.0;0.0;0;33.86607880516931;43;61;28;1;
2019_03_18 11:43;41;0;0;practice;36;46;0;79;57;98;81;0.67000000000000004;0.070000000000000007;0.20999999999999999;0.050000000000000003;1;76;0;0;0.56000000000000005;0.44;0.0;0.0;0;9.349735468740619;43;61;28;1;
2019_03_18 11:43;41;0;0;practice;37;26;1;24;46;74;59;0.29999999999999999;0.11;0.25;0.34000000000000002;91;6;0;0;0.28999999999999998;0.70999999999999996;0.0;0.0;0;8.783272631406362;43;61;28;1;
2019_03_18 11:43;41;0;0;practice;38;29;0;66;40;92;49;0.46999999999999997;0.10000000000000001;0.34000000000000002;0.089999999999999997;8;94;0;0;0.44;0.56000000000000005;0.0;0.0;0;16.6163036310827;43;61;28;1;
2019_03_18 11:43;41;0;0;practice;39;2;0;41;60;0;0;0.97999999999999998;0.02;0.0;0.0;10;14;97;6;0.54000000000000004;0.17000000000000001;0.12;0.17000000000000001;0;11.933091038779821;43;61;28;1;
2019_03_18 11:43;41;0;0;practice;40;6;1;42;59;0;0;0.35999999999999999;0.64000000000000001;0.0;0.0;77;19;6;7;0.44;0.14999999999999999;0.17999999999999999;0.23000000000000001;0;12.333115028763132;43;61;28;1;
2019_03_18 11:43;41;0;0;practice;41;14;1;92;56;0;0;0.11;0.89000000000000001;0.0;0.0;97;31;51;4;0.58999999999999997;0.22;0.080000000000000002;0.11;0;14.116374831299254;43;61;28;1;
2019_03_18 11:43;41;0;0;practice;42;23;1;99;93;0;0;0.57999999999999996;0.41999999999999998;0.0;0.0;64;10;80;81;0.13;0.55000000000000004;0.02;0.29999999999999999;0;16.1830782099114;43;61;28;1;
2019_03_18 11:43;41;0;0;practice;43;52;0;17;61;57;59;0.070000000000000007;0.050000000000000003;0.33000000000000002;0.55000000000000004;12;93;94;62;0.71999999999999997;0.16;0.080000000000000002;0.040000000000000001;0;15.949604036988603;43;61;28;1;
2019_03_18 11:43;41;0;0;practice;44;58;1;44;50;85;42;0.38;0.57999999999999996;0.02;0.02;37;88;19;12;0.20000000000000001;0.29999999999999999;0.46000000000000002;0.040000000000000001;0;13.61662659783542;43;61;28;1;
2019_03_18 11:43;41;0;0;practice;45;15;1;24;59;0;0;0.56999999999999995;0.42999999999999999;0.0;0.0;9;8;80;22;0.31;0.10000000000000001;0.55000000000000004;0.039999999999999897;0;7.999815264300196;43;61;28;1;
2019_03_18 11:43;41;0;0;practice;46;65;0;35;15;77;1;0.62;0.33000000000000002;0.029999999999999999;0.02;68;3;25;96;0.38;0.28000000000000003;0.28000000000000003;0.059999999999999901;1;28.016198690940655;43;61;28;1;
2019_03_18 11:43;41;0;0;practice;47;16;0;50;42;0;0;0.32000000000000001;0.68000000000000005;0.0;0.0;97;2;56;31;0.35999999999999999;0.16;0.16;0.32000000000000001;0;10.999946760199236;43;61;28;1;
2019_03_18 11:43;41;0;0;practice;48;63;0;24;82;6;96;0.91000000000000003;0.070000000000000007;0.01;0.0099999999999999603;73;10;71;22;0.31;0.51000000000000001;0.050000000000000003;0.13;0;10.799790761160693;43;61;28;1;
2019_03_18 11:43;41;0;0;practice;49;75;0;21;86;27;62;0.88;0.040000000000000001;0.070000000000000007;0.0099999999999999794;13;3;49;87;0.28999999999999998;0.39000000000000001;0.070000000000000007;0.25;0;6.849771389570378;43;61;28;1;
2019_03_18 11:43;41;0;0;practice;50;53;1;47;24;95;38;0.57999999999999996;0.28000000000000003;0.02;0.12;8;22;93;96;0.54000000000000004;0.34000000000000002;0.10000000000000001;0.0199999999999999;0;3.183245305915989;43;61;28;1;
2019_03_18 11:43;41;0;0;practice;51;67;0;74;31;10;77;0.11;0.070000000000000007;0.77000000000000002;0.050000000000000003;2;23;8;97;0.56999999999999995;0.01;0.059999999999999998;0.35999999999999999;0;21.81648432568909;43;61;28;1;
2019_03_18 11:43;41;0;0;practice;52;32;0;21;86;16;78;0.45000000000000001;0.41999999999999998;0.050000000000000003;0.080000000000000099;95;9;0;0;0.42999999999999999;0.56999999999999995;0.0;0.0;0;6.2165028634044575;43;61;28;1;
2019_03_18 11:43;41;0;0;practice;53;66;0;44;18;63;36;0.47999999999999998;0.10000000000000001;0.029999999999999999;0.39000000000000001;13;93;61;53;0.52000000000000002;0.45000000000000001;0.02;0.0099999999999999707;0;12.099749580496791;43;61;28;1;
2019_03_18 11:43;41;0;0;practice;54;34;1;57;23;66;79;0.56000000000000005;0.23000000000000001;0.13;0.079999999999999905;85;9;0;0;0.56000000000000005;0.44;0.0;0.0;0;13.783057106422348;43;61;28;1;
2019_03_18 11:43;41;0;0;practice;55;71;0;94;87;26;75;0.71999999999999997;0.23999999999999999;0.02;0.02;90;27;12;83;0.16;0.73999999999999999;0.02;0.080000000000000002;0;7.966404081118526;43;61;28;1;
2019_03_18 11:43;41;0;0;practice;56;73;1;99;88;95;28;0.83999999999999997;0.14000000000000001;0.01;0.01;90;93;10;74;0.080000000000000002;0.46000000000000002;0.34999999999999998;0.11;0;9.08311374587538;43;61;28;1;
2019_03_18 11:43;41;0;0;practice;57;35;1;84;95;4;35;0.89000000000000001;0.050000000000000003;0.01;0.050000000000000003;5;98;0;0;0.19;0.81000000000000005;0.0;0.0;0;17.13303536149033;43;61;28;1;
2019_03_18 11:43;41;0;0;practice;58;47;0;91;99;90;78;0.93000000000000005;0.040000000000000001;0.02;0.0099999999999999499;10;87;0;0;0.23000000000000001;0.77000000000000002;0.0;0.0;0;8.54992610571935;43;61;28;1;
2019_03_18 11:43;41;0;0;practice;59;48;1;20;25;24;35;0.32000000000000001;0.13;0.48999999999999999;0.059999999999999901;44;76;0;0;0.29999999999999999;0.69999999999999996;0.0;0.0;1;6.516478680987348;43;61;28;1;
2019_03_18 11:43;41;0;0;practice;60;55;1;53;11;80;74;0.31;0.37;0.28000000000000003;0.039999999999999897;6;93;98;96;0.69999999999999996;0.22;0.050000000000000003;0.029999999999999999;0;7.7332817399037594;43;61;28;1;
2019_03_18 11:43;41;0;0;practice;61;21;0;59;69;0;0;0.34000000000000002;0.66000000000000003;0.0;0.0;64;18;5;24;0.14999999999999999;0.040000000000000001;0.51000000000000001;0.29999999999999999;0;12.649897304912884;43;61;28;1;
2019_03_18 11:43;41;0;0;practice;62;22;0;84;87;0;0;0.17000000000000001;0.82999999999999996;0.0;0.0;3;24;41;83;0.68000000000000005;0.11;0.10000000000000001;0.11;0;5.899823859641401;43;61;28;1;
2019_03_18 11:43;41;0;0;practice;63;9;1;57;44;0;0;0.14999999999999999;0.84999999999999998;0.0;0.0;38;35;64;95;0.34000000000000002;0.45000000000000001;0.089999999999999997;0.12;0;7.633157235737599;43;61;28;1;
2019_03_18 11:43;41;0;0;practice;64;17;0;27;61;0;0;0.68999999999999995;0.31;0.0;0.0;3;91;69;43;0.29999999999999999;0.33000000000000002;0.27000000000000002;0.099999999999999895;1;29.08276223489156;43;61;28;1;
2019_03_18 11:43;41;0;0;practice;65;74;1;36;46;10;12;0.11;0.19;0.65000000000000002;0.049999999999999899;92;24;79;19;0.51000000000000001;0.40999999999999998;0.02;0.059999999999999998;1;11.4998527887401;43;61;28;1;
2019_03_18 11:43;41;0;0;practice;66;4;1;40;59;0;0;0.19;0.81000000000000005;0.0;0.0;10;88;13;45;0.56000000000000005;0.28999999999999998;0.01;0.14000000000000001;0;9.933414646975507;43;61;28;1;
2019_03_18 11:43;41;0;0;practice;67;56;0;47;52;64;10;0.77000000000000002;0.040000000000000001;0.11;0.080000000000000002;1;5;12;99;0.14000000000000001;0.28999999999999998;0.27000000000000002;0.29999999999999999;0;7.966472394840821;43;61;28;1;
2019_03_18 11:43;41;0;0;practice;68;50;0;17;12;21;14;0.55000000000000004;0.34000000000000002;0.059999999999999998;0.049999999999999899;13;93;0;0;0.28999999999999998;0.70999999999999996;0.0;0.0;1;11.41642858425621;43;61;28;1;
2019_03_18 11:43;41;0;0;practice;69;36;0;56;89;86;77;0.66000000000000003;0.080000000000000002;0.14999999999999999;0.11;29;91;0;0;0.40999999999999998;0.58999999999999997;0.0;0.0;0;18.466332880901973;43;61;28;1;
2019_03_18 11:43;41;0;0;practice;70;59;1;13;27;48;51;0.56999999999999995;0.13;0.13;0.17000000000000001;8;37;97;1;0.65000000000000002;0.16;0.14999999999999999;0.040000000000000001;0;14.766378615817302;43;61;28;1;
2019_03_18 11:43;41;0;0;practice;71;27;1;68;43;98;36;0.54000000000000004;0.44;0.01;0.0099999999999999603;97;13;0;0;0.27000000000000002;0.72999999999999998;0.0;0.0;0;10.883269809055491;43;61;28;1;
2019_03_18 11:43;41;0;0;practice;72;19;1;25;73;0;0;0.69999999999999996;0.29999999999999999;0.0;0.0;87;84;1;86;0.040000000000000001;0.59999999999999998;0.28000000000000003;0.080000000000000002;1;19.499611606021062;43;61;28;1;
2019_03_18 11:43;41;0;0;practice;73;70;0;21;42;14;63;0.96999999999999997;0.01;0.01;0.01;70;2;6;76;0.23999999999999999;0.42999999999999999;0.01;0.32000000000000001;0;26.649439955765047;43;61;28;1;
2019_03_18 11:43;41;0;0;practice;74;57;1;39;68;59;91;0.73999999999999999;0.040000000000000001;0.14999999999999999;0.070000000000000007;9;22;40;84;0.29999999999999999;0.32000000000000001;0.040000000000000001;0.34000000000000002;0;15.499647526850822;43;61;28;1;
2019_03_18 11:43;41;0;0;practice;75;12;0;45;86;0;0;0.97999999999999998;0.02;0.0;0.0;6;23;95;81;0.14999999999999999;0.40999999999999998;0.050000000000000003;0.39000000000000001;0;24.466181820980637;43;61;28;1;
2019_03_18 11:43;41;1;0;control;1;13;0;52;56;0;0;0.46999999999999997;0.53000000000000003;0.0;0.0;94;71;27;2;0.089999999999999997;0.31;0.57999999999999996;0.020000000000000101;0;9.940577324719925;43;61;28;1;
2019_03_18 11:43;41;1;0;control;2;110;1;47;44;23;52;0.13;0.27000000000000002;0.040000000000000001;0.56000000000000005;99;2;30;22;0.28999999999999998;0.5;0.11;0.10000000000000001;0;9.916845522469885;43;61;28;1;
2019_03_18 11:43;41;1;0;control;3;28;1;47;30;0;0;0.97999999999999998;0.02;0.0;0.0;55;48;77;13;0.070000000000000007;0.26000000000000001;0.42999999999999999;0.23999999999999999;0;14.349813724835258;43;61;28;1;
2019_03_18 11:43;41;1;0;control;4;65;0;75;64;59;52;0.59999999999999998;0.22;0.14000000000000001;0.040000000000000001;1;99;0;0;0.35999999999999999;0.64000000000000001;0.0;0.0;0;6.633349668758456;43;61;28;1;
2019_03_18 11:43;41;1;0;control;5;61;0;43;18;39;70;0.75;0.089999999999999997;0.089999999999999997;0.070000000000000007;16;66;0;0;0.64000000000000001;0.35999999999999999;0.0;0.0;0;26.182830933479636;43;61;28;1;
2019_03_18 11:43;41;1;0;control;6;135;1;48;60;41;51;0.14000000000000001;0.40000000000000002;0.089999999999999997;0.37;94;1;85;65;0.64000000000000001;0.29999999999999999;0.01;0.050000000000000003;0;27.166135123901768;43;61;28;1;
2019_03_18 11:43;41;1;0;control;7;55;1;74;55;47;48;0.60999999999999999;0.31;0.070000000000000007;0.01;97;6;0;0;0.42999999999999999;0.56999999999999995;0.0;0.0;0;8.866446993682985;43;61;28;1;
2019_03_18 11:43;41;1;0;control;8;24;0;35;27;0;0;0.070000000000000007;0.93000000000000005;0.0;0.0;62;3;81;95;0.35999999999999999;0.55000000000000004;0.01;0.080000000000000002;0;20.416228133193727;43;61;28;1;
2019_03_18 11:43;41;1;0;control;9;95;0;93;88;68;85;0.83999999999999997;0.14000000000000001;0.01;0.01;2;82;0;0;0.41999999999999998;0.57999999999999996;0.0;0.0;0;8.333139403612222;43;61;28;1;
2019_03_18 11:43;41;1;0;control;10;93;0;87;81;73;98;0.80000000000000004;0.040000000000000001;0.14999999999999999;0.0099999999999999499;5;71;0;0;0.51000000000000001;0.48999999999999999;0.0;0.0;0;5.9330817378486245;43;61;28;1;
2019_03_18 11:43;41;1;0;control;11;79;1;52;46;29;22;0.17999999999999999;0.51000000000000001;0.23999999999999999;0.070000000000000104;93;14;0;0;0.45000000000000001;0.55000000000000004;0.0;0.0;0;9.749797945329192;43;61;28;1;
2019_03_18 11:43;41;1;0;control;12;66;1;89;23;27;15;0.070000000000000007;0.54000000000000004;0.17000000000000001;0.22;9;73;0;0;0.72999999999999998;0.27000000000000002;0.0;0.0;0;5.916513575508361;43;61;28;1;
2019_03_18 11:43;41;1;0;control;13;130;0;37;79;23;95;0.94999999999999996;0.029999999999999999;0.01;0.01;94;4;58;49;0.46000000000000002;0.5;0.029999999999999999;0.01;0;29.749388383715996;43;61;28;1;
2019_03_18 11:43;41;1;0;control;14;42;1;70;48;0;0;0.79000000000000004;0.20999999999999999;0.0;0.0;51;8;12;67;0.19;0.26000000000000001;0.28999999999999998;0.26000000000000001;0;7.483202842362516;43;61;28;1;
2019_03_18 11:43;41;1;0;control;15;54;0;44;79;78;52;0.79000000000000004;0.19;0.01;0.0099999999999999603;96;1;0;0;0.28000000000000003;0.71999999999999997;0.0;0.0;0;6.233334338261557;43;61;28;1;
2019_03_18 11:43;41;1;0;control;16;20;1;44;40;0;0;0.91000000000000003;0.089999999999999997;0.0;0.0;29;5;80;99;0.25;0.40000000000000002;0.26000000000000001;0.089999999999999997;0;17.899613466206574;43;61;28;1;
2019_03_18 11:43;41;1;0;control;17;105;1;49;74;63;58;0.84999999999999998;0.080000000000000002;0.02;0.050000000000000003;97;5;86;8;0.25;0.52000000000000002;0.070000000000000007;0.16;0;13.016397217674239;43;61;28;1;
2019_03_18 11:43;41;1;0;control;18;77;0;24;17;99;41;0.17999999999999999;0.13;0.10000000000000001;0.58999999999999997;12;97;0;0;0.59999999999999998;0.40000000000000002;0.0;0.0;0;7.266479001707921;43;61;28;1;
2019_03_18 11:43;41;1;0;control;19;5;0;70;5;0;0;0.98999999999999999;0.01;0.0;0.0;92;87;47;1;0.44;0.02;0.16;0.38;0;9.083171155059972;43;61;28;1;
2019_03_18 11:43;41;1;0;control;20;70;1;66;55;69;50;0.22;0.29999999999999999;0.29999999999999999;0.17999999999999999;2;90;0;0;0.34000000000000002;0.66000000000000003;0.0;0.0;0;20.266291700236252;43;61;28;1;
2019_03_18 11:43;41;1;0;control;21;16;0;64;53;0;0;0.65000000000000002;0.34999999999999998;0.0;0.0;29;17;81;46;0.10000000000000001;0.01;0.44;0.45000000000000001;1;9.683239853648047;43;61;28;1;
2019_03_18 11:43;41;1;0;control;22;123;0;26;24;51;92;0.72999999999999998;0.16;0.070000000000000007;0.040000000000000001;6;90;82;49;0.64000000000000001;0.25;0.050000000000000003;0.059999999999999998;0;11.383102071604299;43;61;28;1;
2019_03_18 11:43;41;1;0;control;23;113;0;85;65;39;64;0.44;0.34000000000000002;0.13;0.089999999999999997;87;2;4;35;0.67000000000000004;0.17000000000000001;0.11;0.049999999999999899;0;8.29980743869055;43;61;28;1;
2019_03_18 11:43;41;1;0;control;24;121;1;42;51;47;70;0.41999999999999998;0.17000000000000001;0.23999999999999999;0.17000000000000001;21;76;48;9;0.14999999999999999;0.34000000000000002;0.40999999999999998;0.10000000000000001;1;22.166201513293345;43;61;28;1;
2019_03_18 11:43;41;1;0;control;25;119;1;60;58;11;18;0.25;0.72999999999999998;0.01;0.01;96;23;42;85;0.44;0.48999999999999999;0.059999999999999998;0.010000000000000101;0;3.9831925792695984;43;61;28;1;
2019_03_18 11:43;41;1;0;control;26;37;1;14;98;0;0;0.93000000000000005;0.070000000000000007;0.0;0.0;41;2;87;66;0.17999999999999999;0.48999999999999999;0.32000000000000001;0.010000000000000101;1;15.516362579732231;43;61;28;1;
2019_03_18 11:43;41;1;0;control;27;35;0;33;37;0;0;0.88;0.12;0.0;0.0;63;4;79;98;0.16;0.46000000000000002;0.17000000000000001;0.20999999999999999;0;15.532864673401491;43;61;28;1;
2019_03_18 11:43;41;1;0;control;28;33;0;27;70;0;0;0.88;0.12;0.0;0.0;93;3;77;16;0.080000000000000002;0.40000000000000002;0.5;0.02;1;22.916349045275638;43;61;28;1;
2019_03_18 11:43;41;1;0;control;29;106;1;85;69;22;61;0.10000000000000001;0.58999999999999997;0.17999999999999999;0.13;20;79;91;84;0.55000000000000004;0.14999999999999999;0.26000000000000001;0.039999999999999897;0;10.966389969364172;43;61;28;1;
2019_03_18 11:43;41;1;0;control;30;89;1;26;41;13;56;0.059999999999999998;0.40999999999999998;0.050000000000000003;0.47999999999999998;5;97;0;0;0.37;0.63;0.0;0.0;0;12.58317083433758;43;61;28;1;
2019_03_18 11:43;41;1;0;control;31;149;0;14;89;73;53;0.93999999999999995;0.01;0.01;0.040000000000000001;97;45;6;13;0.34000000000000002;0.01;0.40999999999999998;0.23999999999999999;1;12.133061660670137;43;61;28;1;
2019_03_18 11:43;41;1;0;control;32;76;1;39;62;9;28;0.01;0.51000000000000001;0.26000000000000001;0.22;77;7;0;0;0.57999999999999996;0.41999999999999998;0.0;0.0;0;8.916477975399175;43;61;28;1;
2019_03_18 11:43;41;1;0;control;33;41;0;99;40;0;0;0.89000000000000001;0.11;0.0;0.0;1;67;52;46;0.51000000000000001;0.38;0.029999999999999999;0.080000000000000002;0;5.799785308892751;43;61;28;1;
2019_03_18 11:43;41;1;0;control;34;39;1;14;33;0;0;0.78000000000000003;0.22;0.0;0.0;93;84;1;25;0.14000000000000001;0.23999999999999999;0.39000000000000001;0.23000000000000001;0;15.149817445206281;43;61;28;1;
2019_03_18 11:43;41;1;0;control;35;32;0;19;81;0;0;0.93000000000000005;0.070000000000000007;0.0;0.0;1;65;41;68;0.45000000000000001;0.050000000000000003;0.059999999999999998;0.44;0;15.316310815247562;43;61;28;1;
2019_03_18 11:43;41;1;0;control;36;140;1;36;32;26;27;0.39000000000000001;0.14999999999999999;0.19;0.27000000000000002;44;3;99;25;0.29999999999999999;0.34000000000000002;0.34000000000000002;0.0199999999999999;0;20.716278358213458;43;61;28;1;
2019_03_18 11:43;41;1;0;control;37;14;1;36;40;0;0;0.54000000000000004;0.46000000000000002;0.0;0.0;99;70;1;11;0.16;0.089999999999999997;0.080000000000000002;0.67000000000000004;0;10.566451291355406;43;61;28;1;
2019_03_18 11:43;41;1;0;control;38;60;1;64;59;57;96;0.83999999999999997;0.13;0.02;0.01;83;6;0;0;0.54000000000000004;0.46000000000000002;0.0;0.0;0;17.266341732822184;43;61;28;1;
2019_03_18 11:43;41;1;0;control;39;115;1;50;28;61;79;0.83999999999999997;0.040000000000000001;0.059999999999999998;0.059999999999999998;1;26;97;55;0.45000000000000001;0.080000000000000002;0.40999999999999998;0.060000000000000102;0;4.816545583533298;43;61;28;1;
2019_03_18 11:43;41;1;0;control;40;132;0;27;70;21;19;0.64000000000000001;0.23000000000000001;0.029999999999999999;0.10000000000000001;11;85;55;6;0.39000000000000001;0.46999999999999997;0.029999999999999999;0.11;0;23.416132558128083;43;61;28;1;
2019_03_18 11:43;41;1;0;control;41;75;0;67;80;36;81;0.81999999999999995;0.080000000000000002;0.059999999999999998;0.040000000000000001;3;97;0;0;0.32000000000000001;0.68000000000000005;0.0;0.0;0;7.416405171572478;43;61;28;1;
2019_03_18 11:43;41;1;0;control;42;133;1;59;88;60;36;0.67000000000000004;0.070000000000000007;0.12;0.14000000000000001;7;91;66;61;0.25;0.68999999999999995;0.01;0.0500000000000001;1;8.083306820339203;43;61;28;1;
2019_03_18 11:43;41;1;0;control;43;57;1;52;35;23;47;0.22;0.68000000000000005;0.040000000000000001;0.059999999999999998;71;7;0;0;0.28999999999999998;0.70999999999999996;0.0;0.0;0;5.5999878767197515;43;61;28;1;
2019_03_18 11:43;41;1;0;control;44;124;1;37;65;15;41;0.17999999999999999;0.45000000000000001;0.02;0.34999999999999998;40;7;98;30;0.070000000000000007;0.45000000000000001;0.45000000000000001;0.029999999999999898;0;9.566419539905837;43;61;28;1;
2019_03_18 11:43;41;1;0;control;45;31;1;10;59;0;0;0.23999999999999999;0.76000000000000001;0.0;0.0;1;79;53;73;0.23000000000000001;0.58999999999999997;0.050000000000000003;0.13;0;9.716593627645125;43;61;28;1;
2019_03_18 11:43;41;1;0;control;46;34;0;32;48;0;0;0.28000000000000003;0.71999999999999997;0.0;0.0;97;83;7;62;0.040000000000000001;0.54000000000000004;0.35999999999999999;0.059999999999999901;0;6.266442439435195;43;61;28;1;
2019_03_18 11:43;41;1;0;control;47;49;0;21;30;0;0;0.53000000000000003;0.46999999999999997;0.0;0.0;93;99;89;25;0.44;0.02;0.11;0.42999999999999999;1;9.749902179881246;43;61;28;1;
2019_03_18 11:43;41;1;0;control;48;98;0;27;10;31;79;0.23000000000000001;0.67000000000000004;0.070000000000000007;0.029999999999999999;25;99;0;0;0.38;0.62;0.0;0.0;1;6.499816226465555;43;61;28;1;
2019_03_18 11:43;41;1;0;control;49;40;1;45;49;0;0;0.68999999999999995;0.31;0.0;0.0;2;92;65;73;0.23999999999999999;0.59999999999999998;0.11;0.050000000000000003;0;14.01635712746247;43;61;28;1;
2019_03_18 11:43;41;1;0;control;50;125;0;37;41;10;35;0.91000000000000003;0.040000000000000001;0.029999999999999999;0.02;7;13;91;93;0.26000000000000001;0.39000000000000001;0.16;0.19;0;14.166663673264338;43;61;28;1;
2019_03_18 11:43;41;1;0;control;51;127;1;89;26;62;79;0.02;0.28999999999999998;0.53000000000000003;0.16;96;6;60;13;0.53000000000000003;0.25;0.17000000000000001;0.050000000000000003;0;25.132994950556167;43;61;28;1;
2019_03_18 11:43;41;1;0;control;52;84;0;43;10;5;45;0.78000000000000003;0.13;0.059999999999999998;0.029999999999999999;87;1;0;0;0.57999999999999996;0.41999999999999998;0.0;0.0;0;7.816480797750046;43;61;28;1;
2019_03_18 11:43;41;1;0;control;53;1;0;22;51;0;0;0.26000000000000001;0.73999999999999999;0.0;0.0;14;11;92;31;0.29999999999999999;0.40999999999999998;0.14999999999999999;0.14000000000000001;0;10.066354754120766;43;61;28;1;
2019_03_18 11:43;41;1;0;control;54;45;1;97;87;0;0;0.71999999999999997;0.28000000000000003;0.0;0.0;96;11;14;4;0.25;0.029999999999999999;0.14000000000000001;0.57999999999999996;0;6.766643211220071;43;61;28;1;
2019_03_18 11:43;41;1;0;control;55;118;1;62;52;65;68;0.40999999999999998;0.44;0.10000000000000001;0.0500000000000001;79;20;14;37;0.56999999999999995;0.23999999999999999;0.14000000000000001;0.050000000000000003;0;16.46634186110896;43;61;28;1;
2019_03_18 11:43;41;1;0;control;56;68;1;84;27;55;62;0.01;0.050000000000000003;0.40999999999999998;0.53000000000000003;9;82;0;0;0.37;0.63;0.0;0.0;0;12.699710837314342;43;61;28;1;
2019_03_18 11:43;41;1;0;control;57;88;1;77;13;12;7;0.12;0.19;0.66000000000000003;0.029999999999999898;94;2;0;0;0.40999999999999998;0.58999999999999997;0.0;0.0;0;14.43294992123083;43;61;28;1;
2019_03_18 11:43;41;1;0;control;58;85;0;31;22;82;50;0.11;0.69999999999999996;0.01;0.17999999999999999;3;99;0;0;0.62;0.38;0.0;0.0;0;9.449824372795774;43;61;28;1;
2019_03_18 11:43;41;1;0;control;59;56;0;28;84;37;41;0.68000000000000005;0.28000000000000003;0.02;0.0199999999999999;6;95;0;0;0.72999999999999998;0.27000000000000002;0.0;0.0;0;3.816701133559036;43;61;28;1;
2019_03_18 11:43;41;1;0;control;60;21;0;64;28;0;0;0.080000000000000002;0.92000000000000004;0.0;0.0;50;1;88;13;0.57999999999999996;0.13;0.02;0.27000000000000002;1;12.099690888424448;43;61;28;1;
2019_03_18 11:43;41;1;0;control;61;44;0;79;74;0;0;0.71999999999999997;0.28000000000000003;0.0;0.0;3;67;15;36;0.41999999999999998;0.53000000000000003;0.02;0.029999999999999999;0;10.24970012520862;43;61;28;1;
2019_03_18 11:43;41;1;0;control;62;18;0;68;50;0;0;0.029999999999999999;0.96999999999999997;0.0;0.0;34;64;15;89;0.65000000000000002;0.029999999999999999;0.050000000000000003;0.27000000000000002;0;17.899630785177578;43;61;28;1;
2019_03_18 11:43;41;1;0;control;63;99;1;8;24;15;73;0.56000000000000005;0.35999999999999999;0.070000000000000007;0.0099999999999999499;88;12;0;0;0.52000000000000002;0.47999999999999998;0.0;0.0;1;16.316304721536653;43;61;28;1;
2019_03_18 11:43;41;1;0;control;64;111;1;51;36;48;27;0.93000000000000005;0.01;0.01;0.049999999999999899;31;78;30;53;0.55000000000000004;0.16;0.029999999999999999;0.26000000000000001;0;10.14986940212475;43;61;28;1;
2019_03_18 11:43;41;1;0;control;65;29;0;44;51;0;0;0.78000000000000003;0.22;0.0;0.0;74;1;68;82;0.69999999999999996;0.28000000000000003;0.01;0.01;0;12.366350777172556;43;61;28;1;
2019_03_18 11:43;41;1;0;control;66;7;0;49;29;0;0;0.95999999999999996;0.040000000000000001;0.0;0.0;23;99;64;25;0.68999999999999995;0.12;0.059999999999999998;0.13;0;15.68293613019705;43;61;28;1;
2019_03_18 11:43;41;1;0;control;67;3;1;53;40;0;0;0.31;0.68999999999999995;0.0;0.0;96;24;7;88;0.11;0.27000000000000002;0.58999999999999997;0.029999999999999999;0;5.783213618613445;43;61;28;1;
2019_03_18 11:43;41;1;0;control;68;52;1;71;51;10;54;0.22;0.12;0.19;0.46999999999999997;91;1;0;0;0.29999999999999999;0.69999999999999996;0.0;0.0;0;9.566479514864113;43;61;28;1;
2019_03_18 11:43;41;1;0;control;69;137;1;71;22;28;17;0.25;0.46000000000000002;0.050000000000000003;0.23999999999999999;3;98;92;69;0.42999999999999999;0.23999999999999999;0.20000000000000001;0.13;0;17.94958254863377;43;61;28;1;
2019_03_18 11:43;41;1;0;control;70;143;1;88;44;56;73;0.95999999999999996;0.02;0.01;0.01;20;3;87;32;0.19;0.40000000000000002;0.28000000000000003;0.13;0;8.749901217715887;43;61;28;1;
2019_03_18 11:43;41;1;0;control;71;146;1;25;5;64;35;0.94999999999999996;0.02;0.01;0.02;47;97;12;79;0.20999999999999999;0.029999999999999999;0.02;0.73999999999999999;1;3.449832070116827;43;61;28;1;
2019_03_18 11:43;41;1;0;control;72;100;1;27;14;59;52;0.02;0.95999999999999996;0.01;0.01;17;98;0;0;0.48999999999999999;0.51000000000000001;0.0;0.0;1;12.616584583292934;43;61;28;1;
2019_03_18 11:43;41;1;0;control;73;53;1;26;70;50;80;0.29999999999999999;0.59999999999999998;0.040000000000000001;0.059999999999999998;89;1;0;0;0.40999999999999998;0.58999999999999997;0.0;0.0;0;10.833062751125908;43;61;28;1;
2019_03_18 11:43;41;1;0;control;74;6;1;9;51;0;0;0.14999999999999999;0.84999999999999998;0.0;0.0;6;40;50;73;0.42999999999999999;0.26000000000000001;0.059999999999999998;0.25;0;10.566394523611962;43;61;28;1;
2019_03_18 11:43;41;1;0;control;75;92;0;90;86;65;94;0.16;0.34000000000000002;0.28000000000000003;0.22;79;22;0;0;0.35999999999999999;0.64000000000000001;0.0;0.0;1;10.716412419884364;43;61;28;1;
2019_03_18 11:43;41;2;0;timed;1;7;0;49;29;0;0;0.95999999999999996;0.040000000000000001;0.0;0.0;23;99;64;25;0.68999999999999995;0.12;0.059999999999999998;0.13;0;5.101261141871873;43;61;28;1;
2019_03_18 11:43;41;2;0;timed;2;12;0;53;68;0;0;0.31;0.68999999999999995;0.0;0.0;69;54;97;29;0.25;0.20999999999999999;0.20000000000000001;0.34000000000000002;0;4.4833378662006;43;61;28;1;
2019_03_18 11:43;41;2;0;timed;3;65;1;75;64;59;52;0.59999999999999998;0.22;0.14000000000000001;0.040000000000000001;1;99;0;0;0.35999999999999999;0.64000000000000001;0.0;0.0;0;4.416821468339549;43;61;28;1;
2019_03_18 11:43;41;2;0;timed;4;129;0;12;29;81;36;0.17999999999999999;0.79000000000000004;0.01;0.02;5;19;95;92;0.47999999999999998;0.26000000000000001;0.13;0.13;0;6.299812570237918;43;61;28;1;
2019_03_18 11:43;41;2;0;timed;5;131;1;83;41;81;88;0.23999999999999999;0.58999999999999997;0.10000000000000001;0.070000000000000007;82;97;4;17;0.26000000000000001;0.46999999999999997;0.11;0.16;1;5.483297775988831;43;61;28;1;
2019_03_18 11:43;41;2;0;timed;6;122;0;35;58;25;31;0.81999999999999995;0.070000000000000007;0.080000000000000002;0.029999999999999999;18;64;68;89;0.63;0.17000000000000001;0.11;0.089999999999999997;0;5.36669106289628;43;61;28;1;
2019_03_18 11:43;41;2;0;timed;7;100;0;27;14;59;52;0.02;0.95999999999999996;0.01;0.01;17;98;0;0;0.48999999999999999;0.51000000000000001;0.0;0.0;1;5.550301670831686;43;61;28;1;
2019_03_18 11:43;41;2;0;timed;8;69;1;54;34;64;49;0.34000000000000002;0.25;0.20999999999999999;0.20000000000000001;14;98;0;0;0.62;0.38;0.0;0.0;0;6.549826681992272;43;61;28;1;
2019_03_18 11:43;41;2;0;timed;9;77;1;24;17;99;41;0.17999999999999999;0.13;0.10000000000000001;0.58999999999999997;12;97;0;0;0.59999999999999998;0.40000000000000002;0.0;0.0;0;6.499835469769096;43;61;28;1;
2019_03_18 11:43;41;2;0;timed;10;90;1;27;44;50;72;0.68000000000000005;0.28999999999999998;0.02;0.0099999999999999707;6;96;0;0;0.46999999999999997;0.53000000000000003;0.0;0.0;0;3.283391939878129;43;61;28;1;
2019_03_18 11:43;41;2;0;timed;11;102;0;40;56;53;17;0.28000000000000003;0.26000000000000001;0.14999999999999999;0.31;1;76;29;62;0.68000000000000005;0.23000000000000001;0.050000000000000003;0.039999999999999897;0;2.933382574805364;43;61;28;1;
2019_03_18 11:43;41;2;0;timed;12;78;1;74;36;34;3;0.14999999999999999;0.64000000000000001;0.13;0.080000000000000002;1;83;0;0;0.41999999999999998;0.57999999999999996;0.0;0.0;0;4.150014689053933;43;61;28;1;
2019_03_18 11:43;41;2;0;timed;13;14;1;36;40;0;0;0.54000000000000004;0.46000000000000002;0.0;0.0;99;70;1;11;0.16;0.089999999999999997;0.080000000000000002;0.67000000000000004;0;4.099874341238319;43;61;28;1;
2019_03_18 11:43;41;2;0;timed;14;49;1;21;30;0;0;0.53000000000000003;0.46999999999999997;0.0;0.0;93;99;89;25;0.44;0.02;0.11;0.42999999999999999;1;7.14978665592389;43;61;28;1;
2019_03_18 11:43;41;2;0;timed;15;63;0;56;78;42;36;0.93000000000000005;0.040000000000000001;0.01;0.0199999999999999;2;72;0;0;0.32000000000000001;0.68000000000000005;0.0;0.0;0;3.8667792613650818;43;61;28;1;
2019_03_18 11:43;41;2;0;timed;16;58;1;37;58;76;34;0.20999999999999999;0.57999999999999996;0.19;0.020000000000000101;86;5;0;0;0.47999999999999998;0.52000000000000002;0.0;0.0;0;3.333366153852694;43;61;28;1;
2019_03_18 11:43;41;2;0;timed;17;121;1;42;51;47;70;0.41999999999999998;0.17000000000000001;0.23999999999999999;0.17000000000000001;21;76;48;9;0.14999999999999999;0.34000000000000002;0.40999999999999998;0.10000000000000001;1;5.800017832127196;43;61;28;1;
2019_03_18 11:43;41;2;0;timed;18;54;0;44;79;78;52;0.79000000000000004;0.19;0.01;0.0099999999999999603;96;1;0;0;0.28000000000000003;0.71999999999999997;0.0;0.0;0;3.9832272172134253;43;61;28;1;
2019_03_18 11:43;41;2;0;timed;19;84;1;43;10;5;45;0.78000000000000003;0.13;0.059999999999999998;0.029999999999999999;87;1;0;0;0.57999999999999996;0.41999999999999998;0.0;0.0;0;2.766549560483327;43;61;28;1;
2019_03_18 11:43;41;2;0;timed;20;107;1;52;48;13;63;0.68000000000000005;0.19;0.050000000000000003;0.079999999999999905;54;91;33;3;0.19;0.17999999999999999;0.33000000000000002;0.29999999999999999;0;7.2664469295395975;43;61;28;1;
2019_03_18 11:43;41;2;0;timed;21;68;0;84;27;55;62;0.01;0.050000000000000003;0.40999999999999998;0.53000000000000003;9;82;0;0;0.37;0.63;0.0;0.0;0;3.0332395970708603;43;61;28;1;
2019_03_18 11:43;41;2;0;timed;22;134;0;57;48;50;55;0.02;0.62;0.17999999999999999;0.17999999999999999;80;96;15;18;0.23999999999999999;0.35999999999999999;0.33000000000000002;0.070000000000000007;1;5.499837073375602;43;61;28;1;
2019_03_18 11:43;41;2;0;timed;23;25;0;50;53;0;0;0.82999999999999996;0.17000000000000001;0.0;0.0;83;16;97;4;0.45000000000000001;0.29999999999999999;0.11;0.14000000000000001;0;5.3998081442787225;43;61;28;1;
2019_03_18 11:43;41;2;0;timed;24;94;0;84;86;93;39;0.78000000000000003;0.20000000000000001;0.01;0.0099999999999999603;9;83;0;0;0.46999999999999997;0.53000000000000003;0.0;0.0;0;5.750016356807464;43;61;28;1;
2019_03_18 11:43;41;2;0;timed;25;44;1;79;74;0;0;0.71999999999999997;0.28000000000000003;0.0;0.0;3;67;15;36;0.41999999999999998;0.53000000000000003;0.02;0.029999999999999999;0;6.799833737870358;43;61;28;1;
2019_03_18 11:43;41;2;0;timed;26;53;0;26;70;50;80;0.29999999999999999;0.59999999999999998;0.040000000000000001;0.059999999999999998;89;1;0;0;0.40999999999999998;0.58999999999999997;0.0;0.0;0;6.833218942594613;43;61;28;1;
2019_03_18 11:43;41;2;0;timed;27;38;1;40;70;0;0;0.53000000000000003;0.46999999999999997;0.0;0.0;97;90;6;96;0.56999999999999995;0.070000000000000007;0.27000000000000002;0.089999999999999997;1;7.266504980167156;43;61;28;1;
2019_03_18 11:43;41;2;0;timed;28;137;0;71;22;28;17;0.25;0.46000000000000002;0.050000000000000003;0.23999999999999999;3;98;92;69;0.42999999999999999;0.23999999999999999;0.20000000000000001;0.13;0;4.316699529948892;43;61;28;1;
2019_03_18 11:43;41;2;0;timed;29;150;0;25;21;78;38;0.84999999999999998;0.059999999999999998;0.050000000000000003;0.040000000000000001;31;43;64;95;0.059999999999999998;0.45000000000000001;0.13;0.35999999999999999;1;6.5831862289796845;43;61;28;1;
2019_03_18 11:43;41;2;0;timed;30;55;0;74;55;47;48;0.60999999999999999;0.31;0.070000000000000007;0.01;97;6;0;0;0.42999999999999999;0.56999999999999995;0.0;0.0;0;5.13326852616774;43;61;28;1;
2019_03_18 11:43;41;2;0;timed;31;133;0;59;88;60;36;0.67000000000000004;0.070000000000000007;0.12;0.14000000000000001;7;91;66;61;0.25;0.68999999999999995;0.01;0.0500000000000001;1;8.866460784716764;43;61;28;1;
2019_03_18 11:43;41;2;0;timed;32;13;0;52;56;0;0;0.46999999999999997;0.53000000000000003;0.0;0.0;94;71;27;2;0.089999999999999997;0.31;0.57999999999999996;0.020000000000000101;0;3.533298289141385;43;61;28;1;
2019_03_18 11:43;41;2;0;timed;33;93;1;87;81;73;98;0.80000000000000004;0.040000000000000001;0.14999999999999999;0.0099999999999999499;5;71;0;0;0.51000000000000001;0.48999999999999999;0.0;0.0;0;3.1665260836543894;43;61;28;1;
2019_03_18 11:43;41;2;0;timed;34;83;1;17;12;7;41;0.65000000000000002;0.19;0.089999999999999997;0.070000000000000007;6;84;0;0;0.72999999999999998;0.27000000000000002;0.0;0.0;1;7.416451034776401;43;61;28;1;
2019_03_18 11:43;41;2;0;timed;35;3;1;53;40;0;0;0.31;0.68999999999999995;0.0;0.0;96;24;7;88;0.11;0.27000000000000002;0.58999999999999997;0.029999999999999999;0;8.116519476787289;43;61;28;1;
2019_03_18 11:43;41;2;0;timed;36;57;0;52;35;23;47;0.22;0.68000000000000005;0.040000000000000001;0.059999999999999998;71;7;0;0;0.28999999999999998;0.70999999999999996;0.0;0.0;0;5.366576244527096;43;61;28;1;
2019_03_18 11:43;41;2;0;timed;37;67;1;44;42;8;89;0.88;0.070000000000000007;0.029999999999999999;0.02;10;63;0;0;0.39000000000000001;0.60999999999999999;0.0;0.0;0;6.233139339467016;43;61;28;1;
2019_03_18 11:43;41;2;0;timed;38;16;1;64;53;0;0;0.65000000000000002;0.34999999999999998;0.0;0.0;29;17;81;46;0.10000000000000001;0.01;0.44;0.45000000000000001;0;4.533730621995346;43;61;28;1;
2019_03_18 11:43;41;2;0;timed;39;149;0;14;89;73;53;0.93999999999999995;0.01;0.01;0.040000000000000001;97;45;6;13;0.34000000000000002;0.01;0.40999999999999998;0.23999999999999999;1;8.449732646389748;43;61;28;1;
2019_03_18 11:43;41;2;0;timed;40;80;1;47;39;45;10;0.13;0.76000000000000001;0.059999999999999998;0.050000000000000003;2;87;0;0;0.48999999999999999;0.51000000000000001;0.0;0.0;0;3.149892173363696;43;61;28;1;
2019_03_18 11:43;41;2;0;timed;41;22;1;32;55;0;0;0.39000000000000001;0.60999999999999999;0.0;0.0;93;72;59;22;0.20000000000000001;0.11;0.14000000000000001;0.55000000000000004;0;5.166485351997835;43;61;28;1;
2019_03_18 11:43;41;2;0;timed;42;103;1;38;49;89;50;0.89000000000000001;0.070000000000000007;0.01;0.029999999999999999;6;64;99;27;0.70999999999999996;0.17999999999999999;0.059999999999999998;0.050000000000000003;0;2.9664518686513475;43;61;28;1;
2019_03_18 11:43;41;2;0;timed;43;95;0;93;88;68;85;0.83999999999999997;0.14000000000000001;0.01;0.01;2;82;0;0;0.41999999999999998;0.57999999999999996;0.0;0.0;0;3.333544475119197;43;61;28;1;
2019_03_18 11:43;41;2;0;timed;44;5;1;70;5;0;0;0.98999999999999999;0.01;0.0;0.0;92;87;47;1;0.44;0.02;0.16;0.38;0;4.633207589045924;43;61;28;1;
2019_03_18 11:43;41;2;0;timed;45;101;0;30;96;61;45;0.65000000000000002;0.14000000000000001;0.11;0.10000000000000001;3;98;63;89;0.75;0.19;0.040000000000000001;0.02;0;4.583217659706861;43;61;28;1;
2019_03_18 11:43;41;2;0;timed;46;145;1;91;89;90;74;0.57999999999999996;0.29999999999999999;0.11;0.010000000000000101;2;75;84;39;0.32000000000000001;0.27000000000000002;0.39000000000000001;0.0199999999999999;0;6.250030147839425;43;61;28;1;
2019_03_18 11:43;41;2;0;timed;47;132;0;27;70;21;19;0.64000000000000001;0.23000000000000001;0.029999999999999999;0.10000000000000001;11;85;55;6;0.39000000000000001;0.46999999999999997;0.029999999999999999;0.11;1;5.3498576637084625;43;61;28;1;
2019_03_18 11:43;41;2;0;timed;48;112;1;70;44;98;64;0.02;0.75;0.12;0.11;33;2;63;85;0.23999999999999999;0.31;0.080000000000000002;0.37;0;8.19977209515855;43;61;28;1;
2019_03_18 11:43;41;2;0;timed;49;9;0;61;69;0;0;0.93999999999999995;0.060000000000000102;0.0;0.0;18;93;72;16;0.40999999999999998;0.34999999999999998;0.089999999999999997;0.14999999999999999;0;4.466584647436321;43;61;28;1;
2019_03_18 11:43;41;2;0;timed;50;37;1;14;98;0;0;0.93000000000000005;0.070000000000000007;0.0;0.0;41;2;87;66;0.17999999999999999;0.48999999999999999;0.32000000000000001;0.010000000000000101;0;3.8332519769282953;43;61;28;1;
2019_03_18 11:43;41;2;0;timed;51;130;0;37;79;23;95;0.94999999999999996;0.029999999999999999;0.01;0.01;94;4;58;49;0.46000000000000002;0.5;0.029999999999999999;0.01;0;4.083516893053456;43;61;28;1;
2019_03_18 11:43;41;2;0;timed;52;105;0;49;74;63;58;0.84999999999999998;0.080000000000000002;0.02;0.050000000000000003;97;5;86;8;0.25;0.52000000000000002;0.070000000000000007;0.16;0;4.0165434667705995;43;61;28;1;
2019_03_18 11:43;41;2;0;timed;53;8;0;50;36;0;0;0.080000000000000002;0.92000000000000004;0.0;0.0;6;19;84;29;0.54000000000000004;0.070000000000000007;0.17000000000000001;0.22;0;3.900011481837282;43;61;28;1;
2019_03_18 11:43;41;2;0;timed;54;117;0;65;85;92;41;0.23000000000000001;0.17999999999999999;0.54000000000000004;0.050000000000000003;99;93;10;13;0.64000000000000001;0.16;0.01;0.19;1;7.116488687503079;43;61;28;1;
2019_03_18 11:43;41;2;0;timed;55;52;0;71;51;10;54;0.22;0.12;0.19;0.46999999999999997;91;1;0;0;0.29999999999999999;0.69999999999999996;0.0;0.0;0;3.5999933289876935;43;61;28;1;
2019_03_18 11:43;41;2;0;timed;56;61;1;43;18;39;70;0.75;0.089999999999999997;0.089999999999999997;0.070000000000000007;16;66;0;0;0.64000000000000001;0.35999999999999999;0.0;0.0;0;6.466622492596798;43;61;28;1;
2019_03_18 11:43;41;2;0;timed;57;82;1;78;66;30;27;0.28999999999999998;0.58999999999999997;0.080000000000000002;0.040000000000000001;90;6;0;0;0.82999999999999996;0.17000000000000001;0.0;0.0;1;7.033165189637657;43;61;28;1;
2019_03_18 11:43;41;2;0;timed;58;140;1;36;32;26;27;0.39000000000000001;0.14999999999999999;0.19;0.27000000000000002;44;3;99;25;0.29999999999999999;0.34000000000000002;0.34000000000000002;0.0199999999999999;1;5.483276929076965;43;61;28;1;
2019_03_18 11:43;41;2;0;timed;59;51;1;52;23;43;16;0.60999999999999999;0.20999999999999999;0.01;0.17000000000000001;92;7;0;0;0.14999999999999999;0.84999999999999998;0.0;0.0;0;3.133188345742383;43;61;28;1;
2019_03_18 11:43;41;2;0;timed;60;6;1;9;51;0;0;0.14999999999999999;0.84999999999999998;0.0;0.0;6;40;50;73;0.42999999999999999;0.26000000000000001;0.059999999999999998;0.25;0;3.7331178511140024;43;61;28;1;
2019_03_18 11:43;41;2;0;timed;61;21;0;64;28;0;0;0.080000000000000002;0.92000000000000004;0.0;0.0;50;1;88;13;0.57999999999999996;0.13;0.02;0.27000000000000002;1;5.583301368069442;43;61;28;1;
2019_03_18 11:43;41;2;0;timed;62;104;1;55;85;93;3;0.87;0.02;0.089999999999999997;0.02;1;2;90;8;0.35999999999999999;0.070000000000000007;0.40000000000000002;0.17000000000000001;0;4.449843936819889;43;61;28;1;
2019_03_18 11:43;41;2;0;timed;63;99;0;8;24;15;73;0.56000000000000005;0.35999999999999999;0.070000000000000007;0.0099999999999999499;88;12;0;0;0.52000000000000002;0.47999999999999998;0.0;0.0;1;6.516454947581224;43;61;28;1;
2019_03_18 11:43;41;2;0;timed;64;146;0;25;5;64;35;0.94999999999999996;0.02;0.01;0.02;47;97;12;79;0.20999999999999999;0.029999999999999999;0.02;0.73999999999999999;1;5.083098992676241;43;61;28;1;
2019_03_18 11:43;41;2;0;timed;65;147;1;39;43;76;28;0.14000000000000001;0.10000000000000001;0.10000000000000001;0.66000000000000003;6;31;68;85;0.27000000000000002;0.20000000000000001;0.22;0.31;0;8.23310790873984;43;61;28;1;
2019_03_18 11:43;41;2;0;timed;66;119;0;60;58;11;18;0.25;0.72999999999999998;0.01;0.01;96;23;42;85;0.44;0.48999999999999999;0.059999999999999998;0.010000000000000101;0;4.000020205467081;43;61;28;1;
2019_03_18 11:43;41;2;0;timed;67;64;1;48;39;34;19;0.46000000000000002;0.5;0.02;0.02;13;92;0;0;0.68999999999999995;0.31;0.0;0.0;1;7.816695039846309;43;61;28;1;
2019_03_18 11:43;41;2;0;timed;68;43;0;60;83;0;0;0.23000000000000001;0.77000000000000002;0.0;0.0;72;5;70;12;0.29999999999999999;0.40999999999999998;0.12;0.17000000000000001;0;4.89993386718379;43;61;28;1;
2019_03_18 11:43;41;2;0;timed;69;116;0;53;65;43;99;0.56999999999999995;0.37;0.050000000000000003;0.010000000000000101;57;72;11;87;0.67000000000000004;0.13;0.14999999999999999;0.050000000000000003;1;6.183221893232258;43;61;28;1;
2019_03_18 11:43;41;2;0;timed;70;79;0;52;46;29;22;0.17999999999999999;0.51000000000000001;0.23999999999999999;0.070000000000000104;93;14;0;0;0.45000000000000001;0.55000000000000004;0.0;0.0;0;3.4831996351458656;43;61;28;1;
2019_03_18 11:43;41;2;0;timed;71;115;1;50;28;61;79;0.83999999999999997;0.040000000000000001;0.059999999999999998;0.059999999999999998;1;26;97;55;0.45000000000000001;0.080000000000000002;0.40999999999999998;0.060000000000000102;0;5.983168525142901;43;61;28;1;
2019_03_18 11:43;41;2;0;timed;72;111;1;51;36;48;27;0.93000000000000005;0.01;0.01;0.049999999999999899;31;78;30;53;0.55000000000000004;0.16;0.029999999999999999;0.26000000000000001;0;3.2166786188954575;43;61;28;1;
2019_03_18 11:43;41;2;0;timed;73;110;0;47;44;23;52;0.13;0.27000000000000002;0.040000000000000001;0.56000000000000005;99;2;30;22;0.28999999999999998;0.5;0.11;0.10000000000000001;0;4.183176992195513;43;61;28;1;
2019_03_18 11:43;41;2;0;timed;74;88;0;77;13;12;7;0.12;0.19;0.66000000000000003;0.029999999999999898;94;2;0;0;0.40999999999999998;0.58999999999999997;0.0;0.0;0;6.033331964921672;43;61;28;1;
2019_03_18 11:43;41;2;0;timed;75;127;0;89;26;62;79;0.02;0.28999999999999998;0.53000000000000003;0.16;96;6;60;13;0.53000000000000003;0.25;0.17000000000000001;0.050000000000000003;0;8.366559246278484;43;61;28;1;
2019_03_18 11:43;41;3;0;control;1;107;1;52;48;13;63;0.68000000000000005;0.19;0.050000000000000003;0.079999999999999905;54;91;33;3;0.19;0.17999999999999999;0.33000000000000002;0.29999999999999999;0;17.058972702734536;43;61;28;1;
2019_03_18 11:43;41;3;0;control;2;25;1;50;53;0;0;0.82999999999999996;0.17000000000000001;0.0;0.0;83;16;97;4;0.45000000000000001;0.29999999999999999;0.11;0.14000000000000001;0;3.5334224084399466;43;61;28;1;
2019_03_18 11:43;41;3;0;control;3;141;0;93;28;60;91;0.81999999999999995;0.10000000000000001;0.01;0.070000000000000007;14;85;7;89;0.45000000000000001;0.070000000000000007;0.23999999999999999;0.23999999999999999;0;2.7498656176067016;43;61;28;1;
2019_03_18 11:43;41;3;0;control;4;74;1;66;47;52;44;0.41999999999999998;0.26000000000000001;0.17999999999999999;0.14000000000000001;17;99;0;0;0.47999999999999998;0.52000000000000002;0.0;0.0;1;3.116517552456571;43;61;28;1;
2019_03_18 11:43;41;3;0;control;5;90;0;27;44;50;72;0.68000000000000005;0.28999999999999998;0.02;0.0099999999999999707;6;96;0;0;0.46999999999999997;0.53000000000000003;0.0;0.0;0;3.9165706639705604;43;61;28;1;
2019_03_18 11:43;41;3;0;control;6;62;0;12;45;16;50;0.20999999999999999;0.76000000000000001;0.02;0.01;92;15;0;0;0.20999999999999999;0.79000000000000004;0.0;0.0;0;3.4999146880290937;43;61;28;1;
2019_03_18 11:43;41;3;0;control;7;36;1;70;17;0;0;0.33000000000000002;0.67000000000000004;0.0;0.0;84;1;12;88;0.22;0.27000000000000002;0.14000000000000001;0.37;1;4.799899165096576;43;61;28;1;
2019_03_18 11:43;41;3;0;control;8;15;1;77;81;0;0;0.28000000000000003;0.71999999999999997;0.0;0.0;98;14;87;18;0.55000000000000004;0.23000000000000001;0.16;0.059999999999999901;0;3.816455140015023;43;61;28;1;
2019_03_18 11:43;41;3;0;control;9;10;1;45;62;0;0;0.059999999999999998;0.93999999999999995;0.0;0.0;17;99;28;67;0.58999999999999997;0.34000000000000002;0.01;0.059999999999999998;0;5.299921615616768;43;61;28;1;
2019_03_18 11:43;41;3;0;control;10;72;1;63;82;51;61;0.01;0.96999999999999997;0.01;0.01;92;12;0;0;0.89000000000000001;0.11;0.0;0.0;0;3.1667400050282595;43;61;28;1;
2019_03_18 11:43;41;3;0;control;11;43;1;60;83;0;0;0.23000000000000001;0.77000000000000002;0.0;0.0;72;5;70;12;0.29999999999999999;0.40999999999999998;0.12;0.17000000000000001;0;5.133333311950992;43;61;28;1;
2019_03_18 11:43;41;3;0;control;12;145;1;91;89;90;74;0.57999999999999996;0.29999999999999999;0.11;0.010000000000000101;2;75;84;39;0.32000000000000001;0.27000000000000002;0.39000000000000001;0.0199999999999999;0;8.0664378210422;43;61;28;1;
2019_03_18 11:43;41;3;0;control;13;131;1;83;41;81;88;0.23999999999999999;0.58999999999999997;0.10000000000000001;0.070000000000000007;82;97;4;17;0.26000000000000001;0.46999999999999997;0.11;0.16;0;2.8165596952894703;43;61;28;1;
2019_03_18 11:43;41;3;0;control;14;142;1;98;65;64;84;0.88;0.070000000000000007;0.01;0.040000000000000001;5;68;60;16;0.46000000000000002;0.080000000000000002;0.27000000000000002;0.19;0;6.966622813319191;43;61;28;1;
2019_03_18 11:43;41;3;0;control;15;108;0;48;72;39;70;0.14000000000000001;0.66000000000000003;0.02;0.17999999999999999;81;44;98;8;0.59999999999999998;0.029999999999999999;0.050000000000000003;0.32000000000000001;1;3.383409322994339;43;61;28;1;
2019_03_18 11:43;41;3;0;control;16;51;1;52;23;43;16;0.60999999999999999;0.20999999999999999;0.01;0.17000000000000001;92;7;0;0;0.14999999999999999;0.84999999999999998;0.0;0.0;0;2.666465467253147;43;61;28;1;
2019_03_18 11:43;41;3;0;control;17;101;0;30;96;61;45;0.65000000000000002;0.14000000000000001;0.11;0.10000000000000001;3;98;63;89;0.75;0.19;0.040000000000000001;0.02;0;3.8832123998708994;43;61;28;1;
2019_03_18 11:43;41;3;0;control;18;69;0;54;34;64;49;0.34000000000000002;0.25;0.20999999999999999;0.20000000000000001;14;98;0;0;0.62;0.38;0.0;0.0;0;6.733374749195718;43;61;28;1;
2019_03_18 11:43;41;3;0;control;19;17;0;81;52;0;0;0.059999999999999998;0.93999999999999995;0.0;0.0;34;3;69;41;0.01;0.22;0.75;0.02;0;7.116627239278387;43;61;28;1;
2019_03_18 11:43;41;3;0;control;20;71;0;68;55;36;51;0.20000000000000001;0.75;0.02;0.029999999999999999;38;81;0;0;0.52000000000000002;0.47999999999999998;0.0;0.0;0;3.583170192894613;43;61;28;1;
2019_03_18 11:43;41;3;0;control;21;81;1;67;38;52;65;0.27000000000000002;0.35999999999999999;0.01;0.35999999999999999;2;77;0;0;0.14000000000000001;0.85999999999999999;0.0;0.0;1;3.7331880891670153;43;61;28;1;
2019_03_18 11:43;41;3;0;control;22;139;0;44;31;16;8;0.79000000000000004;0.070000000000000007;0.13;0.0099999999999999499;92;58;2;88;0.55000000000000004;0.070000000000000007;0.34000000000000002;0.039999999999999897;1;2.966730255087896;43;61;28;1;
2019_03_18 11:43;41;3;0;control;23;78;0;74;36;34;3;0.14999999999999999;0.64000000000000001;0.13;0.080000000000000002;1;83;0;0;0.41999999999999998;0.57999999999999996;0.0;0.0;1;3.5165306379021786;43;61;28;1;
2019_03_18 11:43;41;3;0;control;24;150;0;25;21;78;38;0.84999999999999998;0.059999999999999998;0.050000000000000003;0.040000000000000001;31;43;64;95;0.059999999999999998;0.45000000000000001;0.13;0.35999999999999999;0;4.316543017761433;43;61;28;1;
2019_03_18 11:43;41;3;0;control;25;8;0;50;36;0;0;0.080000000000000002;0.92000000000000004;0.0;0.0;6;19;84;29;0.54000000000000004;0.070000000000000007;0.17000000000000001;0.22;0;3.2664116501509852;43;61;28;1;
2019_03_18 11:43;41;3;0;control;26;23;1;54;40;0;0;0.93000000000000005;0.070000000000000007;0.0;0.0;36;23;71;86;0.02;0.41999999999999998;0.19;0.37;0;3.049890184889591;43;61;28;1;
2019_03_18 11:43;41;3;0;control;27;30;1;33;30;0;0;0.71999999999999997;0.28000000000000003;0.0;0.0;9;88;1;14;0.55000000000000004;0.39000000000000001;0.01;0.049999999999999899;0;3.4998264895602915;43;61;28;1;
2019_03_18 11:43;41;3;0;control;28;138;1;8;20;43;51;0.38;0.5;0.02;0.10000000000000001;72;82;70;1;0.39000000000000001;0.050000000000000003;0.070000000000000007;0.48999999999999999;0;3.4166970283204137;43;61;28;1;
2019_03_18 11:43;41;3;0;control;29;109;0;75;28;16;56;0.19;0.070000000000000007;0.059999999999999998;0.68000000000000005;3;50;98;44;0.5;0.02;0.34999999999999998;0.13;0;3.783179942834977;43;61;28;1;
2019_03_18 11:43;41;3;0;control;30;67;1;44;42;8;89;0.88;0.070000000000000007;0.029999999999999999;0.02;10;63;0;0;0.39000000000000001;0.60999999999999999;0.0;0.0;0;3.1500586279253184;43;61;28;1;
2019_03_18 11:43;41;3;0;control;31;59;1;56;47;83;90;0.31;0.12;0.54000000000000004;0.029999999999999898;10;98;0;0;0.46999999999999997;0.53000000000000003;0.0;0.0;0;3.7999152011816477;43;61;28;1;
2019_03_18 11:43;41;3;0;control;32;47;0;2;40;0;0;0.45000000000000001;0.55000000000000004;0.0;0.0;93;89;11;56;0.58999999999999997;0.070000000000000007;0.28000000000000003;0.059999999999999998;1;2.9000560621516343;43;61;28;1;
2019_03_18 11:43;41;3;0;control;33;122;1;35;58;25;31;0.81999999999999995;0.070000000000000007;0.080000000000000002;0.029999999999999999;18;64;68;89;0.63;0.17000000000000001;0.11;0.089999999999999997;1;2.516582274096436;43;61;28;1;
2019_03_18 11:43;41;3;0;control;34;27;1;44;26;0;0;0.35999999999999999;0.64000000000000001;0.0;0.0;63;10;3;5;0.58999999999999997;0.19;0.14999999999999999;0.070000000000000007;0;3.1165701508161874;43;61;28;1;
2019_03_18 11:43;41;3;0;control;35;126;0;16;55;51;42;0.68999999999999995;0.23999999999999999;0.01;0.060000000000000102;66;4;1;5;0.46999999999999997;0.38;0.089999999999999997;0.059999999999999998;0;2.550039641202602;43;61;28;1;
2019_03_18 11:43;41;3;0;control;36;144;1;99;93;90;71;0.65000000000000002;0.32000000000000001;0.01;0.02;97;14;48;73;0.23000000000000001;0.46000000000000002;0.13;0.17999999999999999;0;3.7998972407676774;43;61;28;1;
2019_03_18 11:43;41;3;0;control;37;96;0;51;54;39;7;0.17000000000000001;0.26000000000000001;0.10000000000000001;0.46999999999999997;24;96;0;0;0.28000000000000003;0.71999999999999997;0.0;0.0;1;5.733191617104239;43;61;28;1;
2019_03_18 11:43;41;3;0;control;38;58;1;37;58;76;34;0.20999999999999999;0.57999999999999996;0.19;0.020000000000000101;86;5;0;0;0.47999999999999998;0.52000000000000002;0.0;0.0;0;3.5832279228015977;43;61;28;1;
2019_03_18 11:43;41;3;0;control;39;94;1;84;86;93;39;0.78000000000000003;0.20000000000000001;0.01;0.0099999999999999603;9;83;0;0;0.46999999999999997;0.53000000000000003;0.0;0.0;0;2.949860293627353;43;61;28;1;
2019_03_18 11:43;41;3;0;control;40;82;1;78;66;30;27;0.28999999999999998;0.58999999999999997;0.080000000000000002;0.040000000000000001;90;6;0;0;0.82999999999999996;0.17000000000000001;0.0;0.0;0;2.9000259143140283;43;61;28;1;
2019_03_18 11:43;41;3;0;control;41;38;1;40;70;0;0;0.53000000000000003;0.46999999999999997;0.0;0.0;97;90;6;96;0.56999999999999995;0.070000000000000007;0.27000000000000002;0.089999999999999997;1;3.483172694523091;43;61;28;1;
2019_03_18 11:43;41;3;0;control;42;91;1;74;81;86;48;0.93000000000000005;0.02;0.01;0.039999999999999897;7;64;0;0;0.13;0.87;0.0;0.0;0;3.2832264474818658;43;61;28;1;
2019_03_18 11:43;41;3;0;control;43;9;0;61;69;0;0;0.93999999999999995;0.060000000000000102;0.0;0.0;18;93;72;16;0.40999999999999998;0.34999999999999998;0.089999999999999997;0.14999999999999999;0;3.0502041714353254;43;61;28;1;
2019_03_18 11:43;41;3;0;control;44;147;1;39;43;76;28;0.14000000000000001;0.10000000000000001;0.10000000000000001;0.66000000000000003;6;31;68;85;0.27000000000000002;0.20000000000000001;0.22;0.31;1;11.966558348256513;43;61;28;1;
2019_03_18 11:43;41;3;0;control;45;120;0;64;40;48;51;0.19;0.02;0.070000000000000007;0.71999999999999997;97;9;79;94;0.23000000000000001;0.54000000000000004;0.01;0.22;0;4.733132283590749;43;61;28;1;
2019_03_18 11:43;41;3;0;control;46;22;0;32;55;0;0;0.39000000000000001;0.60999999999999999;0.0;0.0;93;72;59;22;0.20000000000000001;0.11;0.14000000000000001;0.55000000000000004;1;2.6666973490428063;43;61;28;1;
2019_03_18 11:43;41;3;0;control;47;48;0;13;32;0;0;0.90000000000000002;0.10000000000000001;0.0;0.0;24;99;84;94;0.62;0.14999999999999999;0.20000000000000001;0.029999999999999999;1;5.633081545416644;43;61;28;1;
2019_03_18 11:43;41;3;0;control;48;12;0;53;68;0;0;0.31;0.68999999999999995;0.0;0.0;69;54;97;29;0.25;0.20999999999999999;0.20000000000000001;0.34000000000000002;1;10.066471176100094;43;61;28;1;
2019_03_18 11:43;41;3;0;control;49;102;0;40;56;53;17;0.28000000000000003;0.26000000000000001;0.14999999999999999;0.31;1;76;29;62;0.68000000000000005;0.23000000000000001;0.050000000000000003;0.039999999999999897;0;2.166729421212949;43;61;28;1;
2019_03_18 11:43;41;3;0;control;50;80;1;47;39;45;10;0.13;0.76000000000000001;0.059999999999999998;0.050000000000000003;2;87;0;0;0.48999999999999999;0.51000000000000001;0.0;0.0;0;2.7998577919988747;43;61;28;1;
2019_03_18 11:43;41;3;0;control;51;26;1;76;41;0;0;0.57999999999999996;0.41999999999999998;0.0;0.0;61;79;84;2;0.13;0.029999999999999999;0.67000000000000004;0.17000000000000001;1;6.74984124275943;43;61;28;1;
2019_03_18 11:43;41;3;0;control;52;11;1;17;36;0;0;0.14000000000000001;0.85999999999999999;0.0;0.0;19;41;34;95;0.88;0.02;0.050000000000000003;0.050000000000000003;0;2.8665938842204923;43;61;28;1;
2019_03_18 11:43;41;3;0;control;53;117;1;65;85;92;41;0.23000000000000001;0.17999999999999999;0.54000000000000004;0.050000000000000003;99;93;10;13;0.64000000000000001;0.16;0.01;0.19;0;9.00029666757473;43;61;28;1;
2019_03_18 11:43;41;3;0;control;54;83;1;17;12;7;41;0.65000000000000002;0.19;0.089999999999999997;0.070000000000000007;6;84;0;0;0.72999999999999998;0.27000000000000002;0.0;0.0;0;4.100071905806544;43;61;28;1;
2019_03_18 11:43;41;3;0;control;55;64;1;48;39;34;19;0.46000000000000002;0.5;0.02;0.02;13;92;0;0;0.68999999999999995;0.31;0.0;0.0;0;5.466510240003117;43;61;28;1;
2019_03_18 11:43;41;3;0;control;56;46;1;5;19;0;0;0.32000000000000001;0.68000000000000005;0.0;0.0;88;38;97;66;0.60999999999999999;0.20000000000000001;0.040000000000000001;0.14999999999999999;1;4.233321509393136;43;61;28;1;
2019_03_18 11:43;41;3;0;control;57;114;1;57;39;79;97;0.77000000000000002;0.02;0.13;0.080000000000000002;92;36;6;1;0.54000000000000004;0.12;0.13;0.20999999999999999;0;9.583232733626573;43;61;28;1;
2019_03_18 11:43;41;3;0;control;58;148;1;37;63;55;10;0.72999999999999998;0.070000000000000007;0.029999999999999999;0.17000000000000001;80;14;23;70;0.46999999999999997;0.10000000000000001;0.23000000000000001;0.20000000000000001;1;5.966645584559956;43;61;28;1;
2019_03_18 11:43;41;3;0;control;59;63;0;56;78;42;36;0.93000000000000005;0.040000000000000001;0.01;0.0199999999999999;2;72;0;0;0.32000000000000001;0.68000000000000005;0.0;0.0;0;3.9665557824828284;43;61;28;1;
2019_03_18 11:43;41;3;0;control;60;136;0;29;67;14;75;0.46000000000000002;0.29999999999999999;0.20999999999999999;0.0300000000000001;70;86;1;85;0.31;0.39000000000000001;0.27000000000000002;0.029999999999999898;0;6.416644750685009;43;61;28;1;
2019_03_18 11:43;41;3;0;control;61;129;0;12;29;81;36;0.17999999999999999;0.79000000000000004;0.01;0.02;5;19;95;92;0.47999999999999998;0.26000000000000001;0.13;0.13;0;5.73312490699027;43;61;28;1;
2019_03_18 11:43;41;3;0;control;62;104;1;55;85;93;3;0.87;0.02;0.089999999999999997;0.02;1;2;90;8;0.35999999999999999;0.070000000000000007;0.40000000000000002;0.17000000000000001;0;3.583192322692412;43;61;28;1;
2019_03_18 11:43;41;3;0;control;63;4;1;40;43;0;0;0.58999999999999997;0.40999999999999998;0.0;0.0;2;33;88;81;0.69999999999999996;0.14000000000000001;0.13;0.029999999999999999;0;3.8664736135851854;43;61;28;1;
2019_03_18 11:43;41;3;0;control;64;86;0;56;30;57;88;0.20000000000000001;0.35999999999999999;0.080000000000000002;0.35999999999999999;98;2;0;0;0.77000000000000002;0.23000000000000001;0.0;0.0;0;3.583203227230115;43;61;28;1;
2019_03_18 11:43;41;3;0;control;65;2;0;59;32;0;0;0.080000000000000002;0.92000000000000004;0.0;0.0;33;38;85;1;0.28999999999999998;0.050000000000000003;0.070000000000000007;0.58999999999999997;1;3.349839703294492;43;61;28;1;
2019_03_18 11:43;41;3;0;control;66;97;0;17;33;32;74;0.94999999999999996;0.01;0.029999999999999999;0.01;76;23;0;0;0.33000000000000002;0.67000000000000004;0.0;0.0;1;4.8499782550698;43;61;28;1;
2019_03_18 11:43;41;3;0;control;67;103;1;38;49;89;50;0.89000000000000001;0.070000000000000007;0.01;0.029999999999999999;6;64;99;27;0.70999999999999996;0.17999999999999999;0.059999999999999998;0.050000000000000003;0;3.1832603798375203;43;61;28;1;
2019_03_18 11:43;41;3;0;control;68;128;1;70;49;27;54;0.27000000000000002;0.53000000000000003;0.02;0.17999999999999999;72;97;6;20;0.29999999999999999;0.39000000000000001;0.22;0.0899999999999999;0;4.949904232498739;43;61;28;1;
2019_03_18 11:43;41;3;0;control;69;73;0;65;68;70;47;0.25;0.23000000000000001;0.20999999999999999;0.31;27;95;0;0;0.45000000000000001;0.55000000000000004;0.0;0.0;1;4.983252233505482;43;61;28;1;
2019_03_18 11:43;41;3;0;control;70;134;0;57;48;50;55;0.02;0.62;0.17999999999999999;0.17999999999999999;80;96;15;18;0.23999999999999999;0.35999999999999999;0.33000000000000002;0.070000000000000007;1;7.883292580296256;43;61;28;1;
2019_03_18 11:43;41;3;0;control;71;112;1;70;44;98;64;0.02;0.75;0.12;0.11;33;2;63;85;0.23999999999999999;0.31;0.080000000000000002;0.37;0;7.3665172317359975;43;61;28;1;
2019_03_18 11:43;41;3;0;control;72;87;1;10;30;63;4;0.56999999999999995;0.12;0.16;0.14999999999999999;86;2;0;0;0.42999999999999999;0.56999999999999995;0.0;0.0;0;4.89989153192073;43;61;28;1;
2019_03_18 11:43;41;3;0;control;73;19;1;22;53;0;0;0.13;0.87;0.0;0.0;4;93;96;65;0.46999999999999997;0.059999999999999998;0.26000000000000001;0.20999999999999999;0;3.5998765862896107;43;61;28;1;
2019_03_18 11:43;41;3;0;control;74;116;1;53;65;43;99;0.56999999999999995;0.37;0.050000000000000003;0.010000000000000101;57;72;11;87;0.67000000000000004;0.13;0.14999999999999999;0.050000000000000003;0;5.299879280351888;43;61;28;1;
2019_03_18 11:43;41;3;0;control;75;50;1;15;20;0;0;0.82999999999999996;0.17000000000000001;0.0;0.0;97;18;88;87;0.56999999999999995;0.39000000000000001;0.01;0.029999999999999999;1;3.4333633315036423;43;61;28;1;
2019_03_18 11:43;41;4;0;timed;1;36;0;70;17;0;0;0.33000000000000002;0.67000000000000004;0.0;0.0;84;1;12;88;0.22;0.27000000000000002;0.14000000000000001;0.37;0;2.415900676336605;43;61;28;1;
2019_03_18 11:43;41;4;0;timed;2;2;0;59;32;0;0;0.080000000000000002;0.92000000000000004;0.0;0.0;33;38;85;1;0.28999999999999998;0.050000000000000003;0.070000000000000007;0.58999999999999997;0;2.799913276852749;43;61;28;1;
2019_03_18 11:43;41;4;0;timed;3;24;1;35;27;0;0;0.070000000000000007;0.93000000000000005;0.0;0.0;62;3;81;95;0.35999999999999999;0.55000000000000004;0.01;0.080000000000000002;0;3.6665321773671167;43;61;28;1;
2019_03_18 11:43;41;4;0;timed;4;136;1;29;67;14;75;0.46000000000000002;0.29999999999999999;0.20999999999999999;0.0300000000000001;70;86;1;85;0.31;0.39000000000000001;0.27000000000000002;0.029999999999999898;1;3.4500674798455293;43;61;28;1;
2019_03_18 11:43;41;4;0;timed;5;17;1;81;52;0;0;0.059999999999999998;0.93999999999999995;0.0;0.0;34;3;69;41;0.01;0.22;0.75;0.02;0;4.383219455747167;43;61;28;1;
2019_03_18 11:43;41;4;0;timed;6;141;1;93;28;60;91;0.81999999999999995;0.10000000000000001;0.01;0.070000000000000007;14;85;7;89;0.45000000000000001;0.070000000000000007;0.23999999999999999;0.23999999999999999;0;4.333197133517388;43;61;28;1;
2019_03_18 11:43;41;4;0;timed;7;29;0;44;51;0;0;0.78000000000000003;0.22;0.0;0.0;74;1;68;82;0.69999999999999996;0.28000000000000003;0.01;0.01;0;5.59999300826712;43;61;28;1;
2019_03_18 11:43;41;4;0;timed;8;143;1;88;44;56;73;0.95999999999999996;0.02;0.01;0.01;20;3;87;32;0.19;0.40000000000000002;0.28000000000000003;0.13;0;2.333443447783793;43;61;28;1;
2019_03_18 11:43;41;4;0;timed;9;33;1;27;70;0;0;0.88;0.12;0.0;0.0;93;3;77;16;0.080000000000000002;0.40000000000000002;0.5;0.02;1;5.71652852113948;43;61;28;1;
2019_03_18 11:43;41;4;0;timed;10;109;1;75;28;16;56;0.19;0.070000000000000007;0.059999999999999998;0.68000000000000005;3;50;98;44;0.5;0.02;0.34999999999999998;0.13;0;3.6332178521388414;43;61;28;1;
2019_03_18 11:43;41;4;0;timed;11;66;0;89;23;27;15;0.070000000000000007;0.54000000000000004;0.17000000000000001;0.22;9;73;0;0;0.72999999999999998;0.27000000000000002;0.0;0.0;0;3.73318648555869;43;61;28;1;
2019_03_18 11:43;41;4;0;timed;12;92;0;90;86;65;94;0.16;0.34000000000000002;0.28000000000000003;0.22;79;22;0;0;0.35999999999999999;0.64000000000000001;0.0;0.0;0;5.133353517419891;43;61;28;1;
2019_03_18 11:43;41;4;0;timed;13;148;0;37;63;55;10;0.72999999999999998;0.070000000000000007;0.029999999999999999;0.17000000000000001;80;14;23;70;0.46999999999999997;0.10000000000000001;0.23000000000000001;0.20000000000000001;1;4.1002656217133335;43;61;28;1;
2019_03_18 11:43;41;4;0;timed;14;124;0;37;65;15;41;0.17999999999999999;0.45000000000000001;0.02;0.34999999999999998;40;7;98;30;0.070000000000000007;0.45000000000000001;0.45000000000000001;0.029999999999999898;0;7.083160571242843;43;61;28;1;
2019_03_18 11:43;41;4;0;timed;15;75;0;67;80;36;81;0.81999999999999995;0.080000000000000002;0.059999999999999998;0.040000000000000001;3;97;0;0;0.32000000000000001;0.68000000000000005;0.0;0.0;0;3.033465705870185;43;61;28;1;
2019_03_18 11:43;41;4;0;timed;16;135;1;48;60;41;51;0.14000000000000001;0.40000000000000002;0.089999999999999997;0.37;94;1;85;65;0.64000000000000001;0.29999999999999999;0.01;0.050000000000000003;1;1.9667469326177525;43;61;28;1;
2019_03_18 11:43;41;4;0;timed;17;123;1;26;24;51;92;0.72999999999999998;0.16;0.070000000000000007;0.040000000000000001;6;90;82;49;0.64000000000000001;0.25;0.050000000000000003;0.059999999999999998;0;2.4832086153546697;43;61;28;1;
2019_03_18 11:43;41;4;0;timed;18;26;0;76;41;0;0;0.57999999999999996;0.41999999999999998;0.0;0.0;61;79;84;2;0.13;0.029999999999999999;0.67000000000000004;0.17000000000000001;1;3.7998600370501663;43;61;28;1;
2019_03_18 11:43;41;4;0;timed;19;62;0;12;45;16;50;0.20999999999999999;0.76000000000000001;0.02;0.01;92;15;0;0;0.20999999999999999;0.79000000000000004;0.0;0.0;0;4.8332654472415015;43;61;28;1;
2019_03_18 11:43;41;4;0;timed;20;41;0;99;40;0;0;0.89000000000000001;0.11;0.0;0.0;1;67;52;46;0.51000000000000001;0.38;0.029999999999999999;0.080000000000000002;0;3.000033675778468;43;61;28;1;
2019_03_18 11:43;41;4;0;timed;21;19;1;22;53;0;0;0.13;0.87;0.0;0.0;4;93;96;65;0.46999999999999997;0.059999999999999998;0.26000000000000001;0.20999999999999999;0;3.099886207941381;43;61;28;1;
2019_03_18 11:43;41;4;0;timed;22;15;0;77;81;0;0;0.28000000000000003;0.71999999999999997;0.0;0.0;98;14;87;18;0.55000000000000004;0.23000000000000001;0.16;0.059999999999999901;0;3.9498843477558694;43;61;28;1;
2019_03_18 11:43;41;4;0;timed;23;120;0;64;40;48;51;0.19;0.02;0.070000000000000007;0.71999999999999997;97;9;79;94;0.23000000000000001;0.54000000000000004;0.01;0.22;0;3.7999155219040404;43;61;28;1;
2019_03_18 11:43;41;4;0;timed;24;10;0;45;62;0;0;0.059999999999999998;0.93999999999999995;0.0;0.0;17;99;28;67;0.58999999999999997;0.34000000000000002;0.01;0.059999999999999998;0;3.63328552441817;43;61;28;1;
2019_03_18 11:43;41;4;0;timed;25;31;0;10;59;0;0;0.23999999999999999;0.76000000000000001;0.0;0.0;1;79;53;73;0.23000000000000001;0.58999999999999997;0.050000000000000003;0.13;1;3.099907375572002;43;61;28;1;
2019_03_18 11:43;41;4;0;timed;26;60;1;64;59;57;96;0.83999999999999997;0.13;0.02;0.01;83;6;0;0;0.54000000000000004;0.46000000000000002;0.0;0.0;0;3.866471047809682;43;61;28;1;
2019_03_18 11:43;41;4;0;timed;27;144;1;99;93;90;71;0.65000000000000002;0.32000000000000001;0.01;0.02;97;14;48;73;0.23000000000000001;0.46000000000000002;0.13;0.17999999999999999;0;4.149854648925611;43;61;28;1;
2019_03_18 11:43;41;4;0;timed;28;98;1;27;10;31;79;0.23000000000000001;0.67000000000000004;0.070000000000000007;0.029999999999999999;25;99;0;0;0.38;0.62;0.0;0.0;1;8.566446801251004;43;61;28;1;
2019_03_18 11:43;41;4;0;timed;29;35;1;33;37;0;0;0.88;0.12;0.0;0.0;63;4;79;98;0.16;0.46000000000000002;0.17000000000000001;0.20999999999999999;0;7.1331312572801835;43;61;28;1;
2019_03_18 11:43;41;4;0;timed;30;114;1;57;39;79;97;0.77000000000000002;0.02;0.13;0.080000000000000002;92;36;6;1;0.54000000000000004;0.12;0.13;0.20999999999999999;1;3.900118923605987;43;61;28;1;
2019_03_18 11:43;41;4;0;timed;31;70;1;66;55;69;50;0.22;0.29999999999999999;0.29999999999999999;0.17999999999999999;2;90;0;0;0.34000000000000002;0.66000000000000003;0.0;0.0;0;2.533346397396599;43;61;28;1;
2019_03_18 11:43;41;4;0;timed;32;28;0;47;30;0;0;0.97999999999999998;0.02;0.0;0.0;55;48;77;13;0.070000000000000007;0.26000000000000001;0.42999999999999999;0.23999999999999999;1;2.4998819744141656;43;61;28;1;
2019_03_18 11:43;41;4;0;timed;33;97;0;17;33;32;74;0.94999999999999996;0.01;0.029999999999999999;0.01;76;23;0;0;0.33000000000000002;0.67000000000000004;0.0;0.0;0;5.749974342264977;43;61;28;1;
2019_03_18 11:43;41;4;0;timed;34;47;0;2;40;0;0;0.45000000000000001;0.55000000000000004;0.0;0.0;93;89;11;56;0.58999999999999997;0.070000000000000007;0.28000000000000003;0.059999999999999998;1;3.7000135985999805;43;61;28;1;
2019_03_18 11:43;41;4;0;timed;35;18;1;68;50;0;0;0.029999999999999999;0.96999999999999997;0.0;0.0;34;64;15;89;0.65000000000000002;0.029999999999999999;0.050000000000000003;0.27000000000000002;0;4.2165538581539295;43;61;28;1;
2019_03_18 11:43;41;4;0;timed;36;56;0;28;84;37;41;0.68000000000000005;0.28000000000000003;0.02;0.0199999999999999;6;95;0;0;0.72999999999999998;0.27000000000000002;0.0;0.0;0;2.9165552693284553;43;61;28;1;
2019_03_18 11:43;41;4;0;timed;37;96;1;51;54;39;7;0.17000000000000001;0.26000000000000001;0.10000000000000001;0.46999999999999997;24;96;0;0;0.28000000000000003;0.71999999999999997;0.0;0.0;1;3.450046632935482;43;61;28;1;
2019_03_18 11:43;41;4;0;timed;38;76;1;39;62;9;28;0.01;0.51000000000000001;0.26000000000000001;0.22;77;7;0;0;0.57999999999999996;0.41999999999999998;0.0;0.0;0;4.533155567985887;43;61;28;1;
2019_03_18 11:43;41;4;0;timed;39;87;0;10;30;63;4;0.56999999999999995;0.12;0.16;0.14999999999999999;86;2;0;0;0.42999999999999999;0.56999999999999995;0.0;0.0;0;2.3831796862559713;43;61;28;1;
2019_03_18 11:43;41;4;0;timed;40;45;1;97;87;0;0;0.71999999999999997;0.28000000000000003;0.0;0.0;96;11;14;4;0.25;0.029999999999999999;0.14000000000000001;0.57999999999999996;0;4.699755417630513;43;61;28;1;
2019_03_18 11:43;41;4;0;timed;41;23;0;54;40;0;0;0.93000000000000005;0.070000000000000007;0.0;0.0;36;23;71;86;0.02;0.41999999999999998;0.19;0.37;0;3.7331787882358185;43;61;28;1;
2019_03_18 11:43;41;4;0;timed;42;139;1;44;31;16;8;0.79000000000000004;0.070000000000000007;0.13;0.0099999999999999499;92;58;2;88;0.55000000000000004;0.070000000000000007;0.34000000000000002;0.039999999999999897;1;6.166514216951327;43;61;28;1;
2019_03_18 11:43;41;4;0;timed;43;74;0;66;47;52;44;0.41999999999999998;0.26000000000000001;0.17999999999999999;0.14000000000000001;17;99;0;0;0.47999999999999998;0.52000000000000002;0.0;0.0;0;4.966553537433356;43;61;28;1;
2019_03_18 11:43;41;4;0;timed;44;50;1;15;20;0;0;0.82999999999999996;0.17000000000000001;0.0;0.0;97;18;88;87;0.56999999999999995;0.39000000000000001;0.01;0.029999999999999999;1;4.63319123223846;43;61;28;1;
2019_03_18 11:43;41;4;0;timed;45;118;1;62;52;65;68;0.40999999999999998;0.44;0.10000000000000001;0.0500000000000001;79;20;14;37;0.56999999999999995;0.23999999999999999;0.14000000000000001;0.050000000000000003;0;5.28320463840646;43;61;28;1;
2019_03_18 11:43;41;4;0;timed;46;72;1;63;82;51;61;0.01;0.96999999999999997;0.01;0.01;92;12;0;0;0.89000000000000001;0.11;0.0;0.0;0;6.749968889993397;43;61;28;1;
2019_03_18 11:43;41;4;0;timed;47;42;1;70;48;0;0;0.79000000000000004;0.20999999999999999;0.0;0.0;51;8;12;67;0.19;0.26000000000000001;0.28999999999999998;0.26000000000000001;0;4.550035471820593;43;61;28;1;
2019_03_18 11:43;41;4;0;timed;48;32;0;19;81;0;0;0.93000000000000005;0.070000000000000007;0.0;0.0;1;65;41;68;0.45000000000000001;0.050000000000000003;0.059999999999999998;0.44;0;6.199967414675484;43;61;28;1;
2019_03_18 11:43;41;4;0;timed;49;108;0;48;72;39;70;0.14000000000000001;0.66000000000000003;0.02;0.17999999999999999;81;44;98;8;0.59999999999999998;0.029999999999999999;0.050000000000000003;0.32000000000000001;1;2.9332247797283344;43;61;28;1;
2019_03_18 11:43;41;4;0;timed;50;142;0;98;65;64;84;0.88;0.070000000000000007;0.01;0.040000000000000001;5;68;60;16;0.46000000000000002;0.080000000000000002;0.27000000000000002;0.19;0;4.166528007985107;43;61;28;1;
2019_03_18 11:43;41;4;0;timed;51;89;1;26;41;13;56;0.059999999999999998;0.40999999999999998;0.050000000000000003;0.47999999999999998;5;97;0;0;0.37;0.63;0.0;0.0;0;5.799842718077343;43;61;28;1;
2019_03_18 11:43;41;4;0;timed;52;40;0;45;49;0;0;0.68999999999999995;0.31;0.0;0.0;2;92;65;73;0.23999999999999999;0.59999999999999998;0.11;0.050000000000000003;0;4.116544813801738;43;61;28;1;
2019_03_18 11:43;41;4;0;timed;53;85;0;31;22;82;50;0.11;0.69999999999999996;0.01;0.17999999999999999;3;99;0;0;0.62;0.38;0.0;0.0;0;5.33314453515959;43;61;28;1;
2019_03_18 11:43;41;4;0;timed;54;48;0;13;32;0;0;0.90000000000000002;0.10000000000000001;0.0;0.0;24;99;84;94;0.62;0.14999999999999999;0.20000000000000001;0.029999999999999999;1;2.2831783392248326;43;61;28;1;
2019_03_18 11:43;41;4;0;timed;55;113;0;85;65;39;64;0.44;0.34000000000000002;0.13;0.089999999999999997;87;2;4;35;0.67000000000000004;0.17000000000000001;0.11;0.049999999999999899;1;4.149829632633555;43;61;28;1;
2019_03_18 11:43;41;4;0;timed;56;11;1;17;36;0;0;0.14000000000000001;0.85999999999999999;0.0;0.0;19;41;34;95;0.88;0.02;0.050000000000000003;0.050000000000000003;0;3.750002886496077;43;61;28;1;
2019_03_18 11:43;41;4;0;timed;57;73;1;65;68;70;47;0.25;0.23000000000000001;0.20999999999999999;0.31;27;95;0;0;0.45000000000000001;0.55000000000000004;0.0;0.0;0;2.866573999477623;43;61;28;1;
2019_03_18 11:43;41;4;0;timed;58;106;0;85;69;22;61;0.10000000000000001;0.58999999999999997;0.17999999999999999;0.13;20;79;91;84;0.55000000000000004;0.14999999999999999;0.26000000000000001;0.039999999999999897;0;2.616478424408342;43;61;28;1;
2019_03_18 11:43;41;4;0;timed;59;81;0;67;38;52;65;0.27000000000000002;0.35999999999999999;0.01;0.35999999999999999;2;77;0;0;0.14000000000000001;0.85999999999999999;0.0;0.0;0;2.149987106986373;43;61;28;1;
2019_03_18 11:43;41;4;0;timed;60;125;1;37;41;10;35;0.91000000000000003;0.040000000000000001;0.029999999999999999;0.02;7;13;91;93;0.26000000000000001;0.39000000000000001;0.16;0.19;0;2.5500640160516923;43;61;28;1;
2019_03_18 11:43;41;4;0;timed;61;138;1;8;20;43;51;0.38;0.5;0.02;0.10000000000000001;72;82;70;1;0.39000000000000001;0.050000000000000003;0.070000000000000007;0.48999999999999999;1;2.9665509716578526;43;61;28;1;
2019_03_18 11:43;41;4;0;timed;62;59;0;56;47;83;90;0.31;0.12;0.54000000000000004;0.029999999999999898;10;98;0;0;0.46999999999999997;0.53000000000000003;0.0;0.0;0;3.2671178793370927;43;61;28;1;
2019_03_18 11:43;41;4;0;timed;63;39;0;14;33;0;0;0.78000000000000003;0.22;0.0;0.0;93;84;1;25;0.14000000000000001;0.23999999999999999;0.39000000000000001;0.23000000000000001;0;4.149874854392692;43;61;28;1;
2019_03_18 11:43;41;4;0;timed;64;71;0;68;55;36;51;0.20000000000000001;0.75;0.02;0.029999999999999999;38;81;0;0;0.52000000000000002;0.47999999999999998;0.0;0.0;1;2.7997779322940914;43;61;28;1;
2019_03_18 11:43;41;4;0;timed;65;4;1;40;43;0;0;0.58999999999999997;0.40999999999999998;0.0;0.0;2;33;88;81;0.69999999999999996;0.14000000000000001;0.13;0.029999999999999999;0;3.6832039328164683;43;61;28;1;
2019_03_18 11:43;41;4;0;timed;66;91;1;74;81;86;48;0.93000000000000005;0.02;0.01;0.039999999999999897;7;64;0;0;0.13;0.87;0.0;0.0;0;5.566426275061531;43;61;28;1;
2019_03_18 11:43;41;4;0;timed;67;128;1;70;49;27;54;0.27000000000000002;0.53000000000000003;0.02;0.17999999999999999;72;97;6;20;0.29999999999999999;0.39000000000000001;0.22;0.0899999999999999;0;6.68316929487446;43;61;28;1;
2019_03_18 11:43;41;4;0;timed;68;126;0;16;55;51;42;0.68999999999999995;0.23999999999999999;0.01;0.060000000000000102;66;4;1;5;0.46999999999999997;0.38;0.089999999999999997;0.059999999999999998;0;5.183223496840583;43;61;28;1;
2019_03_18 11:43;41;4;0;timed;69;86;0;56;30;57;88;0.20000000000000001;0.35999999999999999;0.080000000000000002;0.35999999999999999;98;2;0;0;0.77000000000000002;0.23000000000000001;0.0;0.0;1;8.433123110949964;43;61;28;1;
2019_03_18 11:43;41;4;0;timed;70;46;1;5;19;0;0;0.32000000000000001;0.68000000000000005;0.0;0.0;88;38;97;66;0.60999999999999999;0.20000000000000001;0.040000000000000001;0.14999999999999999;1;2.9665490473289537;43;61;28;1;
2019_03_18 11:43;41;4;0;timed;71;34;0;32;48;0;0;0.28000000000000003;0.71999999999999997;0.0;0.0;97;83;7;62;0.040000000000000001;0.54000000000000004;0.35999999999999999;0.059999999999999901;1;3.6998497098102234;43;61;28;1;
2019_03_18 11:43;41;4;0;timed;72;1;0;22;51;0;0;0.26000000000000001;0.73999999999999999;0.0;0.0;14;11;92;31;0.29999999999999999;0.40999999999999998;0.14999999999999999;0.14000000000000001;0;5.949849709810223;43;61;28;1;
2019_03_18 11:43;41;4;0;timed;73;30;0;33;30;0;0;0.71999999999999997;0.28000000000000003;0.0;0.0;9;88;1;14;0.55000000000000004;0.39000000000000001;0.01;0.049999999999999899;0;4.683376481092637;43;61;28;1;
2019_03_18 11:43;41;4;0;timed;74;27;1;44;26;0;0;0.35999999999999999;0.64000000000000001;0.0;0.0;63;10;3;5;0.58999999999999997;0.19;0.14999999999999999;0.070000000000000007;1;4.566508059095213;43;61;28;1;
2019_03_18 11:43;41;4;0;timed;75;20;0;44;40;0;0;0.91000000000000003;0.089999999999999997;0.0;0.0;29;5;80;99;0.25;0.40000000000000002;0.26000000000000001;0.089999999999999997;0;3.0498561883887305;43;61;28;1;
