date;id;block;order;cond;trial;gameid;leftright;oa1;oa2;oa3;oa4;pa1;pa2;pa3;pa4;ob1;ob2;ob3;ob4;pb1;pb2;pb3;pb4;choice;rt;paytrial;payout;alter;geschlecht;comment
2019_03_04 10:36;22;0;1;practice;1;16;1;50;42;0;0;0.32000000000000001;0.68000000000000005;0.0;0.0;97;2;56;31;0.35999999999999999;0.16;0.16;0.32000000000000001;0;12.865591839274202;13;13;23;1; 
2019_03_04 10:36;22;0;1;practice;2;22;1;84;87;0;0;0.17000000000000001;0.82999999999999996;0.0;0.0;3;24;41;83;0.68000000000000005;0.11;0.10000000000000001;0.11;0;5.753489944379908;13;13;23;1; 
2019_03_04 10:36;22;0;1;practice;3;5;0;23;58;0;0;0.71999999999999997;0.28000000000000003;0.0;0.0;94;12;52;3;0.11;0.84999999999999998;0.029999999999999999;0.01;0;5.863548194042778;13;13;23;1; 
2019_03_04 10:36;22;0;1;practice;4;64;0;44;60;96;45;0.53000000000000003;0.10000000000000001;0.029999999999999999;0.34000000000000002;88;20;43;31;0.47999999999999998;0.38;0.050000000000000003;0.089999999999999997;1;3.5418742009997004;13;13;23;1; 
2019_03_04 10:36;22;0;1;practice;5;50;0;17;12;21;14;0.55000000000000004;0.34000000000000002;0.059999999999999998;0.049999999999999899;13;93;0;0;0.28999999999999998;0.70999999999999996;0.0;0.0;1;4.732684340199739;13;13;23;1; 
2019_03_04 10:36;22;0;1;practice;6;3;1;20;70;0;0;0.13;0.87;0.0;0.0;95;19;80;73;0.31;0.57999999999999996;0.029999999999999999;0.080000000000000002;0;5.053251839825862;13;13;23;1; 
2019_03_04 10:36;22;0;1;practice;7;17;0;27;61;0;0;0.68999999999999995;0.31;0.0;0.0;3;91;69;43;0.29999999999999999;0.33000000000000002;0.27000000000000002;0.099999999999999895;0;8.425566027509376;13;13;23;1; 
2019_03_04 10:36;22;0;1;practice;8;51;1;38;13;51;84;0.91000000000000003;0.070000000000000007;0.01;0.0099999999999999603;4;89;35;16;0.80000000000000004;0.089999999999999997;0.059999999999999998;0.050000000000000003;0;3.232048988472343;13;13;23;1; 
2019_03_04 10:36;22;0;1;practice;9;46;1;79;57;98;81;0.67000000000000004;0.070000000000000007;0.20999999999999999;0.050000000000000003;1;76;0;0;0.56000000000000005;0.44;0.0;0.0;1;4.572919519762763;13;13;23;1; 
2019_03_04 10:36;22;0;1;practice;10;38;1;51;89;10;60;0.57999999999999996;0.029999999999999999;0.080000000000000002;0.31;8;84;0;0;0.33000000000000002;0.67000000000000004;0.0;0.0;1;8.94577188018593;13;13;23;1; 
2019_03_04 10:36;22;0;1;practice;11;26;0;24;46;74;59;0.29999999999999999;0.11;0.25;0.34000000000000002;91;6;0;0;0.28999999999999998;0.70999999999999996;0.0;0.0;0;9.096008990499286;13;13;23;1; 
2019_03_04 10:36;22;0;1;practice;12;45;1;37;40;75;23;0.54000000000000004;0.38;0.059999999999999998;0.02;1;90;0;0;0.28000000000000003;0.71999999999999997;0.0;0.0;1;6.06354158715385;13;13;23;1; 
2019_03_04 10:36;22;0;1;practice;13;62;1;65;52;74;55;0.16;0.12;0.14999999999999999;0.56999999999999995;72;86;2;68;0.12;0.53000000000000003;0.22;0.13;1;7.294684854638945;13;13;23;1; 
2019_03_04 10:36;22;0;1;practice;14;52;1;17;61;57;59;0.070000000000000007;0.050000000000000003;0.33000000000000002;0.55000000000000004;12;93;94;62;0.71999999999999997;0.16;0.080000000000000002;0.040000000000000001;0;7.925270641874704;13;13;23;1; 
2019_03_04 10:36;22;0;1;practice;15;37;0;50;66;99;12;0.26000000000000001;0.71999999999999997;0.01;0.01;22;90;0;0;0.37;0.63;0.0;0.0;1;8.265457071583114;13;13;23;1; 
2019_03_04 10:36;22;0;1;practice;16;74;1;36;46;10;12;0.11;0.19;0.65000000000000002;0.049999999999999899;92;24;79;19;0.51000000000000001;0.40999999999999998;0.02;0.059999999999999998;1;8.775650281369963;13;13;23;1; 
2019_03_04 10:36;22;0;1;practice;17;43;0;11;17;21;44;0.16;0.46000000000000002;0.25;0.13;2;66;0;0;0.44;0.56000000000000005;0.0;0.0;0;8.625563910739402;13;13;23;1; 
2019_03_04 10:36;22;0;1;practice;18;66;1;44;18;63;36;0.47999999999999998;0.10000000000000001;0.029999999999999999;0.39000000000000001;13;93;61;53;0.52000000000000002;0.45000000000000001;0.02;0.0099999999999999707;0;6.523835792528189;13;13;23;1; 
2019_03_04 10:36;22;0;1;practice;19;28;1;37;83;75;8;0.83999999999999997;0.070000000000000007;0.01;0.080000000000000002;94;2;0;0;0.19;0.81000000000000005;0.0;0.0;0;6.193625443318524;13;13;23;1; 
2019_03_04 10:36;22;0;1;practice;20;72;1;86;85;97;43;0.51000000000000001;0.14999999999999999;0.33000000000000002;0.0099999999999999499;72;29;10;90;0.01;0.11;0.65000000000000002;0.23000000000000001;0;5.753715733181707;13;13;23;1; 
2019_03_04 10:36;22;0;1;practice;21;59;0;13;27;48;51;0.56999999999999995;0.13;0.13;0.17000000000000001;8;37;97;1;0.65000000000000002;0.16;0.14999999999999999;0.040000000000000001;0;5.833710396355855;13;13;23;1; 
2019_03_04 10:36;22;0;1;practice;22;34;0;57;23;66;79;0.56000000000000005;0.23000000000000001;0.13;0.079999999999999905;85;9;0;0;0.56000000000000005;0.44;0.0;0.0;1;5.413120381993394;13;13;23;1; 
2019_03_04 10:36;22;0;1;practice;23;39;0;53;65;48;75;0.92000000000000004;0.029999999999999999;0.01;0.040000000000000001;16;83;0;0;0.31;0.68999999999999995;0.0;0.0;1;8.74563512401346;13;13;23;1; 
2019_03_04 10:36;22;0;1;practice;24;4;1;40;59;0;0;0.19;0.81000000000000005;0.0;0.0;10;88;13;45;0.56000000000000005;0.28999999999999998;0.01;0.14000000000000001;0;15.14943498276807;13;13;23;1; 
2019_03_04 10:36;22;0;1;practice;25;25;0;7;18;0;0;0.20999999999999999;0.79000000000000004;0.0;0.0;92;45;33;13;0.41999999999999998;0.17999999999999999;0.22;0.17999999999999999;1;7.3048382948072685;13;13;23;1; 
2019_03_04 10:36;22;0;1;practice;26;31;1;72;59;40;92;0.59999999999999998;0.34999999999999998;0.02;0.029999999999999999;97;29;0;0;0.38;0.62;0.0;0.0;0;6.434282629849804;13;13;23;1; 
2019_03_04 10:36;22;0;1;practice;27;63;0;24;82;6;96;0.91000000000000003;0.070000000000000007;0.01;0.0099999999999999603;73;10;71;22;0.31;0.51000000000000001;0.050000000000000003;0.13;0;12.59813506147293;13;13;23;1; 
2019_03_04 10:36;22;0;1;practice;28;40;0;29;65;30;41;0.70999999999999996;0.01;0.14999999999999999;0.13;2;59;0;0;0.32000000000000001;0.68000000000000005;0.0;0.0;0;9.336153341385398;13;13;23;1; 
2019_03_04 10:36;22;0;1;practice;29;56;1;47;52;64;10;0.77000000000000002;0.040000000000000001;0.11;0.080000000000000002;1;5;12;99;0.14000000000000001;0.28999999999999998;0.27000000000000002;0.29999999999999999;0;8.195421811326923;13;13;23;1; 
2019_03_04 10:36;22;0;1;practice;30;2;0;41;60;0;0;0.97999999999999998;0.02;0.0;0.0;10;14;97;6;0.54000000000000004;0.17000000000000001;0.12;0.17000000000000001;0;4.503006775588801;13;13;23;1; 
2019_03_04 10:36;22;0;1;practice;31;35;0;84;95;4;35;0.89000000000000001;0.050000000000000003;0.01;0.050000000000000003;5;98;0;0;0.19;0.81000000000000005;0.0;0.0;0;19.342158553770787;13;13;23;1; 
2019_03_04 10:36;22;0;1;practice;32;13;1;15;25;0;0;0.29999999999999999;0.69999999999999996;0.0;0.0;3;43;35;73;0.44;0.40000000000000002;0.01;0.14999999999999999;0;10.416739417272765;13;13;23;1; 
2019_03_04 10:36;22;0;1;practice;33;7;1;13;31;0;0;0.51000000000000001;0.48999999999999999;0.0;0.0;8;79;42;18;0.85999999999999999;0.089999999999999997;0.02;0.029999999999999999;0;7.33474889655281;13;13;23;1; 
2019_03_04 10:36;22;0;1;practice;34;69;1;38;74;27;73;0.22;0.19;0.45000000000000001;0.14000000000000001;1;97;79;84;0.28000000000000003;0.45000000000000001;0.17000000000000001;0.10000000000000001;0;10.476929451904653;13;13;23;1; 
2019_03_04 10:36;22;0;1;practice;35;20;1;32;11;0;0;0.40999999999999998;0.58999999999999997;0.0;0.0;1;86;42;65;0.45000000000000001;0.38;0.050000000000000003;0.12;0;5.243004235464468;13;13;23;1; 
2019_03_04 10:36;22;0;1;practice;36;21;0;59;69;0;0;0.34000000000000002;0.66000000000000003;0.0;0.0;64;18;5;24;0.14999999999999999;0.040000000000000001;0.51000000000000001;0.29999999999999999;0;5.583569759438433;13;13;23;1; 
2019_03_04 10:36;22;0;1;practice;37;15;1;24;59;0;0;0.56999999999999995;0.42999999999999999;0.0;0.0;9;8;80;22;0.31;0.10000000000000001;0.55000000000000004;0.039999999999999897;1;15.519679546678162;13;13;23;1; 
2019_03_04 10:36;22;0;1;practice;38;33;0;54;82;55;71;0.56000000000000005;0.20999999999999999;0.02;0.20999999999999999;13;99;0;0;0.5;0.5;0.0;0.0;0;13.60857234125615;13;13;23;1; 
2019_03_04 10:36;22;0;1;practice;39;10;1;34;59;0;0;0.16;0.83999999999999997;0.0;0.0;21;61;96;7;0.19;0.01;0.5;0.29999999999999999;0;20.1531816656925;13;13;23;1; 
2019_03_04 10:36;22;0;1;practice;40;68;0;39;58;40;8;0.48999999999999999;0.44;0.02;0.050000000000000003;92;83;51;2;0.57999999999999996;0.13;0.02;0.27000000000000002;1;27.0371977428822;13;13;23;1; 
2019_03_04 10:36;22;0;1;practice;41;75;1;21;86;27;62;0.88;0.040000000000000001;0.070000000000000007;0.0099999999999999794;13;3;49;87;0.28999999999999998;0.39000000000000001;0.070000000000000007;0.25;1;14.66948207769292;13;13;23;1; 
2019_03_04 10:36;22;0;1;practice;42;57;0;39;68;59;91;0.73999999999999999;0.040000000000000001;0.14999999999999999;0.070000000000000007;9;22;40;84;0.29999999999999999;0.32000000000000001;0.040000000000000001;0.34000000000000002;0;12.147872421629472;13;13;23;1; 
2019_03_04 10:36;22;0;1;practice;43;8;0;20;44;0;0;0.26000000000000001;0.73999999999999999;0.0;0.0;99;3;69;24;0.20999999999999999;0.60999999999999999;0.12;0.060000000000000102;0;9.235970786007783;13;13;23;1; 
2019_03_04 10:36;22;0;1;practice;44;29;1;66;40;92;49;0.46999999999999997;0.10000000000000001;0.34000000000000002;0.089999999999999997;8;94;0;0;0.44;0.56000000000000005;0.0;0.0;0;3.702491823173659;13;13;23;1; 
2019_03_04 10:36;22;0;1;practice;45;73;1;99;88;95;28;0.83999999999999997;0.14000000000000001;0.01;0.01;90;93;10;74;0.080000000000000002;0.46000000000000002;0.34999999999999998;0.11;0;6.20413296138031;13;13;23;1; 
2019_03_04 10:36;22;0;1;practice;46;23;0;99;93;0;0;0.57999999999999996;0.41999999999999998;0.0;0.0;64;10;80;81;0.13;0.55000000000000004;0.02;0.29999999999999999;0;2.331133709946698;13;13;23;1; 
2019_03_04 10:36;22;0;1;practice;47;41;1;19;54;51;8;0.76000000000000001;0.070000000000000007;0.16;0.0099999999999999794;2;77;0;0;0.54000000000000004;0.46000000000000002;0.0;0.0;0;8.045334478527366;13;13;23;1; 
2019_03_04 10:36;22;0;1;practice;48;58;1;44;50;85;42;0.38;0.57999999999999996;0.02;0.02;37;88;19;12;0.20000000000000001;0.29999999999999999;0.46000000000000002;0.040000000000000001;1;13.898627884019334;13;13;23;1; 
2019_03_04 10:36;22;0;1;practice;49;65;1;35;15;77;1;0.62;0.33000000000000002;0.029999999999999999;0.02;68;3;25;96;0.38;0.28000000000000003;0.28000000000000003;0.059999999999999901;1;7.974980419877284;13;13;23;1; 
2019_03_04 10:36;22;0;1;practice;50;70;0;21;42;14;63;0.96999999999999997;0.01;0.01;0.01;70;2;6;76;0.23999999999999999;0.42999999999999999;0.01;0.32000000000000001;0;14.249009447850767;13;13;23;1; 
2019_03_04 10:36;22;0;1;practice;51;11;0;10;44;0;0;0.48999999999999999;0.51000000000000001;0.0;0.0;88;12;54;50;0.17000000000000001;0.75;0.02;0.059999999999999998;1;9.906554866999613;13;13;23;1; 
2019_03_04 10:36;22;0;1;practice;52;24;0;19;38;0;0;0.89000000000000001;0.11;0.0;0.0;45;76;95;57;0.29999999999999999;0.22;0.40000000000000002;0.080000000000000002;1;5.793711140432606;13;13;23;1; 
2019_03_04 10:36;22;0;1;practice;53;12;0;45;86;0;0;0.97999999999999998;0.02;0.0;0.0;6;23;95;81;0.14999999999999999;0.40999999999999998;0.050000000000000003;0.39000000000000001;0;15.199473822290201;13;13;23;1; 
2019_03_04 10:36;22;0;1;practice;54;42;0;23;45;91;22;0.72999999999999998;0.02;0.20000000000000001;0.050000000000000003;2;86;0;0;0.40999999999999998;0.58999999999999997;0.0;0.0;0;7.014174341027683;13;13;23;1; 
2019_03_04 10:36;22;0;1;practice;55;55;1;53;11;80;74;0.31;0.37;0.28000000000000003;0.039999999999999897;6;93;98;96;0.69999999999999996;0.22;0.050000000000000003;0.029999999999999999;0;6.924584295234126;13;13;23;1; 
2019_03_04 10:36;22;0;1;practice;56;6;0;42;59;0;0;0.35999999999999999;0.64000000000000001;0.0;0.0;77;19;6;7;0.44;0.14999999999999999;0.17999999999999999;0.23000000000000001;0;6.54387551083164;13;13;23;1; 
2019_03_04 10:36;22;0;1;practice;57;71;1;94;87;26;75;0.71999999999999997;0.23999999999999999;0.02;0.02;90;27;12;83;0.16;0.73999999999999999;0.02;0.080000000000000002;0;4.622961566512458;13;13;23;1; 
2019_03_04 10:36;22;0;1;practice;58;1;0;67;36;0;0;0.14999999999999999;0.84999999999999998;0.0;0.0;1;4;81;77;0.25;0.54000000000000004;0.14000000000000001;0.070000000000000007;0;7.694582159221682;13;13;23;1; 
2019_03_04 10:36;22;0;1;practice;59;32;0;21;86;16;78;0.45000000000000001;0.41999999999999998;0.050000000000000003;0.080000000000000099;95;9;0;0;0.42999999999999999;0.56999999999999995;0.0;0.0;0;6.8842184532313695;13;13;23;1; 
2019_03_04 10:36;22;0;1;practice;60;36;1;56;89;86;77;0.66000000000000003;0.080000000000000002;0.14999999999999999;0.11;29;91;0;0;0.40999999999999998;0.58999999999999997;0.0;0.0;0;3.521876497374251;13;13;23;1; 
2019_03_04 10:36;22;0;1;practice;61;27;1;68;43;98;36;0.54000000000000004;0.44;0.01;0.0099999999999999603;97;13;0;0;0.27000000000000002;0.72999999999999998;0.0;0.0;0;8.024949983289844;13;13;23;1; 
2019_03_04 10:36;22;0;1;practice;62;47;0;91;99;90;78;0.93000000000000005;0.040000000000000001;0.02;0.0099999999999999499;10;87;0;0;0.23000000000000001;0.77000000000000002;0.0;0.0;0;3.4818570359193473;13;13;23;1; 
2019_03_04 10:36;22;0;1;practice;63;54;0;69;80;22;55;0.27000000000000002;0.31;0.059999999999999998;0.35999999999999999;52;2;49;90;0.059999999999999998;0.33000000000000002;0.20000000000000001;0.40999999999999998;0;12.077782959231627;13;13;23;1; 
2019_03_04 10:36;22;0;1;practice;64;53;0;47;24;95;38;0.57999999999999996;0.28000000000000003;0.02;0.12;8;22;93;96;0.54000000000000004;0.34000000000000002;0.10000000000000001;0.0199999999999999;0;9.976085951126151;13;13;23;1; 
2019_03_04 10:36;22;0;1;practice;65;9;0;57;44;0;0;0.14999999999999999;0.84999999999999998;0.0;0.0;38;35;64;95;0.34000000000000002;0.45000000000000001;0.089999999999999997;0.12;0;8.775790437202886;13;13;23;1; 
2019_03_04 10:36;22;0;1;practice;66;60;1;39;93;27;78;0.85999999999999999;0.02;0.11;0.01;22;5;62;95;0.059999999999999998;0.56999999999999995;0.14000000000000001;0.23000000000000001;0;5.503524101351104;13;13;23;1; 
2019_03_04 10:36;22;0;1;practice;67;19;0;25;73;0;0;0.69999999999999996;0.29999999999999999;0.0;0.0;87;84;1;86;0.040000000000000001;0.59999999999999998;0.28000000000000003;0.080000000000000002;1;10.596835172250394;13;13;23;1; 
2019_03_04 10:36;22;0;1;practice;68;67;0;74;31;10;77;0.11;0.070000000000000007;0.77000000000000002;0.050000000000000003;2;23;8;97;0.56999999999999995;0.01;0.059999999999999998;0.35999999999999999;0;5.8237516348835925;13;13;23;1; 
2019_03_04 10:36;22;0;1;practice;69;30;1;54;78;85;25;0.20999999999999999;0.60999999999999999;0.089999999999999997;0.090000000000000094;87;20;0;0;0.58999999999999997;0.40999999999999998;0.0;0.0;0;10.466760937767503;13;13;23;1; 
2019_03_04 10:36;22;0;1;practice;70;44;1;69;48;22;63;0.39000000000000001;0.40999999999999998;0.19;0.01;1;94;0;0;0.22;0.78000000000000003;0.0;0.0;0;15.059893686830037;13;13;23;1; 
2019_03_04 10:36;22;0;1;practice;71;18;0;47;36;0;0;0.089999999999999997;0.91000000000000003;0.0;0.0;2;44;81;9;0.20000000000000001;0.25;0.51000000000000001;0.040000000000000001;0;6.7043196220092796;13;13;23;1; 
2019_03_04 10:36;22;0;1;practice;72;48;1;20;25;24;35;0.32000000000000001;0.13;0.48999999999999999;0.059999999999999901;44;76;0;0;0.29999999999999999;0.69999999999999996;0.0;0.0;1;2.9418359708506614;13;13;23;1; 
2019_03_04 10:36;22;0;1;practice;73;49;0;14;31;42;22;0.77000000000000002;0.089999999999999997;0.02;0.12;87;28;0;0;0.68000000000000005;0.32000000000000001;0.0;0.0;1;4.632966191334162;13;13;23;1; 
2019_03_04 10:36;22;0;1;practice;74;14;0;92;56;0;0;0.11;0.89000000000000001;0.0;0.0;97;31;51;4;0.58999999999999997;0.22;0.080000000000000002;0.11;0;8.595202693558349;13;13;23;1; 
2019_03_04 10:36;22;0;1;practice;75;61;1;51;48;56;88;0.91000000000000003;0.02;0.01;0.059999999999999998;78;21;14;82;0.55000000000000004;0.29999999999999999;0.070000000000000007;0.080000000000000002;0;6.083914536372504;13;13;23;1; 
2019_03_04 10:36;22;1;1;timed;1;115;0;50;28;61;79;0.83999999999999997;0.040000000000000001;0.059999999999999998;0.059999999999999998;1;26;97;55;0.45000000000000001;0.080000000000000002;0.40999999999999998;0.060000000000000102;0;3.0211452495514095;13;13;23;1; 
2019_03_04 10:36;22;1;1;timed;2;81;1;67;38;52;65;0.27000000000000002;0.35999999999999999;0.01;0.35999999999999999;2;77;0;0;0.14000000000000001;0.85999999999999999;0.0;0.0;0;2.651653421887204;13;13;23;1; 
2019_03_04 10:36;22;1;1;timed;3;7;0;49;29;0;0;0.95999999999999996;0.040000000000000001;0.0;0.0;23;99;64;25;0.68999999999999995;0.12;0.059999999999999998;0.13;1;3.742392617218684;13;13;23;1; 
2019_03_04 10:36;22;1;1;timed;4;38;1;40;70;0;0;0.53000000000000003;0.46999999999999997;0.0;0.0;97;90;6;96;0.56999999999999995;0.070000000000000007;0.27000000000000002;0.089999999999999997;0;5.793715951273043;13;13;23;1; 
2019_03_04 10:36;22;1;1;timed;5;67;1;44;42;8;89;0.88;0.070000000000000007;0.029999999999999999;0.02;10;63;0;0;0.39000000000000001;0.60999999999999999;0.0;0.0;1;3.0815854479114932;13;13;23;1; 
2019_03_04 10:36;22;1;1;timed;6;25;1;50;53;0;0;0.82999999999999996;0.17000000000000001;0.0;0.0;83;16;97;4;0.45000000000000001;0.29999999999999999;0.11;0.14000000000000001;0;3.552279408510003;13;13;23;1; 
2019_03_04 10:36;22;1;1;timed;7;31;0;10;59;0;0;0.23999999999999999;0.76000000000000001;0.0;0.0;1;79;53;73;0.23000000000000001;0.58999999999999997;0.050000000000000003;0.13;1;3.501874303630757;13;13;23;1; 
2019_03_04 10:36;22;1;1;timed;8;93;1;87;81;73;98;0.80000000000000004;0.040000000000000001;0.14999999999999999;0.0099999999999999499;5;71;0;0;0.51000000000000001;0.48999999999999999;0.0;0.0;0;3.1920410730363074;13;13;23;1; 
2019_03_04 10:36;22;1;1;timed;9;134;0;57;48;50;55;0.02;0.62;0.17999999999999999;0.17999999999999999;80;96;15;18;0.23999999999999999;0.35999999999999999;0.33000000000000002;0.070000000000000007;0;4.402766169397182;13;13;23;1; 
2019_03_04 10:36;22;1;1;timed;10;74;0;66;47;52;44;0.41999999999999998;0.26000000000000001;0.17999999999999999;0.14000000000000001;17;99;0;0;0.47999999999999998;0.52000000000000002;0.0;0.0;0;3.4820231702933597;13;13;23;1; 
2019_03_04 10:36;22;1;1;timed;11;114;0;57;39;79;97;0.77000000000000002;0.02;0.13;0.080000000000000002;92;36;6;1;0.54000000000000004;0.12;0.13;0.20999999999999999;0;3.39228783710314;13;13;23;1; 
2019_03_04 10:36;22;1;1;timed;12;79;0;52;46;29;22;0.17999999999999999;0.51000000000000001;0.23999999999999999;0.070000000000000104;93;14;0;0;0.45000000000000001;0.55000000000000004;0.0;0.0;0;4.062588399202468;13;13;23;1; 
2019_03_04 10:36;22;1;1;timed;13;85;1;31;22;82;50;0.11;0.69999999999999996;0.01;0.17999999999999999;3;99;0;0;0.62;0.38;0.0;0.0;0;5.133122704026391;13;13;23;1; 
2019_03_04 10:36;22;1;1;timed;14;142;1;98;65;64;84;0.88;0.070000000000000007;0.01;0.040000000000000001;5;68;60;16;0.46000000000000002;0.080000000000000002;0.27000000000000002;0.19;0;3.552285181519437;13;13;23;1; 
2019_03_04 10:36;22;1;1;timed;15;55;0;74;55;47;48;0.60999999999999999;0.31;0.070000000000000007;0.01;97;6;0;0;0.42999999999999999;0.56999999999999995;0.0;0.0;0;3.712137879984766;13;13;23;1; 
2019_03_04 10:36;22;1;1;timed;16;120;1;64;40;48;51;0.19;0.02;0.070000000000000007;0.71999999999999997;97;9;79;94;0.23000000000000001;0.54000000000000004;0.01;0.22;0;4.7430520231509945;13;13;23;1; 
2019_03_04 10:36;22;1;1;timed;17;145;0;91;89;90;74;0.57999999999999996;0.29999999999999999;0.11;0.010000000000000101;2;75;84;39;0.32000000000000001;0.27000000000000002;0.39000000000000001;0.0199999999999999;0;3.7920882834214353;13;13;23;1; 
2019_03_04 10:36;22;1;1;timed;18;23;1;54;40;0;0;0.93000000000000005;0.070000000000000007;0.0;0.0;36;23;71;86;0.02;0.41999999999999998;0.19;0.37;0;3.922645847057538;13;13;23;1; 
2019_03_04 10:36;22;1;1;timed;19;84;0;43;10;5;45;0.78000000000000003;0.13;0.059999999999999998;0.029999999999999999;87;1;0;0;0.57999999999999996;0.41999999999999998;0.0;0.0;0;4.342554646342251;13;13;23;1; 
2019_03_04 10:36;22;1;1;timed;20;11;0;17;36;0;0;0.14000000000000001;0.85999999999999999;0.0;0.0;19;41;34;95;0.88;0.02;0.050000000000000003;0.050000000000000003;1;3.2020505086984485;13;13;23;1; 
2019_03_04 10:36;22;1;1;timed;21;102;0;40;56;53;17;0.28000000000000003;0.26000000000000001;0.14999999999999999;0.31;1;76;29;62;0.68000000000000005;0.23000000000000001;0.050000000000000003;0.039999999999999897;0;3.432313071567478;13;13;23;1; 
2019_03_04 10:36;22;1;1;timed;22;128;0;70;49;27;54;0.27000000000000002;0.53000000000000003;0.02;0.17999999999999999;72;97;6;20;0.29999999999999999;0.39000000000000001;0.22;0.0899999999999999;1;5.313605250616092;13;13;23;1; 
2019_03_04 10:36;22;1;1;timed;23;52;0;71;51;10;54;0.22;0.12;0.19;0.46999999999999997;91;1;0;0;0.29999999999999999;0.69999999999999996;0.0;0.0;0;3.042065672469107;13;13;23;1; 
2019_03_04 10:36;22;1;1;timed;24;140;1;36;32;26;27;0.39000000000000001;0.14999999999999999;0.19;0.27000000000000002;44;3;99;25;0.29999999999999999;0.34000000000000002;0.34000000000000002;0.0199999999999999;0;3.9126316005540502;13;13;23;1; 
2019_03_04 10:36;22;1;1;timed;25;110;0;47;44;23;52;0.13;0.27000000000000002;0.040000000000000001;0.56000000000000005;99;2;30;22;0.28999999999999998;0.5;0.11;0.10000000000000001;0;3.392161151626169;13;13;23;1; 
2019_03_04 10:36;22;1;1;timed;26;54;0;44;79;78;52;0.79000000000000004;0.19;0.01;0.0099999999999999603;96;1;0;0;0.28000000000000003;0.71999999999999997;0.0;0.0;0;3.652452021483441;13;13;23;1; 
2019_03_04 10:36;22;1;1;timed;27;135;1;48;60;41;51;0.14000000000000001;0.40000000000000002;0.089999999999999997;0.37;94;1;85;65;0.64000000000000001;0.29999999999999999;0.01;0.050000000000000003;0;3.4218238347020815;13;13;23;1; 
2019_03_04 10:36;22;1;1;timed;28;1;0;22;51;0;0;0.26000000000000001;0.73999999999999999;0.0;0.0;14;11;92;31;0.29999999999999999;0.40999999999999998;0.14999999999999999;0.14000000000000001;0;3.9826857834514158;13;13;23;1; 
2019_03_04 10:36;22;1;1;timed;29;37;1;14;98;0;0;0.93000000000000005;0.070000000000000007;0.0;0.0;41;2;87;66;0.17999999999999999;0.48999999999999999;0.32000000000000001;0.010000000000000101;0;3.421802346279037;13;13;23;1; 
2019_03_04 10:36;22;1;1;timed;30;15;1;77;81;0;0;0.28000000000000003;0.71999999999999997;0.0;0.0;98;14;87;18;0.55000000000000004;0.23000000000000001;0.16;0.059999999999999901;0;4.562932855414147;13;13;23;1; 
2019_03_04 10:36;22;1;1;timed;31;136;0;29;67;14;75;0.46000000000000002;0.29999999999999999;0.20999999999999999;0.0300000000000001;70;86;1;85;0.31;0.39000000000000001;0.27000000000000002;0.029999999999999898;0;5.623753110208781;13;13;23;1; 
2019_03_04 10:36;22;1;1;timed;32;83;0;17;12;7;41;0.65000000000000002;0.19;0.089999999999999997;0.070000000000000007;6;84;0;0;0.72999999999999998;0.27000000000000002;0.0;0.0;0;4.092738901550547;13;13;23;1; 
2019_03_04 10:36;22;1;1;timed;33;96;1;51;54;39;7;0.17000000000000001;0.26000000000000001;0.10000000000000001;0.46999999999999997;24;96;0;0;0.28000000000000003;0.71999999999999997;0.0;0.0;1;4.022181825413099;13;13;23;1; 
2019_03_04 10:36;22;1;1;timed;34;106;1;85;69;22;61;0.10000000000000001;0.58999999999999997;0.17999999999999999;0.13;20;79;91;84;0.55000000000000004;0.14999999999999999;0.26000000000000001;0.039999999999999897;1;4.873144859552667;13;13;23;1; 
2019_03_04 10:36;22;1;1;timed;35;44;0;79;74;0;0;0.71999999999999997;0.28000000000000003;0.0;0.0;3;67;15;36;0.41999999999999998;0.53000000000000003;0.02;0.029999999999999999;0;1.8107662130141762;13;13;23;1; 
2019_03_04 10:36;22;1;1;timed;36;45;0;97;87;0;0;0.71999999999999997;0.28000000000000003;0.0;0.0;96;11;14;4;0.25;0.029999999999999999;0.14000000000000001;0.57999999999999996;0;1.5909665877470616;13;13;23;1; 
2019_03_04 10:36;22;1;1;timed;37;43;0;60;83;0;0;0.23000000000000001;0.77000000000000002;0.0;0.0;72;5;70;12;0.29999999999999999;0.40999999999999998;0.12;0.17000000000000001;0;2.611772833373834;13;13;23;1; 
2019_03_04 10:36;22;1;1;timed;38;35;1;33;37;0;0;0.88;0.12;0.0;0.0;63;4;79;98;0.16;0.46000000000000002;0.17000000000000001;0.20999999999999999;NA;5.823756445724939;13;13;23;1; 
2019_03_04 10:36;22;1;1;timed;39;88;1;77;13;12;7;0.12;0.19;0.66000000000000003;0.029999999999999898;94;2;0;0;0.40999999999999998;0.58999999999999997;0.0;0.0;0;3.5723361251175447;13;13;23;1; 
2019_03_04 10:36;22;1;1;timed;40;108;0;48;72;39;70;0.14000000000000001;0.66000000000000003;0.02;0.17999999999999999;81;44;98;8;0.59999999999999998;0.029999999999999999;0.050000000000000003;0.32000000000000001;0;3.0720795469342193;13;13;23;1; 
2019_03_04 10:36;22;1;1;timed;41;118;0;62;52;65;68;0.40999999999999998;0.44;0.10000000000000001;0.0500000000000001;79;20;14;37;0.56999999999999995;0.23999999999999999;0.14000000000000001;0.050000000000000003;0;3.632423207754073;13;13;23;1; 
2019_03_04 10:36;22;1;1;timed;42;99;0;8;24;15;73;0.56000000000000005;0.35999999999999999;0.070000000000000007;0.0099999999999999499;88;12;0;0;0.52000000000000002;0.47999999999999998;0.0;0.0;1;3.381796675901569;13;13;23;1; 
2019_03_04 10:36;22;1;1;timed;43;119;1;60;58;11;18;0.25;0.72999999999999998;0.01;0.01;96;23;42;85;0.44;0.48999999999999999;0.059999999999999998;0.010000000000000101;1;4.322906851214611;13;13;23;1; 
2019_03_04 10:36;22;1;1;timed;44;77;0;24;17;99;41;0.17999999999999999;0.13;0.10000000000000001;0.58999999999999997;12;97;0;0;0.59999999999999998;0.40000000000000002;0.0;0.0;0;3.9022690491665344;13;13;23;1; 
2019_03_04 10:36;22;1;1;timed;45;24;1;35;27;0;0;0.070000000000000007;0.93000000000000005;0.0;0.0;62;3;81;95;0.35999999999999999;0.55000000000000004;0.01;0.080000000000000002;0;4.23282802398171;13;13;23;1; 
2019_03_04 10:36;22;1;1;timed;46;116;0;53;65;43;99;0.56999999999999995;0.37;0.050000000000000003;0.010000000000000101;57;72;11;87;0.67000000000000004;0.13;0.14999999999999999;0.050000000000000003;0;4.59307213246575;13;13;23;1; 
2019_03_04 10:36;22;1;1;timed;47;141;1;93;28;60;91;0.81999999999999995;0.10000000000000001;0.01;0.070000000000000007;14;85;7;89;0.45000000000000001;0.070000000000000007;0.23999999999999999;0.23999999999999999;0;2.421531335572581;13;13;23;1; 
2019_03_04 10:36;22;1;1;timed;48;53;1;26;70;50;80;0.29999999999999999;0.59999999999999998;0.040000000000000001;0.059999999999999998;89;1;0;0;0.40999999999999998;0.58999999999999997;0.0;0.0;0;3.772403284457141;13;13;23;1; 
2019_03_04 10:36;22;1;1;timed;49;10;0;45;62;0;0;0.059999999999999998;0.93999999999999995;0.0;0.0;17;99;28;67;0.58999999999999997;0.34000000000000002;0.01;0.059999999999999998;0;3.6120730298489434;13;13;23;1; 
2019_03_04 10:36;22;1;1;timed;50;41;1;99;40;0;0;0.89000000000000001;0.11;0.0;0.0;1;67;52;46;0.51000000000000001;0.38;0.029999999999999999;0.080000000000000002;0;3.3818014867429156;13;13;23;1; 
2019_03_04 10:36;22;1;1;timed;51;107;1;52;48;13;63;0.68000000000000005;0.19;0.050000000000000003;0.079999999999999905;54;91;33;3;0.19;0.17999999999999999;0.33000000000000002;0.29999999999999999;0;3.672470892808633;13;13;23;1; 
2019_03_04 10:36;22;1;1;timed;52;148;0;37;63;55;10;0.72999999999999998;0.070000000000000007;0.029999999999999999;0.17000000000000001;80;14;23;70;0.46999999999999997;0.10000000000000001;0.23000000000000001;0.20000000000000001;1;4.152679413898113;13;13;23;1; 
2019_03_04 10:36;22;1;1;timed;53;132;0;27;70;21;19;0.64000000000000001;0.23000000000000001;0.029999999999999999;0.10000000000000001;11;85;55;6;0.39000000000000001;0.46999999999999997;0.029999999999999999;0.11;0;2.9314987565576303;13;13;23;1; 
2019_03_04 10:36;22;1;1;timed;54;30;0;33;30;0;0;0.71999999999999997;0.28000000000000003;0.0;0.0;9;88;1;14;0.55000000000000004;0.39000000000000001;0.01;0.049999999999999899;0;4.152645738012325;13;13;23;1; 
2019_03_04 10:36;22;1;1;timed;55;91;0;74;81;86;48;0.93000000000000005;0.02;0.01;0.039999999999999897;7;64;0;0;0.13;0.87;0.0;0.0;0;2.7213686008599325;13;13;23;1; 
2019_03_04 10:36;22;1;1;timed;56;87;0;10;30;63;4;0.56999999999999995;0.12;0.16;0.14999999999999999;86;2;0;0;0.42999999999999999;0.56999999999999995;0.0;0.0;0;3.1316374370662743;13;13;23;1; 
2019_03_04 10:36;22;1;1;timed;57;150;1;25;21;78;38;0.84999999999999998;0.059999999999999998;0.050000000000000003;0.040000000000000001;31;43;64;95;0.059999999999999998;0.45000000000000001;0.13;0.35999999999999999;1;3.5220689310126545;13;13;23;1; 
2019_03_04 10:36;22;1;1;timed;58;57;0;52;35;23;47;0.22;0.68000000000000005;0.040000000000000001;0.059999999999999998;71;7;0;0;0.28999999999999998;0.70999999999999996;0.0;0.0;0;3.0220593093299613;13;13;23;1; 
2019_03_04 10:36;22;1;1;timed;59;40;0;45;49;0;0;0.68999999999999995;0.31;0.0;0.0;2;92;65;73;0.23999999999999999;0.59999999999999998;0.11;0.050000000000000003;0;3.681989622695255;13;13;23;1; 
2019_03_04 10:36;22;1;1;timed;60;51;1;52;23;43;16;0.60999999999999999;0.20999999999999999;0.01;0.17000000000000001;92;7;0;0;0.14999999999999999;0.84999999999999998;0.0;0.0;0;3.7724225278207086;13;13;23;1; 
2019_03_04 10:36;22;1;1;timed;61;64;0;48;39;34;19;0.46000000000000002;0.5;0.02;0.02;13;92;0;0;0.68999999999999995;0.31;0.0;0.0;0;4.242844515545585;13;13;23;1; 
2019_03_04 10:36;22;1;1;timed;62;39;0;14;33;0;0;0.78000000000000003;0.22;0.0;0.0;93;84;1;25;0.14000000000000001;0.23999999999999999;0.39000000000000001;0.23000000000000001;0;3.81243781988087;13;13;23;1; 
2019_03_04 10:36;22;1;1;timed;63;75;1;67;80;36;81;0.81999999999999995;0.080000000000000002;0.059999999999999998;0.040000000000000001;3;97;0;0;0.32000000000000001;0.68000000000000005;0.0;0.0;0;2.491566916552074;13;13;23;1; 
2019_03_04 10:36;22;1;1;timed;64;92;0;90;86;65;94;0.16;0.34000000000000002;0.28000000000000003;0.22;79;22;0;0;0.35999999999999999;0.64000000000000001;0.0;0.0;0;2.8119047787049567;13;13;23;1; 
2019_03_04 10:36;22;1;1;timed;65;125;0;37;41;10;35;0.91000000000000003;0.040000000000000001;0.029999999999999999;0.02;7;13;91;93;0.26000000000000001;0.39000000000000001;0.16;0.19;0;5.0332502875280625;13;13;23;1; 
2019_03_04 10:36;22;1;1;timed;66;13;1;52;56;0;0;0.46999999999999997;0.53000000000000003;0.0;0.0;94;71;27;2;0.089999999999999997;0.31;0.57999999999999996;0.020000000000000101;0;3.75239627987321;13;13;23;1; 
2019_03_04 10:36;22;1;1;timed;67;111;1;51;36;48;27;0.93000000000000005;0.01;0.01;0.049999999999999899;31;78;30;53;0.55000000000000004;0.16;0.029999999999999999;0.26000000000000001;0;4.062279543213663;13;13;23;1; 
2019_03_04 10:36;22;1;1;timed;68;20;0;44;40;0;0;0.91000000000000003;0.089999999999999997;0.0;0.0;29;5;80;99;0.25;0.40000000000000002;0.26000000000000001;0.089999999999999997;0;4.182672762109178;13;13;23;1; 
2019_03_04 10:36;22;1;1;timed;69;21;1;64;28;0;0;0.080000000000000002;0.92000000000000004;0.0;0.0;50;1;88;13;0.57999999999999996;0.13;0.02;0.27000000000000002;0;4.802876113148159;13;13;23;1; 
2019_03_04 10:36;22;1;1;timed;70;138;1;8;20;43;51;0.38;0.5;0.02;0.10000000000000001;72;82;70;1;0.39000000000000001;0.050000000000000003;0.070000000000000007;0.48999999999999999;0;2.281452796991289;13;13;23;1; 
2019_03_04 10:36;22;1;1;timed;71;126;1;16;55;51;42;0.68999999999999995;0.23999999999999999;0.01;0.060000000000000102;66;4;1;5;0.46999999999999997;0.38;0.089999999999999997;0.059999999999999998;0;4.012708638153526;13;13;23;1; 
2019_03_04 10:36;22;1;1;timed;72;80;1;47;39;45;10;0.13;0.76000000000000001;0.059999999999999998;0.050000000000000003;2;87;0;0;0.48999999999999999;0.51000000000000001;0.0;0.0;0;4.262366587362521;13;13;23;1; 
2019_03_04 10:36;22;1;1;timed;73;137;1;71;22;28;17;0.25;0.46000000000000002;0.050000000000000003;0.23999999999999999;3;98;92;69;0.42999999999999999;0.23999999999999999;0.20000000000000001;0.13;1;5.073243770441877;13;13;23;1; 
2019_03_04 10:36;22;1;1;timed;74;121;0;42;51;47;70;0.41999999999999998;0.17000000000000001;0.23999999999999999;0.17000000000000001;21;76;48;9;0.14999999999999999;0.34000000000000002;0.40999999999999998;0.10000000000000001;0;4.7932191517656975;13;13;23;1; 
2019_03_04 10:36;22;1;1;timed;75;29;1;44;51;0;0;0.78000000000000003;0.22;0.0;0.0;74;1;68;82;0.69999999999999996;0.28000000000000003;0.01;0.01;0;3.7620182824784933;13;13;23;1; 
2019_03_04 10:36;22;2;1;control;1;10;0;45;62;0;0;0.059999999999999998;0.93999999999999995;0.0;0.0;17;99;28;67;0.58999999999999997;0.34000000000000002;0.01;0.059999999999999998;0;3.1197277192313777;13;13;23;1; 
2019_03_04 10:36;22;2;1;control;2;11;1;17;36;0;0;0.14000000000000001;0.85999999999999999;0.0;0.0;19;41;34;95;0.88;0.02;0.050000000000000003;0.050000000000000003;1;13.618943872880664;13;13;23;1; 
2019_03_04 10:36;22;2;1;control;3;57;0;52;35;23;47;0.22;0.68000000000000005;0.040000000000000001;0.059999999999999998;71;7;0;0;0.28999999999999998;0.70999999999999996;0.0;0.0;0;3.4622188624734918;13;13;23;1; 
2019_03_04 10:36;22;2;1;control;4;82;1;78;66;30;27;0.28999999999999998;0.58999999999999997;0.080000000000000002;0.040000000000000001;90;6;0;0;0.82999999999999996;0.17000000000000001;0.0;0.0;0;4.9631884072841785;13;13;23;1; 
2019_03_04 10:36;22;2;1;control;5;31;1;10;59;0;0;0.23999999999999999;0.76000000000000001;0.0;0.0;1;79;53;73;0.23000000000000001;0.58999999999999997;0.050000000000000003;0.13;0;8.495618286070567;13;13;23;1; 
2019_03_04 10:36;22;2;1;control;6;67;0;44;42;8;89;0.88;0.070000000000000007;0.029999999999999999;0.02;10;63;0;0;0.39000000000000001;0.60999999999999999;0.0;0.0;1;12.29773139984627;13;13;23;1; 
2019_03_04 10:36;22;2;1;control;7;139;0;44;31;16;8;0.79000000000000004;0.070000000000000007;0.13;0.0099999999999999499;92;58;2;88;0.55000000000000004;0.070000000000000007;0.34000000000000002;0.039999999999999897;0;10.677018420389686;13;13;23;1; 
2019_03_04 10:36;22;2;1;control;8;137;1;71;22;28;17;0.25;0.46000000000000002;0.050000000000000003;0.23999999999999999;3;98;92;69;0.42999999999999999;0.23999999999999999;0.20000000000000001;0.13;0;5.593582081605746;13;13;23;1; 
2019_03_04 10:36;22;2;1;control;9;100;0;27;14;59;52;0.02;0.95999999999999996;0.01;0.01;17;98;0;0;0.48999999999999999;0.51000000000000001;0.0;0.0;1;10.296630037993054;13;13;23;1; 
2019_03_04 10:36;22;2;1;control;10;148;1;37;63;55;10;0.72999999999999998;0.070000000000000007;0.029999999999999999;0.17000000000000001;80;14;23;70;0.46999999999999997;0.10000000000000001;0.23000000000000001;0.20000000000000001;1;10.07663573402806;13;13;23;1; 
2019_03_04 10:36;22;2;1;control;11;40;1;45;49;0;0;0.68999999999999995;0.31;0.0;0.0;2;92;65;73;0.23999999999999999;0.59999999999999998;0.11;0.050000000000000003;0;18.952300191343056;13;13;23;1; 
2019_03_04 10:36;22;2;1;control;12;46;1;5;19;0;0;0.32000000000000001;0.68000000000000005;0.0;0.0;88;38;97;66;0.60999999999999999;0.20000000000000001;0.040000000000000001;0.14999999999999999;1;4.703014601223003;13;13;23;1; 
2019_03_04 10:36;22;2;1;control;13;12;0;53;68;0;0;0.31;0.68999999999999995;0.0;0.0;69;54;97;29;0.25;0.20999999999999999;0.20000000000000001;0.34000000000000002;0;12.347971011797199;13;13;23;1; 
2019_03_04 10:36;22;2;1;control;14;75;1;67;80;36;81;0.81999999999999995;0.080000000000000002;0.059999999999999998;0.040000000000000001;3;97;0;0;0.32000000000000001;0.68000000000000005;0.0;0.0;0;8.235292457435207;13;13;23;1; 
2019_03_04 10:36;22;2;1;control;15;8;0;50;36;0;0;0.080000000000000002;0.92000000000000004;0.0;0.0;6;19;84;29;0.54000000000000004;0.070000000000000007;0.17000000000000001;0.22;0;7.244319198654921;13;13;23;1; 
2019_03_04 10:36;22;2;1;control;16;111;1;51;36;48;27;0.93000000000000005;0.01;0.01;0.049999999999999899;31;78;30;53;0.55000000000000004;0.16;0.029999999999999999;0.26000000000000001;1;17.421421969122093;13;13;23;1; 
2019_03_04 10:36;22;2;1;control;17;80;0;47;39;45;10;0.13;0.76000000000000001;0.059999999999999998;0.050000000000000003;2;87;0;0;0.48999999999999999;0.51000000000000001;0.0;0.0;0;5.32341327240465;13;13;23;1; 
2019_03_04 10:36;22;2;1;control;18;17;1;81;52;0;0;0.059999999999999998;0.93999999999999995;0.0;0.0;34;3;69;41;0.01;0.22;0.75;0.02;0;11.037267660437465;13;13;23;1; 
2019_03_04 10:36;22;2;1;control;19;50;0;15;20;0;0;0.82999999999999996;0.17000000000000001;0.0;0.0;97;18;88;87;0.56999999999999995;0.39000000000000001;0.01;0.029999999999999999;1;4.952811744095925;13;13;23;1; 
2019_03_04 10:36;22;2;1;control;20;92;1;90;86;65;94;0.16;0.34000000000000002;0.28000000000000003;0.22;79;22;0;0;0.35999999999999999;0.64000000000000001;0.0;0.0;0;5.343419956266189;13;13;23;1; 
2019_03_04 10:36;22;2;1;control;21;125;1;37;41;10;35;0.91000000000000003;0.040000000000000001;0.029999999999999999;0.02;7;13;91;93;0.26000000000000001;0.39000000000000001;0.16;0.19;0;6.073911835887884;13;13;23;1; 
2019_03_04 10:36;22;2;1;control;22;145;0;91;89;90;74;0.57999999999999996;0.29999999999999999;0.11;0.010000000000000101;2;75;84;39;0.32000000000000001;0.27000000000000002;0.39000000000000001;0.0199999999999999;0;3.7420305212581297;13;13;23;1; 
2019_03_04 10:36;22;2;1;control;23;28;0;47;30;0;0;0.97999999999999998;0.02;0.0;0.0;55;48;77;13;0.070000000000000007;0.26000000000000001;0.42999999999999999;0.23999999999999999;0;5.8737798905567615;13;13;23;1; 
2019_03_04 10:36;22;2;1;control;24;133;1;59;88;60;36;0.67000000000000004;0.070000000000000007;0.12;0.14000000000000001;7;91;66;61;0.25;0.68999999999999995;0.01;0.0500000000000001;0;22.55460657263484;13;13;23;1; 
2019_03_04 10:36;22;2;1;control;25;18;1;68;50;0;0;0.029999999999999999;0.96999999999999997;0.0;0.0;34;64;15;89;0.65000000000000002;0.029999999999999999;0.050000000000000003;0.27000000000000002;0;5.433244129651939;13;13;23;1; 
2019_03_04 10:36;22;2;1;control;26;84;1;43;10;5;45;0.78000000000000003;0.13;0.059999999999999998;0.029999999999999999;87;1;0;0;0.57999999999999996;0.41999999999999998;0.0;0.0;0;3.6923646822697265;13;13;23;1; 
2019_03_04 10:36;22;2;1;control;27;109;0;75;28;16;56;0.19;0.070000000000000007;0.059999999999999998;0.68000000000000005;3;50;98;44;0.5;0.02;0.34999999999999998;0.13;0;5.473546147831257;13;13;23;1; 
2019_03_04 10:36;22;2;1;control;28;101;0;30;96;61;45;0.65000000000000002;0.14000000000000001;0.11;0.10000000000000001;3;98;63;89;0.75;0.19;0.040000000000000001;0.02;0;3.672493343399765;13;13;23;1; 
2019_03_04 10:36;22;2;1;control;29;16;0;64;53;0;0;0.65000000000000002;0.34999999999999998;0.0;0.0;29;17;81;46;0.10000000000000001;0.01;0.44;0.45000000000000001;0;5.363461278182513;13;13;23;1; 
2019_03_04 10:36;22;2;1;control;30;70;0;66;55;69;50;0.22;0.29999999999999999;0.29999999999999999;0.17999999999999999;2;90;0;0;0.34000000000000002;0.66000000000000003;0.0;0.0;0;3.342266316608402;13;13;23;1; 
2019_03_04 10:36;22;2;1;control;31;114;0;57;39;79;97;0.77000000000000002;0.02;0.13;0.080000000000000002;92;36;6;1;0.54000000000000004;0.12;0.13;0.20999999999999999;0;5.113277664419911;13;13;23;1; 
2019_03_04 10:36;22;2;1;control;32;15;0;77;81;0;0;0.28000000000000003;0.71999999999999997;0.0;0.0;98;14;87;18;0.55000000000000004;0.23000000000000001;0.16;0.059999999999999901;0;6.474164501253654;13;13;23;1; 
2019_03_04 10:36;22;2;1;control;33;34;1;32;48;0;0;0.28000000000000003;0.71999999999999997;0.0;0.0;97;83;7;62;0.040000000000000001;0.54000000000000004;0.35999999999999999;0.059999999999999901;0;11.407011576166042;13;13;23;1; 
2019_03_04 10:36;22;2;1;control;34;69;1;54;34;64;49;0.34000000000000002;0.25;0.20999999999999999;0.20000000000000001;14;98;0;0;0.62;0.38;0.0;0.0;0;5.653275316729378;13;13;23;1; 
2019_03_04 10:36;22;2;1;control;35;119;1;60;58;11;18;0.25;0.72999999999999998;0.01;0.01;96;23;42;85;0.44;0.48999999999999999;0.059999999999999998;0.010000000000000101;1;4.102520303352321;13;13;23;1; 
2019_03_04 10:36;22;2;1;control;36;88;0;77;13;12;7;0.12;0.19;0.66000000000000003;0.029999999999999898;94;2;0;0;0.40999999999999998;0.58999999999999997;0.0;0.0;0;11.6371644518631;13;13;23;1; 
2019_03_04 10:36;22;2;1;control;37;3;0;53;40;0;0;0.31;0.68999999999999995;0.0;0.0;96;24;7;88;0.11;0.27000000000000002;0.58999999999999997;0.029999999999999999;0;3.6723515839539687;13;13;23;1; 
2019_03_04 10:36;22;2;1;control;38;29;1;44;51;0;0;0.78000000000000003;0.22;0.0;0.0;74;1;68;82;0.69999999999999996;0.28000000000000003;0.01;0.01;0;2.951522118001776;13;13;23;1; 
2019_03_04 10:36;22;2;1;control;39;61;1;43;18;39;70;0.75;0.089999999999999997;0.089999999999999997;0.070000000000000007;16;66;0;0;0.64000000000000001;0.35999999999999999;0.0;0.0;0;9.165904415646764;13;13;23;1; 
2019_03_04 10:36;22;2;1;control;40;90;0;27;44;50;72;0.68000000000000005;0.28999999999999998;0.02;0.0099999999999999707;6;96;0;0;0.46999999999999997;0.53000000000000003;0.0;0.0;0;4.5230185910131695;13;13;23;1; 
2019_03_04 10:36;22;2;1;control;41;14;0;36;40;0;0;0.54000000000000004;0.46000000000000002;0.0;0.0;99;70;1;11;0.16;0.089999999999999997;0.080000000000000002;0.67000000000000004;0;2.7717531794842216;13;13;23;1; 
2019_03_04 10:36;22;2;1;control;42;72;1;63;82;51;61;0.01;0.96999999999999997;0.01;0.01;92;12;0;0;0.89000000000000001;0.11;0.0;0.0;0;5.643256580107845;13;13;23;1; 
2019_03_04 10:36;22;2;1;control;43;112;1;70;44;98;64;0.02;0.75;0.12;0.11;33;2;63;85;0.23999999999999999;0.31;0.080000000000000002;0.37;0;6.43412804149375;13;13;23;1; 
2019_03_04 10:36;22;2;1;control;44;104;1;55;85;93;3;0.87;0.02;0.089999999999999997;0.02;1;2;90;8;0.35999999999999999;0.070000000000000007;0.40000000000000002;0.17000000000000001;0;2.8719447150988344;13;13;23;1; 
2019_03_04 10:36;22;2;1;control;45;115;0;50;28;61;79;0.83999999999999997;0.040000000000000001;0.059999999999999998;0.059999999999999998;1;26;97;55;0.45000000000000001;0.080000000000000002;0.40999999999999998;0.060000000000000102;0;2.891808356623187;13;13;23;1; 
2019_03_04 10:36;22;2;1;control;46;59;1;56;47;83;90;0.31;0.12;0.54000000000000004;0.029999999999999898;10;98;0;0;0.46999999999999997;0.53000000000000003;0.0;0.0;0;4.573059675594777;13;13;23;1; 
2019_03_04 10:36;22;2;1;control;47;41;1;99;40;0;0;0.89000000000000001;0.11;0.0;0.0;1;67;52;46;0.51000000000000001;0.38;0.029999999999999999;0.080000000000000002;0;7.744995282168929;13;13;23;1; 
2019_03_04 10:36;22;2;1;control;48;20;1;44;40;0;0;0.91000000000000003;0.089999999999999997;0.0;0.0;29;5;80;99;0.25;0.40000000000000002;0.26000000000000001;0.089999999999999997;0;4.5929380703655625;13;13;23;1; 
2019_03_04 10:36;22;2;1;control;49;43;1;60;83;0;0;0.23000000000000001;0.77000000000000002;0.0;0.0;72;5;70;12;0.29999999999999999;0.40999999999999998;0.12;0.17000000000000001;0;5.263363393605687;13;13;23;1; 
2019_03_04 10:36;22;2;1;control;50;89;0;26;41;13;56;0.059999999999999998;0.40999999999999998;0.050000000000000003;0.47999999999999998;5;97;0;0;0.37;0.63;0.0;0.0;0;6.583878936149631;13;13;23;1; 
2019_03_04 10:36;22;2;1;control;51;94;0;84;86;93;39;0.78000000000000003;0.20000000000000001;0.01;0.0099999999999999603;9;83;0;0;0.46999999999999997;0.53000000000000003;0.0;0.0;0;3.872438307379525;13;13;23;1; 
2019_03_04 10:36;22;2;1;control;52;44;1;79;74;0;0;0.71999999999999997;0.28000000000000003;0.0;0.0;3;67;15;36;0.41999999999999998;0.53000000000000003;0.02;0.029999999999999999;0;4.442626231655595;13;13;23;1; 
2019_03_04 10:36;22;2;1;control;53;105;0;49;74;63;58;0.84999999999999998;0.080000000000000002;0.02;0.050000000000000003;97;5;86;8;0.25;0.52000000000000002;0.070000000000000007;0.16;0;4.633141947389959;13;13;23;1; 
2019_03_04 10:36;22;2;1;control;54;97;1;17;33;32;74;0.94999999999999996;0.01;0.029999999999999999;0.01;76;23;0;0;0.33000000000000002;0.67000000000000004;0.0;0.0;1;5.133282744667667;13;13;23;1; 
2019_03_04 10:36;22;2;1;control;55;113;1;85;65;39;64;0.44;0.34000000000000002;0.13;0.089999999999999997;87;2;4;35;0.67000000000000004;0.17000000000000001;0.11;0.049999999999999899;0;3.8025537868052197;13;13;23;1; 
2019_03_04 10:36;22;2;1;control;56;136;0;29;67;14;75;0.46000000000000002;0.29999999999999999;0.20999999999999999;0.0300000000000001;70;86;1;85;0.31;0.39000000000000001;0.27000000000000002;0.029999999999999898;0;4.523012497281343;13;13;23;1; 
2019_03_04 10:36;22;2;1;control;57;146;1;25;5;64;35;0.94999999999999996;0.02;0.01;0.02;47;97;12;79;0.20999999999999999;0.029999999999999999;0.02;0.73999999999999999;1;4.5130117211319885;13;13;23;1; 
2019_03_04 10:36;22;2;1;control;58;131;0;83;41;81;88;0.23999999999999999;0.58999999999999997;0.10000000000000001;0.070000000000000007;82;97;4;17;0.26000000000000001;0.46999999999999997;0.11;0.16;0;3.27209250413307;13;13;23;1; 
2019_03_04 10:36;22;2;1;control;59;77;0;24;17;99;41;0.17999999999999999;0.13;0.10000000000000001;0.58999999999999997;12;97;0;0;0.59999999999999998;0.40000000000000002;0.0;0.0;0;5.4936868937938925;13;13;23;1; 
2019_03_04 10:36;22;2;1;control;60;116;0;53;65;43;99;0.56999999999999995;0.37;0.050000000000000003;0.010000000000000101;57;72;11;87;0.67000000000000004;0.13;0.14999999999999999;0.050000000000000003;0;9.185937719494177;13;13;23;1; 
2019_03_04 10:36;22;2;1;control;61;33;1;27;70;0;0;0.88;0.12;0.0;0.0;93;3;77;16;0.080000000000000002;0.40000000000000002;0.5;0.02;0;6.274167259469323;13;13;23;1; 
2019_03_04 10:36;22;2;1;control;62;68;0;84;27;55;62;0.01;0.050000000000000003;0.40999999999999998;0.53000000000000003;9;82;0;0;0.37;0.63;0.0;0.0;0;3.602294193828129;13;13;23;1; 
2019_03_04 10:36;22;2;1;control;63;26;1;76;41;0;0;0.57999999999999996;0.41999999999999998;0.0;0.0;61;79;84;2;0.13;0.029999999999999999;0.67000000000000004;0.17000000000000001;0;4.683154166926215;13;13;23;1; 
2019_03_04 10:36;22;2;1;control;64;62;1;12;45;16;50;0.20999999999999999;0.76000000000000001;0.02;0.01;92;15;0;0;0.20999999999999999;0.79000000000000004;0.0;0.0;1;18.37203932830471;13;13;23;1; 
2019_03_04 10:36;22;2;1;control;65;127;1;89;26;62;79;0.02;0.28999999999999998;0.53000000000000003;0.16;96;6;60;13;0.53000000000000003;0.25;0.17000000000000001;0.050000000000000003;0;9.1560550206259;13;13;23;1; 
2019_03_04 10:36;22;2;1;control;66;27;0;44;26;0;0;0.35999999999999999;0.64000000000000001;0.0;0.0;63;10;3;5;0.58999999999999997;0.19;0.14999999999999999;0.070000000000000007;0;6.9240996831895245;13;13;23;1; 
2019_03_04 10:36;22;2;1;control;67;96;0;51;54;39;7;0.17000000000000001;0.26000000000000001;0.10000000000000001;0.46999999999999997;24;96;0;0;0.28000000000000003;0.71999999999999997;0.0;0.0;1;3.9621742820136205;13;13;23;1; 
2019_03_04 10:36;22;2;1;control;68;7;1;49;29;0;0;0.95999999999999996;0.040000000000000001;0.0;0.0;23;99;64;25;0.68999999999999995;0.12;0.059999999999999998;0.13;0;10.95708665735674;13;13;23;1; 
2019_03_04 10:36;22;2;1;control;69;63;0;56;78;42;36;0.93000000000000005;0.040000000000000001;0.01;0.0199999999999999;2;72;0;0;0.32000000000000001;0.68000000000000005;0.0;0.0;0;6.704083249357609;13;13;23;1; 
2019_03_04 10:36;22;2;1;control;70;78;1;74;36;34;3;0.14999999999999999;0.64000000000000001;0.13;0.080000000000000002;1;83;0;0;0.41999999999999998;0.57999999999999996;0.0;0.0;0;12.067926187587545;13;13;23;1; 
2019_03_04 10:36;22;2;1;control;71;48;0;13;32;0;0;0.90000000000000002;0.10000000000000001;0.0;0.0;24;99;84;94;0.62;0.14999999999999999;0.20000000000000001;0.029999999999999999;1;9.185583320879232;13;13;23;1; 
2019_03_04 10:36;22;2;1;control;72;141;1;93;28;60;91;0.81999999999999995;0.10000000000000001;0.01;0.070000000000000007;14;85;7;89;0.45000000000000001;0.070000000000000007;0.23999999999999999;0.23999999999999999;0;3.3321122349943835;13;13;23;1; 
2019_03_04 10:36;22;2;1;control;73;13;1;52;56;0;0;0.46999999999999997;0.53000000000000003;0.0;0.0;94;71;27;2;0.089999999999999997;0.31;0.57999999999999996;0.020000000000000101;0;8.375519169918334;13;13;23;1; 
2019_03_04 10:36;22;2;1;control;74;110;1;47;44;23;52;0.13;0.27000000000000002;0.040000000000000001;0.56000000000000005;99;2;30;22;0.28999999999999998;0.5;0.11;0.10000000000000001;0;5.71366452017628;13;13;23;1; 
2019_03_04 10:36;22;2;1;control;75;60;1;64;59;57;96;0.83999999999999997;0.13;0.02;0.01;83;6;0;0;0.54000000000000004;0.46000000000000002;0.0;0.0;0;2.131326977464596;13;13;23;1; 
2019_03_04 10:36;22;3;1;timed;1;5;0;70;5;0;0;0.98999999999999999;0.01;0.0;0.0;92;87;47;1;0.44;0.02;0.16;0.38;0;2.74459983104407;13;13;23;1; 
2019_03_04 10:36;22;3;1;timed;2;127;1;89;26;62;79;0.02;0.28999999999999998;0.53000000000000003;0.16;96;6;60;13;0.53000000000000003;0.25;0.17000000000000001;0.050000000000000003;0;3.3621309203008423;13;13;23;1; 
2019_03_04 10:36;22;3;1;timed;3;32;1;19;81;0;0;0.93000000000000005;0.070000000000000007;0.0;0.0;1;65;41;68;0.45000000000000001;0.050000000000000003;0.059999999999999998;0.44;0;2.821919345930837;13;13;23;1; 
2019_03_04 10:36;22;3;1;timed;4;89;1;26;41;13;56;0.059999999999999998;0.40999999999999998;0.050000000000000003;0.47999999999999998;5;97;0;0;0.37;0.63;0.0;0.0;0;3.1121387780076475;13;13;23;1; 
2019_03_04 10:36;22;3;1;timed;5;143;1;88;44;56;73;0.95999999999999996;0.02;0.01;0.01;20;3;87;32;0.19;0.40000000000000002;0.28000000000000003;0.13;0;2.871820916125216;13;13;23;1; 
2019_03_04 10:36;22;3;1;timed;6;105;0;49;74;63;58;0.84999999999999998;0.080000000000000002;0.02;0.050000000000000003;97;5;86;8;0.25;0.52000000000000002;0.070000000000000007;0.16;0;2.6418239116756013;13;13;23;1; 
2019_03_04 10:36;22;3;1;timed;7;19;1;22;53;0;0;0.13;0.87;0.0;0.0;4;93;96;65;0.46999999999999997;0.059999999999999998;0.26000000000000001;0.20999999999999999;0;2.881822654442658;13;13;23;1; 
2019_03_04 10:36;22;3;1;timed;8;60;0;64;59;57;96;0.83999999999999997;0.13;0.02;0.01;83;6;0;0;0.54000000000000004;0.46000000000000002;0.0;0.0;0;3.111641337054607;13;13;23;1; 
2019_03_04 10:36;22;3;1;timed;9;36;1;70;17;0;0;0.33000000000000002;0.67000000000000004;0.0;0.0;84;1;12;88;0.22;0.27000000000000002;0.14000000000000001;0.37;0;3.9221551412811095;13;13;23;1; 
2019_03_04 10:36;22;3;1;timed;10;4;0;40;43;0;0;0.58999999999999997;0.40999999999999998;0.0;0.0;2;33;88;81;0.69999999999999996;0.14000000000000001;0.13;0.029999999999999999;0;2.1109575561949896;13;13;23;1; 
2019_03_04 10:36;22;3;1;timed;11;56;1;28;84;37;41;0.68000000000000005;0.28000000000000003;0.02;0.0199999999999999;6;95;0;0;0.72999999999999998;0.27000000000000002;0.0;0.0;0;3.5023611607339262;13;13;23;1; 
2019_03_04 10:36;22;3;1;timed;12;100;1;27;14;59;52;0.02;0.95999999999999996;0.01;0.01;17;98;0;0;0.48999999999999999;0.51000000000000001;0.0;0.0;1;3.7224908096904983;13;13;23;1; 
2019_03_04 10:36;22;3;1;timed;13;28;0;47;30;0;0;0.97999999999999998;0.02;0.0;0.0;55;48;77;13;0.070000000000000007;0.26000000000000001;0.42999999999999999;0.23999999999999999;1;4.642621549103751;13;13;23;1; 
2019_03_04 10:36;22;3;1;timed;14;8;0;50;36;0;0;0.080000000000000002;0.92000000000000004;0.0;0.0;6;19;84;29;0.54000000000000004;0.070000000000000007;0.17000000000000001;0.22;0;3.661998333524025;13;13;23;1; 
2019_03_04 10:36;22;3;1;timed;15;16;1;64;53;0;0;0.65000000000000002;0.34999999999999998;0.0;0.0;29;17;81;46;0.10000000000000001;0.01;0.44;0.45000000000000001;0;4.272724648631993;13;13;23;1; 
2019_03_04 10:36;22;3;1;timed;16;113;1;85;65;39;64;0.44;0.34000000000000002;0.13;0.089999999999999997;87;2;4;35;0.67000000000000004;0.17000000000000001;0.11;0.049999999999999899;0;2.6717062898214863;13;13;23;1; 
2019_03_04 10:36;22;3;1;timed;17;129;1;12;29;81;36;0.17999999999999999;0.79000000000000004;0.01;0.02;5;19;95;92;0.47999999999999998;0.26000000000000001;0.13;0.13;0;3.492354290852745;13;13;23;1; 
2019_03_04 10:36;22;3;1;timed;18;46;1;5;19;0;0;0.32000000000000001;0.68000000000000005;0.0;0.0;88;38;97;66;0.60999999999999999;0.20000000000000001;0.040000000000000001;0.14999999999999999;1;2.171351570483239;13;13;23;1; 
2019_03_04 10:36;22;3;1;timed;19;18;1;68;50;0;0;0.029999999999999999;0.96999999999999997;0.0;0.0;34;64;15;89;0.65000000000000002;0.029999999999999999;0.050000000000000003;0.27000000000000002;0;2.6613142319429244;13;13;23;1; 
2019_03_04 10:36;22;3;1;timed;20;59;1;56;47;83;90;0.31;0.12;0.54000000000000004;0.029999999999999898;10;98;0;0;0.46999999999999997;0.53000000000000003;0.0;0.0;0;4.332788959954087;13;13;23;1; 
2019_03_04 10:36;22;3;1;timed;21;63;0;56;78;42;36;0.93000000000000005;0.040000000000000001;0.01;0.0199999999999999;2;72;0;0;0.32000000000000001;0.68000000000000005;0.0;0.0;0;2.431649816963727;13;13;23;1; 
2019_03_04 10:36;22;3;1;timed;22;94;0;84;86;93;39;0.78000000000000003;0.20000000000000001;0.01;0.0099999999999999603;9;83;0;0;0.46999999999999997;0.53000000000000003;0.0;0.0;0;2.48120853456021;13;13;23;1; 
2019_03_04 10:36;22;3;1;timed;23;9;1;61;69;0;0;0.93999999999999995;0.060000000000000102;0.0;0.0;18;93;72;16;0.40999999999999998;0.34999999999999998;0.089999999999999997;0.14999999999999999;0;3.201677187441419;13;13;23;1; 
2019_03_04 10:36;22;3;1;timed;24;70;1;66;55;69;50;0.22;0.29999999999999999;0.29999999999999999;0.17999999999999999;2;90;0;0;0.34000000000000002;0.66000000000000003;0.0;0.0;0;2.1413431483042586;13;13;23;1; 
2019_03_04 10:36;22;3;1;timed;25;12;1;53;68;0;0;0.31;0.68999999999999995;0.0;0.0;69;54;97;29;0.25;0.20999999999999999;0.20000000000000001;0.34000000000000002;0;5.213483632557654;13;13;23;1; 
2019_03_04 10:36;22;3;1;timed;26;73;0;65;68;70;47;0.25;0.23000000000000001;0.20999999999999999;0.31;27;95;0;0;0.45000000000000001;0.55000000000000004;0.0;0.0;0;2.921659945387546;13;13;23;1; 
2019_03_04 10:36;22;3;1;timed;27;131;0;83;41;81;88;0.23999999999999999;0.58999999999999997;0.10000000000000001;0.070000000000000007;82;97;4;17;0.26000000000000001;0.46999999999999997;0.11;0.16;0;3.8724569092983074;13;13;23;1; 
2019_03_04 10:36;22;3;1;timed;28;76;0;39;62;9;28;0.01;0.51000000000000001;0.26000000000000001;0.22;77;7;0;0;0.57999999999999996;0.41999999999999998;0.0;0.0;0;3.992720235487468;13;13;23;1; 
2019_03_04 10:36;22;3;1;timed;29;133;1;59;88;60;36;0.67000000000000004;0.070000000000000007;0.12;0.14000000000000001;7;91;66;61;0.25;0.68999999999999995;0.01;0.0500000000000001;0;2.8217926604529566;13;13;23;1; 
2019_03_04 10:36;22;3;1;timed;30;144;1;99;93;90;71;0.65000000000000002;0.32000000000000001;0.01;0.02;97;14;48;73;0.23000000000000001;0.46000000000000002;0.13;0.17999999999999999;0;2.951868819272022;13;13;23;1; 
2019_03_04 10:36;22;3;1;timed;31;104;0;55;85;93;3;0.87;0.02;0.089999999999999997;0.02;1;2;90;8;0.35999999999999999;0.070000000000000007;0.40000000000000002;0.17000000000000001;0;3.0720869235574355;13;13;23;1; 
2019_03_04 10:36;22;3;1;timed;32;149;0;14;89;73;53;0.93999999999999995;0.01;0.01;0.040000000000000001;97;45;6;13;0.34000000000000002;0.01;0.40999999999999998;0.23999999999999999;0;3.2220267239008535;13;13;23;1; 
2019_03_04 10:36;22;3;1;timed;33;82;0;78;66;30;27;0.28999999999999998;0.58999999999999997;0.080000000000000002;0.040000000000000001;90;6;0;0;0.82999999999999996;0.17000000000000001;0.0;0.0;0;4.5430377830616635;13;13;23;1; 
2019_03_04 10:36;22;3;1;timed;34;27;1;44;26;0;0;0.35999999999999999;0.64000000000000001;0.0;0.0;63;10;3;5;0.58999999999999997;0.19;0.14999999999999999;0.070000000000000007;0;4.372760954444857;13;13;23;1; 
2019_03_04 10:36;22;3;1;timed;35;66;1;89;23;27;15;0.070000000000000007;0.54000000000000004;0.17000000000000001;0.22;9;73;0;0;0.72999999999999998;0.27000000000000002;0.0;0.0;0;3.402172832346878;13;13;23;1; 
2019_03_04 10:36;22;3;1;timed;36;78;1;74;36;34;3;0.14999999999999999;0.64000000000000001;0.13;0.080000000000000002;1;83;0;0;0.41999999999999998;0.57999999999999996;0.0;0.0;0;3.7824018155470185;13;13;23;1; 
2019_03_04 10:36;22;3;1;timed;37;22;0;32;55;0;0;0.39000000000000001;0.60999999999999999;0.0;0.0;93;72;59;22;0.20000000000000001;0.11;0.14000000000000001;0.55000000000000004;1;3.922128842017628;13;13;23;1; 
2019_03_04 10:36;22;3;1;timed;38;71;0;68;55;36;51;0.20000000000000001;0.75;0.02;0.029999999999999999;38;81;0;0;0.52000000000000002;0.47999999999999998;0.0;0.0;0;4.102759241785861;13;13;23;1; 
2019_03_04 10:36;22;3;1;timed;39;14;0;36;40;0;0;0.54000000000000004;0.46000000000000002;0.0;0.0;99;70;1;11;0.16;0.089999999999999997;0.080000000000000002;0.67000000000000004;0;4.102735187581857;13;13;23;1; 
2019_03_04 10:36;22;3;1;timed;40;95;0;93;88;68;85;0.83999999999999997;0.14000000000000001;0.01;0.01;2;82;0;0;0.41999999999999998;0.57999999999999996;0.0;0.0;0;2.831592343450211;13;13;23;1; 
2019_03_04 10:36;22;3;1;timed;41;68;1;84;27;55;62;0.01;0.050000000000000003;0.40999999999999998;0.53000000000000003;9;82;0;0;0.37;0.63;0.0;0.0;0;2.1913749319273848;13;13;23;1; 
2019_03_04 10:36;22;3;1;timed;42;97;0;17;33;32;74;0.94999999999999996;0.01;0.029999999999999999;0.01;76;23;0;0;0.33000000000000002;0.67000000000000004;0.0;0.0;1;4.222717239937083;13;13;23;1; 
2019_03_04 10:36;22;3;1;timed;43;6;0;9;51;0;0;0.14999999999999999;0.84999999999999998;0.0;0.0;6;40;50;73;0.42999999999999999;0.26000000000000001;0.059999999999999998;0.25;0;5.293571305322075;13;13;23;1; 
2019_03_04 10:36;22;3;1;timed;44;90;0;27;44;50;72;0.68000000000000005;0.28999999999999998;0.02;0.0099999999999999707;6;96;0;0;0.46999999999999997;0.53000000000000003;0.0;0.0;0;3.742014164397915;13;13;23;1; 
2019_03_04 10:36;22;3;1;timed;45;34;0;32;48;0;0;0.28000000000000003;0.71999999999999997;0.0;0.0;97;83;7;62;0.040000000000000001;0.54000000000000004;0.35999999999999999;0.059999999999999901;0;3.111619207186777;13;13;23;1; 
2019_03_04 10:36;22;3;1;timed;46;139;0;44;31;16;8;0.79000000000000004;0.070000000000000007;0.13;0.0099999999999999499;92;58;2;88;0.55000000000000004;0.070000000000000007;0.34000000000000002;0.039999999999999897;0;2.8217705305842173;13;13;23;1; 
2019_03_04 10:36;22;3;1;timed;47;86;0;56;30;57;88;0.20000000000000001;0.35999999999999999;0.080000000000000002;0.35999999999999999;98;2;0;0;0.77000000000000002;0.23000000000000001;0.0;0.0;0;2.291576089222872;13;13;23;1; 
2019_03_04 10:36;22;3;1;timed;48;130;1;37;79;23;95;0.94999999999999996;0.029999999999999999;0.01;0.01;94;4;58;49;0.46000000000000002;0.5;0.029999999999999999;0.01;0;3.8525708171819133;13;13;23;1; 
2019_03_04 10:36;22;3;1;timed;49;47;0;2;40;0;0;0.45000000000000001;0.55000000000000004;0.0;0.0;93;89;11;56;0.58999999999999997;0.070000000000000007;0.28000000000000003;0.059999999999999998;1;2.6316592462117114;13;13;23;1; 
2019_03_04 10:36;22;3;1;timed;50;146;0;25;5;64;35;0.94999999999999996;0.02;0.01;0.02;47;97;12;79;0.20999999999999999;0.029999999999999999;0.02;0.73999999999999999;1;3.9425139786999353;13;13;23;1; 
2019_03_04 10:36;22;3;1;timed;51;2;1;59;32;0;0;0.080000000000000002;0.92000000000000004;0.0;0.0;33;38;85;1;0.28999999999999998;0.050000000000000003;0.070000000000000007;0.58999999999999997;0;2.351476190507128;13;13;23;1; 
2019_03_04 10:36;22;3;1;timed;52;69;1;54;34;64;49;0.34000000000000002;0.25;0.20999999999999999;0.20000000000000001;14;98;0;0;0.62;0.38;0.0;0.0;0;3.571936825319426;13;13;23;1; 
2019_03_04 10:36;22;3;1;timed;53;48;1;13;32;0;0;0.90000000000000002;0.10000000000000001;0.0;0.0;24;99;84;94;0.62;0.14999999999999999;0.20000000000000001;0.029999999999999999;1;3.351914618477167;13;13;23;1; 
2019_03_04 10:36;22;3;1;timed;54;58;0;37;58;76;34;0.20999999999999999;0.57999999999999996;0.19;0.020000000000000101;86;5;0;0;0.47999999999999998;0.52000000000000002;0.0;0.0;0;2.471587173399712;13;13;23;1; 
2019_03_04 10:36;22;3;1;timed;55;42;0;70;48;0;0;0.79000000000000004;0.20999999999999999;0.0;0.0;51;8;12;67;0.19;0.26000000000000001;0.28999999999999998;0.26000000000000001;0;2.551279395040183;13;13;23;1; 
2019_03_04 10:36;22;3;1;timed;56;124;1;37;65;15;41;0.17999999999999999;0.45000000000000001;0.02;0.34999999999999998;40;7;98;30;0.070000000000000007;0.45000000000000001;0.45000000000000001;0.029999999999999898;0;3.682008224613128;13;13;23;1; 
2019_03_04 10:36;22;3;1;timed;57;17;0;81;52;0;0;0.059999999999999998;0.93999999999999995;0.0;0.0;34;3;69;41;0.01;0.22;0.75;0.02;0;3.201698034417859;13;13;23;1; 
2019_03_04 10:36;22;3;1;timed;58;123;1;26;24;51;92;0.72999999999999998;0.16;0.070000000000000007;0.040000000000000001;6;90;82;49;0.64000000000000001;0.25;0.050000000000000003;0.059999999999999998;0;2.4715547804044036;13;13;23;1; 
2019_03_04 10:36;22;3;1;timed;59;3;1;53;40;0;0;0.31;0.68999999999999995;0.0;0.0;96;24;7;88;0.11;0.27000000000000002;0.58999999999999997;0.029999999999999999;0;2.901612529738486;13;13;23;1; 
2019_03_04 10:36;22;3;1;timed;60;103;1;38;49;89;50;0.89000000000000001;0.070000000000000007;0.01;0.029999999999999999;6;64;99;27;0.70999999999999996;0.17999999999999999;0.059999999999999998;0.050000000000000003;0;3.0120344789756928;13;13;23;1; 
2019_03_04 10:36;22;3;1;timed;61;117;0;65;85;92;41;0.23000000000000001;0.17999999999999999;0.54000000000000004;0.050000000000000003;99;93;10;13;0.64000000000000001;0.16;0.01;0.19;0;3.432285168690214;13;13;23;1; 
2019_03_04 10:36;22;3;1;timed;62;72;0;63;82;51;61;0.01;0.96999999999999997;0.01;0.01;92;12;0;0;0.89000000000000001;0.11;0.0;0.0;0;4.0822711531072855;13;13;23;1; 
2019_03_04 10:36;22;3;1;timed;63;62;1;12;45;16;50;0.20999999999999999;0.76000000000000001;0.02;0.01;92;15;0;0;0.20999999999999999;0.79000000000000004;0.0;0.0;1;3.922141350203674;13;13;23;1; 
2019_03_04 10:36;22;3;1;timed;64;26;0;76;41;0;0;0.57999999999999996;0.41999999999999998;0.0;0.0;61;79;84;2;0.13;0.029999999999999999;0.67000000000000004;0.17000000000000001;0;4.052736438399734;13;13;23;1; 
2019_03_04 10:36;22;3;1;timed;65;112;1;70;44;98;64;0.02;0.75;0.12;0.11;33;2;63;85;0.23999999999999999;0.31;0.080000000000000002;0.37;0;2.5115710346326523;13;13;23;1; 
2019_03_04 10:36;22;3;1;timed;66;147;1;39;43;76;28;0.14000000000000001;0.10000000000000001;0.10000000000000001;0.66000000000000003;6;31;68;85;0.27000000000000002;0.20000000000000001;0.22;0.31;0;3.5924268383350864;13;13;23;1; 
2019_03_04 10:36;22;3;1;timed;67;122;1;35;58;25;31;0.81999999999999995;0.070000000000000007;0.080000000000000002;0.029999999999999999;18;64;68;89;0.63;0.17000000000000001;0.11;0.089999999999999997;0;4.25271347465241;13;13;23;1; 
2019_03_04 10:36;22;3;1;timed;68;109;1;75;28;16;56;0.19;0.070000000000000007;0.059999999999999998;0.68000000000000005;3;50;98;44;0.5;0.02;0.34999999999999998;0.13;0;2.531593754630194;13;13;23;1; 
2019_03_04 10:36;22;3;1;timed;69;61;0;43;18;39;70;0.75;0.089999999999999997;0.089999999999999997;0.070000000000000007;16;66;0;0;0.64000000000000001;0.35999999999999999;0.0;0.0;0;5.113401784115922;13;13;23;1; 
2019_03_04 10:36;22;3;1;timed;70;98;0;27;10;31;79;0.23000000000000001;0.67000000000000004;0.070000000000000007;0.029999999999999999;25;99;0;0;0.38;0.62;0.0;0.0;1;4.872786612263553;13;13;23;1; 
2019_03_04 10:36;22;3;1;timed;71;50;1;15;20;0;0;0.82999999999999996;0.17000000000000001;0.0;0.0;97;18;88;87;0.56999999999999995;0.39000000000000001;0.01;0.029999999999999999;1;4.052252788523219;13;13;23;1; 
2019_03_04 10:36;22;3;1;timed;72;49;1;21;30;0;0;0.53000000000000003;0.46999999999999997;0.0;0.0;93;99;89;25;0.44;0.02;0.11;0.42999999999999999;1;2.321588039351809;13;13;23;1; 
2019_03_04 10:36;22;3;1;timed;73;33;0;27;70;0;0;0.88;0.12;0.0;0.0;93;3;77;16;0.080000000000000002;0.40000000000000002;0.5;0.02;0;3.2920764166801746;13;13;23;1; 
2019_03_04 10:36;22;3;1;timed;74;101;1;30;96;61;45;0.65000000000000002;0.14000000000000001;0.11;0.10000000000000001;3;98;63;89;0.75;0.19;0.040000000000000001;0.02;0;3.4723350988051607;13;13;23;1; 
2019_03_04 10:36;22;3;1;timed;75;65;0;75;64;59;52;0.59999999999999998;0.22;0.14000000000000001;0.040000000000000001;1;99;0;0;0.35999999999999999;0.64000000000000001;0.0;0.0;0;3.371789806020388;13;13;23;1; 
2019_03_04 10:36;22;4;1;control;1;143;0;88;44;56;73;0.95999999999999996;0.02;0.01;0.01;20;3;87;32;0.19;0.40000000000000002;0.28000000000000003;0.13;0;2.5244942362915026;13;13;23;1; 
2019_03_04 10:36;22;4;1;control;2;144;1;99;93;90;71;0.65000000000000002;0.32000000000000001;0.01;0.02;97;14;48;73;0.23000000000000001;0.46000000000000002;0.13;0.17999999999999999;0;2.992023946442714;13;13;23;1; 
2019_03_04 10:36;22;4;1;control;3;24;0;35;27;0;0;0.070000000000000007;0.93000000000000005;0.0;0.0;62;3;81;95;0.35999999999999999;0.55000000000000004;0.01;0.080000000000000002;0;2.481236116715081;13;13;23;1; 
2019_03_04 10:36;22;4;1;control;4;129;1;12;29;81;36;0.17999999999999999;0.79000000000000004;0.01;0.02;5;19;95;92;0.47999999999999998;0.26000000000000001;0.13;0.13;0;2.87196620352006;13;13;23;1; 
2019_03_04 10:36;22;4;1;control;5;83;0;17;12;7;41;0.65000000000000002;0.19;0.089999999999999997;0.070000000000000007;6;84;0;0;0.72999999999999998;0.27000000000000002;0.0;0.0;0;4.592578219462666;13;13;23;1; 
2019_03_04 10:36;22;4;1;control;6;91;1;74;81;86;48;0.93000000000000005;0.02;0.01;0.039999999999999897;7;64;0;0;0.13;0.87;0.0;0.0;0;2.091467235928576;13;13;23;1; 
2019_03_04 10:36;22;4;1;control;7;150;1;25;21;78;38;0.84999999999999998;0.059999999999999998;0.050000000000000003;0.040000000000000001;31;43;64;95;0.059999999999999998;0.45000000000000001;0.13;0.35999999999999999;1;6.454168401241986;13;13;23;1; 
2019_03_04 10:36;22;4;1;control;8;32;1;19;81;0;0;0.93000000000000005;0.070000000000000007;0.0;0.0;1;65;41;68;0.45000000000000001;0.050000000000000003;0.059999999999999998;0.44;0;2.711426516971187;13;13;23;1; 
2019_03_04 10:36;22;4;1;control;9;5;1;70;5;0;0;0.98999999999999999;0.01;0.0;0.0;92;87;47;1;0.44;0.02;0.16;0.38;0;3.4922189458611683;13;13;23;1; 
2019_03_04 10:36;22;4;1;control;10;135;1;48;60;41;51;0.14000000000000001;0.40000000000000002;0.089999999999999997;0.37;94;1;85;65;0.64000000000000001;0.29999999999999999;0.01;0.050000000000000003;0;2.7719035984446236;13;13;23;1; 
2019_03_04 10:36;22;4;1;control;11;99;0;8;24;15;73;0.56000000000000005;0.35999999999999999;0.070000000000000007;0.0099999999999999499;88;12;0;0;0.52000000000000002;0.47999999999999998;0.0;0.0;1;5.533531882085299;13;13;23;1; 
2019_03_04 10:36;22;4;1;control;12;102;0;40;56;53;17;0.28000000000000003;0.26000000000000001;0.14999999999999999;0.31;1;76;29;62;0.68000000000000005;0.23000000000000001;0.050000000000000003;0.039999999999999897;0;3.91261716803092;13;13;23;1; 
2019_03_04 10:36;22;4;1;control;13;120;0;64;40;48;51;0.19;0.02;0.070000000000000007;0.71999999999999997;97;9;79;94;0.23000000000000001;0.54000000000000004;0.01;0.22;0;3.872603800307843;13;13;23;1; 
2019_03_04 10:36;22;4;1;control;14;79;0;52;46;29;22;0.17999999999999999;0.51000000000000001;0.23999999999999999;0.070000000000000104;93;14;0;0;0.45000000000000001;0.55000000000000004;0.0;0.0;0;4.252716040435189;13;13;23;1; 
2019_03_04 10:36;22;4;1;control;15;117;1;65;85;92;41;0.23000000000000001;0.17999999999999999;0.54000000000000004;0.050000000000000003;99;93;10;13;0.64000000000000001;0.16;0.01;0.19;0;7.715086284035351;13;13;23;1; 
2019_03_04 10:36;22;4;1;control;16;86;0;56;30;57;88;0.20000000000000001;0.35999999999999999;0.080000000000000002;0.35999999999999999;98;2;0;0;0.77000000000000002;0.23000000000000001;0.0;0.0;0;2.8916050184125197;13;13;23;1; 
2019_03_04 10:36;22;4;1;control;17;81;1;67;38;52;65;0.27000000000000002;0.35999999999999999;0.01;0.35999999999999999;2;77;0;0;0.14000000000000001;0.85999999999999999;0.0;0.0;0;3.091723172667116;13;13;23;1; 
2019_03_04 10:36;22;4;1;control;18;124;0;37;65;15;41;0.17999999999999999;0.45000000000000001;0.02;0.34999999999999998;40;7;98;30;0.070000000000000007;0.45000000000000001;0.45000000000000001;0.029999999999999898;0;7.074567713869328;13;13;23;1; 
2019_03_04 10:36;22;4;1;control;19;134;1;57;48;50;55;0.02;0.62;0.17999999999999999;0.17999999999999999;80;96;15;18;0.23999999999999999;0.35999999999999999;0.33000000000000002;0.070000000000000007;0;5.033359974700943;13;13;23;1; 
2019_03_04 10:36;22;4;1;control;20;54;0;44;79;78;52;0.79000000000000004;0.19;0.01;0.0099999999999999603;96;1;0;0;0.28000000000000003;0.71999999999999997;0.0;0.0;0;1.9812364374374738;13;13;23;1; 
2019_03_04 10:36;22;4;1;control;21;49;0;21;30;0;0;0.53000000000000003;0.46999999999999997;0.0;0.0;93;99;89;25;0.44;0.02;0.11;0.42999999999999999;1;4.802723128406797;13;13;23;1; 
2019_03_04 10:36;22;4;1;control;22;45;1;97;87;0;0;0.71999999999999997;0.28000000000000003;0.0;0.0;96;11;14;4;0.25;0.029999999999999999;0.14000000000000001;0.57999999999999996;0;1.8911845509137493;13;13;23;1; 
2019_03_04 10:36;22;4;1;control;23;53;0;26;70;50;80;0.29999999999999999;0.59999999999999998;0.040000000000000001;0.059999999999999998;89;1;0;0;0.40999999999999998;0.58999999999999997;0.0;0.0;0;5.053388788430311;13;13;23;1; 
2019_03_04 10:36;22;4;1;control;24;47;1;2;40;0;0;0.45000000000000001;0.55000000000000004;0.0;0.0;93;89;11;56;0.58999999999999997;0.070000000000000007;0.28000000000000003;0.059999999999999998;1;2.2213920136200613;13;13;23;1; 
2019_03_04 10:36;22;4;1;control;25;23;0;54;40;0;0;0.93000000000000005;0.070000000000000007;0.0;0.0;36;23;71;86;0.02;0.41999999999999998;0.19;0.37;1;6.263653006230015;13;13;23;1; 
2019_03_04 10:36;22;4;1;control;26;87;0;10;30;63;4;0.56999999999999995;0.12;0.16;0.14999999999999999;86;2;0;0;0.42999999999999999;0.56999999999999995;0.0;0.0;0;2.2514100574790064;13;13;23;1; 
2019_03_04 10:36;22;4;1;control;27;121;1;42;51;47;70;0.41999999999999998;0.17000000000000001;0.23999999999999999;0.17000000000000001;21;76;48;9;0.14999999999999999;0.34000000000000002;0.40999999999999998;0.10000000000000001;0;6.274022934241657;13;13;23;1; 
2019_03_04 10:36;22;4;1;control;28;95;0;93;88;68;85;0.83999999999999997;0.14000000000000001;0.01;0.01;2;82;0;0;0.41999999999999998;0.57999999999999996;0.0;0.0;0;2.2910876285059203;13;13;23;1; 
2019_03_04 10:36;22;4;1;control;29;36;1;70;17;0;0;0.33000000000000002;0.67000000000000004;0.0;0.0;84;1;12;88;0.22;0.27000000000000002;0.14000000000000001;0.37;0;5.393452381333191;13;13;23;1; 
2019_03_04 10:36;22;4;1;control;30;98;0;27;10;31;79;0.23000000000000001;0.67000000000000004;0.070000000000000007;0.029999999999999999;25;99;0;0;0.38;0.62;0.0;0.0;1;5.022862399046062;13;13;23;1; 
2019_03_04 10:36;22;4;1;control;31;147;0;39;43;76;28;0.14000000000000001;0.10000000000000001;0.10000000000000001;0.66000000000000003;6;31;68;85;0.27000000000000002;0.20000000000000001;0.22;0.31;0;4.713011207975796;13;13;23;1; 
2019_03_04 10:36;22;4;1;control;32;2;1;59;32;0;0;0.080000000000000002;0.92000000000000004;0.0;0.0;33;38;85;1;0.28999999999999998;0.050000000000000003;0.070000000000000007;0.58999999999999997;0;3.321912931476618;13;13;23;1; 
2019_03_04 10:36;22;4;1;control;33;39;1;14;33;0;0;0.78000000000000003;0.22;0.0;0.0;93;84;1;25;0.14000000000000001;0.23999999999999999;0.39000000000000001;0.23000000000000001;0;4.312868229784726;13;13;23;1; 
2019_03_04 10:36;22;4;1;control;34;123;0;26;24;51;92;0.72999999999999998;0.16;0.070000000000000007;0.040000000000000001;6;90;82;49;0.64000000000000001;0.25;0.050000000000000003;0.059999999999999998;0;2.1913951374590397;13;13;23;1; 
2019_03_04 10:36;22;4;1;control;35;106;0;85;69;22;61;0.10000000000000001;0.58999999999999997;0.17999999999999999;0.13;20;79;91;84;0.55000000000000004;0.14999999999999999;0.26000000000000001;0.039999999999999897;0;3.1616734414001257;13;13;23;1; 
2019_03_04 10:36;22;4;1;control;36;130;1;37;79;23;95;0.94999999999999996;0.029999999999999999;0.01;0.01;94;4;58;49;0.46000000000000002;0.5;0.029999999999999999;0.01;0;3.3117505110712955;13;13;23;1; 
2019_03_04 10:36;22;4;1;control;37;107;0;52;48;13;63;0.68000000000000005;0.19;0.050000000000000003;0.079999999999999905;54;91;33;3;0.19;0.17999999999999999;0.33000000000000002;0.29999999999999999;0;4.352922008571113;13;13;23;1; 
2019_03_04 10:36;22;4;1;control;38;76;1;39;62;9;28;0.01;0.51000000000000001;0.26000000000000001;0.22;77;7;0;0;0.57999999999999996;0.41999999999999998;0.0;0.0;0;12.707862646000649;13;13;23;1; 
2019_03_04 10:36;22;4;1;control;39;138;1;8;20;43;51;0.38;0.5;0.02;0.10000000000000001;72;82;70;1;0.39000000000000001;0.050000000000000003;0.070000000000000007;0.48999999999999999;0;2.6516935122272116;13;13;23;1; 
2019_03_04 10:36;22;4;1;control;40;9;0;61;69;0;0;0.93999999999999995;0.060000000000000102;0.0;0.0;18;93;72;16;0.40999999999999998;0.34999999999999998;0.089999999999999997;0.14999999999999999;0;3.00168539794322;13;13;23;1; 
2019_03_04 10:36;22;4;1;control;41;35;1;33;37;0;0;0.88;0.12;0.0;0.0;63;4;79;98;0.16;0.46000000000000002;0.17000000000000001;0.20999999999999999;0;2.9919001474681863;13;13;23;1; 
2019_03_04 10:36;22;4;1;control;42;128;0;70;49;27;54;0.27000000000000002;0.53000000000000003;0.02;0.17999999999999999;72;97;6;20;0.29999999999999999;0.39000000000000001;0.22;0.0899999999999999;0;3.111971681464638;13;13;23;1; 
2019_03_04 10:36;22;4;1;control;43;142;0;98;65;64;84;0.88;0.070000000000000007;0.01;0.040000000000000001;5;68;60;16;0.46000000000000002;0.080000000000000002;0.27000000000000002;0.19;0;2.791756976843317;13;13;23;1; 
2019_03_04 10:36;22;4;1;control;44;25;0;50;53;0;0;0.82999999999999996;0.17000000000000001;0.0;0.0;83;16;97;4;0.45000000000000001;0.29999999999999999;0.11;0.14000000000000001;0;4.6630070065075415;13;13;23;1; 
2019_03_04 10:36;22;4;1;control;45;64;0;48;39;34;19;0.46000000000000002;0.5;0.02;0.02;13;92;0;0;0.68999999999999995;0.31;0.0;0.0;0;4.963170446812001;13;13;23;1; 
2019_03_04 10:36;22;4;1;control;46;19;0;22;53;0;0;0.13;0.87;0.0;0.0;4;93;96;65;0.46999999999999997;0.059999999999999998;0.26000000000000001;0.20999999999999999;0;3.0119180566252908;13;13;23;1; 
2019_03_04 10:36;22;4;1;control;47;65;0;75;64;59;52;0.59999999999999998;0.22;0.14000000000000001;0.040000000000000001;1;99;0;0;0.35999999999999999;0.64000000000000001;0.0;0.0;0;2.7218147261755803;13;13;23;1; 
2019_03_04 10:36;22;4;1;control;48;93;0;87;81;73;98;0.80000000000000004;0.040000000000000001;0.14999999999999999;0.0099999999999999499;5;71;0;0;0.51000000000000001;0.48999999999999999;0.0;0.0;0;2.4615463069112593;13;13;23;1; 
2019_03_04 10:36;22;4;1;control;49;58;1;37;58;76;34;0.20999999999999999;0.57999999999999996;0.19;0.020000000000000101;86;5;0;0;0.47999999999999998;0.52000000000000002;0.0;0.0;0;3.712383874317311;13;13;23;1; 
2019_03_04 10:36;22;4;1;control;50;56;0;28;84;37;41;0.68000000000000005;0.28000000000000003;0.02;0.0199999999999999;6;95;0;0;0.72999999999999998;0.27000000000000002;0.0;0.0;0;2.411650830446888;13;13;23;1; 
2019_03_04 10:36;22;4;1;control;51;1;1;22;51;0;0;0.26000000000000001;0.73999999999999999;0.0;0.0;14;11;92;31;0.29999999999999999;0.40999999999999998;0.14999999999999999;0.14000000000000001;0;9.656354575656223;13;13;23;1; 
2019_03_04 10:36;22;4;1;control;52;74;0;66;47;52;44;0.41999999999999998;0.26000000000000001;0.17999999999999999;0.14000000000000001;17;99;0;0;0.47999999999999998;0.52000000000000002;0.0;0.0;0;3.112124024761215;13;13;23;1; 
2019_03_04 10:36;22;4;1;control;53;85;1;31;22;82;50;0.11;0.69999999999999996;0.01;0.17999999999999999;3;99;0;0;0.62;0.38;0.0;0.0;0;3.6523436172010406;13;13;23;1; 
2019_03_04 10:36;22;4;1;control;54;71;1;68;55;36;51;0.20000000000000001;0.75;0.02;0.029999999999999999;38;81;0;0;0.52000000000000002;0.47999999999999998;0.0;0.0;0;8.505529580577786;13;13;23;1; 
2019_03_04 10:36;22;4;1;control;55;51;0;52;23;43;16;0.60999999999999999;0.20999999999999999;0.01;0.17000000000000001;92;7;0;0;0.14999999999999999;0.84999999999999998;0.0;0.0;0;2.091289876258088;13;13;23;1; 
2019_03_04 10:36;22;4;1;control;56;4;1;40;43;0;0;0.58999999999999997;0.40999999999999998;0.0;0.0;2;33;88;81;0.69999999999999996;0.14000000000000001;0.13;0.029999999999999999;0;2.7617482339410344;13;13;23;1; 
2019_03_04 10:36;22;4;1;control;57;22;1;32;55;0;0;0.39000000000000001;0.60999999999999999;0.0;0.0;93;72;59;22;0.20000000000000001;0.11;0.14000000000000001;0.55000000000000004;0;13.778886694432003;13;13;23;1; 
2019_03_04 10:36;22;4;1;control;58;52;0;71;51;10;54;0.22;0.12;0.19;0.46999999999999997;91;1;0;0;0.29999999999999999;0.69999999999999996;0.0;0.0;0;1.9313367915783601;13;13;23;1; 
2019_03_04 10:36;22;4;1;control;59;37;1;14;98;0;0;0.93000000000000005;0.070000000000000007;0.0;0.0;41;2;87;66;0.17999999999999999;0.48999999999999999;0.32000000000000001;0.010000000000000101;0;3.2817404852794425;13;13;23;1; 
2019_03_04 10:36;22;4;1;control;60;122;0;35;58;25;31;0.81999999999999995;0.070000000000000007;0.080000000000000002;0.029999999999999999;18;64;68;89;0.63;0.17000000000000001;0.11;0.089999999999999997;0;12.558267943313695;13;13;23;1; 
2019_03_04 10:36;22;4;1;control;61;30;0;33;30;0;0;0.71999999999999997;0.28000000000000003;0.0;0.0;9;88;1;14;0.55000000000000004;0.39000000000000001;0.01;0.049999999999999899;0;2.6213092030102416;13;13;23;1; 
2019_03_04 10:36;22;4;1;control;62;132;1;27;70;21;19;0.64000000000000001;0.23000000000000001;0.029999999999999999;0.10000000000000001;11;85;55;6;0.39000000000000001;0.46999999999999997;0.029999999999999999;0.11;0;3.782538764153287;13;13;23;1; 
2019_03_04 10:36;22;4;1;control;63;55;1;74;55;47;48;0.60999999999999999;0.31;0.070000000000000007;0.01;97;6;0;0;0.42999999999999999;0.56999999999999995;0.0;0.0;0;3.912630638385963;13;13;23;1; 
2019_03_04 10:36;22;4;1;control;64;126;1;16;55;51;42;0.68999999999999995;0.23999999999999999;0.01;0.060000000000000102;66;4;1;5;0.46999999999999997;0.38;0.089999999999999997;0.059999999999999998;0;3.2020309446106694;13;13;23;1; 
2019_03_04 10:36;22;4;1;control;65;42;0;70;48;0;0;0.79000000000000004;0.20999999999999999;0.0;0.0;51;8;12;67;0.19;0.26000000000000001;0.28999999999999998;0.26000000000000001;0;4.342932136993113;13;13;23;1; 
2019_03_04 10:36;22;4;1;control;66;140;1;36;32;26;27;0.39000000000000001;0.14999999999999999;0.19;0.27000000000000002;44;3;99;25;0.29999999999999999;0.34000000000000002;0.34000000000000002;0.0199999999999999;0;4.272723686464815;13;13;23;1; 
2019_03_04 10:36;22;4;1;control;67;103;1;38;49;89;50;0.89000000000000001;0.070000000000000007;0.01;0.029999999999999999;6;64;99;27;0.70999999999999996;0.17999999999999999;0.059999999999999998;0.050000000000000003;0;3.052067090064156;13;13;23;1; 
2019_03_04 10:36;22;4;1;control;68;6;0;9;51;0;0;0.14999999999999999;0.84999999999999998;0.0;0.0;6;40;50;73;0.42999999999999999;0.26000000000000001;0.059999999999999998;0.25;0;6.193623518982349;13;13;23;1; 
2019_03_04 10:36;22;4;1;control;69;38;0;40;70;0;0;0.53000000000000003;0.46999999999999997;0.0;0.0;97;90;6;96;0.56999999999999995;0.070000000000000007;0.27000000000000002;0.089999999999999997;0;3.3823072664872598;13;13;23;1; 
2019_03_04 10:36;22;4;1;control;70;21;0;64;28;0;0;0.080000000000000002;0.92000000000000004;0.0;0.0;50;1;88;13;0.57999999999999996;0.13;0.02;0.27000000000000002;0;4.642613210313357;13;13;23;1; 
2019_03_04 10:36;22;4;1;control;71;118;0;62;52;65;68;0.40999999999999998;0.44;0.10000000000000001;0.0500000000000001;79;20;14;37;0.56999999999999995;0.23999999999999999;0.14000000000000001;0.050000000000000003;0;5.43349878349909;13;13;23;1; 
2019_03_04 10:36;22;4;1;control;72;149;0;14;89;73;53;0.93999999999999995;0.01;0.01;0.040000000000000001;97;45;6;13;0.34000000000000002;0.01;0.40999999999999998;0.23999999999999999;0;20.123166508336;13;13;23;1; 
2019_03_04 10:36;22;4;1;control;73;73;1;65;68;70;47;0.25;0.23000000000000001;0.20999999999999999;0.31;27;95;0;0;0.45000000000000001;0.55000000000000004;0.0;0.0;0;5.073398679520324;13;13;23;1; 
2019_03_04 10:36;22;4;1;control;74;108;0;48;72;39;70;0.14000000000000001;0.66000000000000003;0.02;0.17999999999999999;81;44;98;8;0.59999999999999998;0.029999999999999999;0.050000000000000003;0.32000000000000001;0;6.354204578765348;13;13;23;1; 
2019_03_04 10:36;22;4;1;control;75;66;1;89;23;27;15;0.070000000000000007;0.54000000000000004;0.17000000000000001;0.22;9;73;0;0;0.72999999999999998;0.27000000000000002;0.0;0.0;0;5.323440213112917;13;13;23;1; 
