date;id;block;order;cond;trial;gameid;leftright;oa1;oa2;oa3;oa4;pa1;pa2;pa3;pa4;ob1;ob2;ob3;ob4;pb1;pb2;pb3;pb4;choice;rt;paytrial;payout;alter;geschlecht;comment
2019_02_25 10:26;13;0;0;practice;1;35;0;84;95;4;35;0.89000000000000001;0.050000000000000003;0.01;0.050000000000000003;5;98;0;0;0.19;0.81000000000000005;0.0;0.0;1;9.578308191051406;12;9;23;2;
2019_02_25 10:26;13;0;0;practice;2;31;0;72;59;40;92;0.59999999999999998;0.34999999999999998;0.02;0.029999999999999999;97;29;0;0;0.38;0.62;0.0;0.0;1;7.499809171812103;12;9;23;2;
2019_02_25 10:26;13;0;0;practice;3;1;0;67;36;0;0;0.14999999999999999;0.84999999999999998;0.0;0.0;1;4;81;77;0.25;0.54000000000000004;0.14000000000000001;0.070000000000000007;0;5.51647504737025;12;9;23;2;
2019_02_25 10:26;13;0;0;practice;4;37;1;50;66;99;12;0.26000000000000001;0.71999999999999997;0.01;0.01;22;90;0;0;0.37;0.63;0.0;0.0;1;3.766537908420446;12;9;23;2;
2019_02_25 10:26;13;0;0;practice;5;65;0;35;15;77;1;0.62;0.33000000000000002;0.029999999999999999;0.02;68;3;25;96;0.38;0.28000000000000003;0.28000000000000003;0.059999999999999901;1;8.949749646246232;12;9;23;2;
2019_02_25 10:26;13;0;0;practice;6;67;1;74;31;10;77;0.11;0.070000000000000007;0.77000000000000002;0.050000000000000003;2;23;8;97;0.56999999999999995;0.01;0.059999999999999998;0.35999999999999999;0;7.749926555201569;12;9;23;2;
2019_02_25 10:26;13;0;0;practice;7;33;1;54;82;55;71;0.56000000000000005;0.20999999999999999;0.02;0.20999999999999999;13;99;0;0;0.5;0.5;0.0;0.0;1;5.966467478386676;12;9;23;2;
2019_02_25 10:26;13;0;0;practice;8;39;0;53;65;48;75;0.92000000000000004;0.029999999999999999;0.01;0.040000000000000001;16;83;0;0;0.31;0.68999999999999995;0.0;0.0;1;7.199756381358725;12;9;23;2;
2019_02_25 10:26;13;0;0;practice;9;45;1;37;40;75;23;0.54000000000000004;0.38;0.059999999999999998;0.02;1;90;0;0;0.28000000000000003;0.71999999999999997;0.0;0.0;1;6.616654073075324;12;9;23;2;
2019_02_25 10:26;13;0;0;practice;10;59;1;13;27;48;51;0.56999999999999995;0.13;0.13;0.17000000000000001;8;37;97;1;0.65000000000000002;0.16;0.14999999999999999;0.040000000000000001;0;5.216796536741072;12;9;23;2;
2019_02_25 10:26;13;0;0;practice;11;44;0;69;48;22;63;0.39000000000000001;0.40999999999999998;0.19;0.01;1;94;0;0;0.22;0.78000000000000003;0.0;0.0;1;3.666676715882204;12;9;23;2;
2019_02_25 10:26;13;0;0;practice;12;66;1;44;18;63;36;0.47999999999999998;0.10000000000000001;0.029999999999999999;0.39000000000000001;13;93;61;53;0.52000000000000002;0.45000000000000001;0.02;0.0099999999999999707;0;9.283234252344755;12;9;23;2;
2019_02_25 10:26;13;0;0;practice;13;62;0;65;52;74;55;0.16;0.12;0.14999999999999999;0.56999999999999995;72;86;2;68;0.12;0.53000000000000003;0.22;0.13;0;8.933023475395089;12;9;23;2;
2019_02_25 10:26;13;0;0;practice;14;64;0;44;60;96;45;0.53000000000000003;0.10000000000000001;0.029999999999999999;0.34000000000000002;88;20;43;31;0.47999999999999998;0.38;0.050000000000000003;0.089999999999999997;1;9.633015264972187;12;9;23;2;
2019_02_25 10:26;13;0;0;practice;15;10;0;34;59;0;0;0.16;0.83999999999999997;0.0;0.0;21;61;96;7;0.19;0.01;0.5;0.29999999999999999;0;6.93317261002926;12;9;23;2;
2019_02_25 10:26;13;0;0;practice;16;18;0;47;36;0;0;0.089999999999999997;0.91000000000000003;0.0;0.0;2;44;81;9;0.20000000000000001;0.25;0.51000000000000001;0.040000000000000001;1;3.899836048118118;12;9;23;2;
2019_02_25 10:26;13;0;0;practice;17;56;1;47;52;64;10;0.77000000000000002;0.040000000000000001;0.11;0.080000000000000002;1;5;12;99;0.14000000000000001;0.28999999999999998;0.27000000000000002;0.29999999999999999;1;5.0998470808739285;12;9;23;2;
2019_02_25 10:26;13;0;0;practice;18;19;0;25;73;0;0;0.69999999999999996;0.29999999999999999;0.0;0.0;87;84;1;86;0.040000000000000001;0.59999999999999998;0.28000000000000003;0.080000000000000002;0;1.8165676070594827;12;9;23;2;
2019_02_25 10:26;13;0;0;practice;19;41;1;19;54;51;8;0.76000000000000001;0.070000000000000007;0.16;0.0099999999999999794;2;77;0;0;0.54000000000000004;0.46000000000000002;0.0;0.0;1;2.016558113757924;12;9;23;2;
2019_02_25 10:26;13;0;0;practice;20;36;1;56;89;86;77;0.66000000000000003;0.080000000000000002;0.14999999999999999;0.11;29;91;0;0;0.40999999999999998;0.58999999999999997;0.0;0.0;1;2.6665574081747536;12;9;23;2;
2019_02_25 10:26;13;0;0;practice;21;5;0;23;58;0;0;0.71999999999999997;0.28000000000000003;0.0;0.0;94;12;52;3;0.11;0.84999999999999998;0.029999999999999999;0.01;0;3.217024889127174;12;9;23;2;
2019_02_25 10:26;13;0;0;practice;22;49;0;14;31;42;22;0.77000000000000002;0.089999999999999997;0.02;0.12;87;28;0;0;0.68000000000000005;0.32000000000000001;0.0;0.0;1;4.550393073995224;12;9;23;2;
2019_02_25 10:26;13;0;0;practice;23;28;0;37;83;75;8;0.83999999999999997;0.070000000000000007;0.01;0.080000000000000002;94;2;0;0;0.19;0.81000000000000005;0.0;0.0;1;4.083377485737515;12;9;23;2;
2019_02_25 10:26;13;0;0;practice;24;24;1;19;38;0;0;0.89000000000000001;0.11;0.0;0.0;45;76;95;57;0.29999999999999999;0.22;0.40000000000000002;0.080000000000000002;1;6.883125592529495;12;9;23;2;
2019_02_25 10:26;13;0;0;practice;25;15;0;24;59;0;0;0.56999999999999995;0.42999999999999999;0.0;0.0;9;8;80;22;0.31;0.10000000000000001;0.55000000000000004;0.039999999999999897;0;8.049701602443633;12;9;23;2;
2019_02_25 10:26;13;0;0;practice;26;48;0;20;25;24;35;0.32000000000000001;0.13;0.48999999999999999;0.059999999999999901;44;76;0;0;0.29999999999999999;0.69999999999999996;0.0;0.0;1;3.7831559967517023;12;9;23;2;
2019_02_25 10:26;13;0;0;practice;27;52;0;17;61;57;59;0.070000000000000007;0.050000000000000003;0.33000000000000002;0.55000000000000004;12;93;94;62;0.71999999999999997;0.16;0.080000000000000002;0.040000000000000001;1;11.716503078267237;12;9;23;2;
2019_02_25 10:26;13;0;0;practice;28;3;0;20;70;0;0;0.13;0.87;0.0;0.0;95;19;80;73;0.31;0.57999999999999996;0.029999999999999999;0.080000000000000002;0;5.766442013247001;12;9;23;2;
2019_02_25 10:26;13;0;0;practice;29;75;0;21;86;27;62;0.88;0.040000000000000001;0.070000000000000007;0.0099999999999999794;13;3;49;87;0.28999999999999998;0.39000000000000001;0.070000000000000007;0.25;0;8.39972283408406;12;9;23;2;
2019_02_25 10:26;13;0;0;practice;30;46;0;79;57;98;81;0.67000000000000004;0.070000000000000007;0.20999999999999999;0.050000000000000003;1;76;0;0;0.56000000000000005;0.44;0.0;0.0;1;5.133461706715934;12;9;23;2;
2019_02_25 10:26;13;0;0;practice;31;60;0;39;93;27;78;0.85999999999999999;0.02;0.11;0.01;22;5;62;95;0.059999999999999998;0.56999999999999995;0.14000000000000001;0.23000000000000001;1;7.2497366891725505;12;9;23;2;
2019_02_25 10:26;13;0;0;practice;32;21;1;59;69;0;0;0.34000000000000002;0.66000000000000003;0.0;0.0;64;18;5;24;0.14999999999999999;0.040000000000000001;0.51000000000000001;0.29999999999999999;0;7.299795894018871;12;9;23;2;
2019_02_25 10:26;13;0;0;practice;33;40;0;29;65;30;41;0.70999999999999996;0.01;0.14999999999999999;0.13;2;59;0;0;0.32000000000000001;0.68000000000000005;0.0;0.0;1;3.4164666445155945;12;9;23;2;
2019_02_25 10:26;13;0;0;practice;34;73;1;99;88;95;28;0.83999999999999997;0.14000000000000001;0.01;0.01;90;93;10;74;0.080000000000000002;0.46000000000000002;0.34999999999999998;0.11;1;6.09999781910642;12;9;23;2;
2019_02_25 10:26;13;0;0;practice;35;20;1;32;11;0;0;0.40999999999999998;0.58999999999999997;0.0;0.0;1;86;42;65;0.45000000000000001;0.38;0.050000000000000003;0.12;0;6.883293649622715;12;9;23;2;
2019_02_25 10:26;13;0;0;practice;36;13;0;15;25;0;0;0.29999999999999999;0.69999999999999996;0.0;0.0;3;43;35;73;0.44;0.40000000000000002;0.01;0.14999999999999999;1;7.816701026431133;12;9;23;2;
2019_02_25 10:26;13;0;0;practice;37;50;1;17;12;21;14;0.55000000000000004;0.34000000000000002;0.059999999999999998;0.049999999999999899;13;93;0;0;0.28999999999999998;0.70999999999999996;0.0;0.0;1;3.999874277899721;12;9;23;2;
2019_02_25 10:26;13;0;0;practice;38;7;1;13;31;0;0;0.51000000000000001;0.48999999999999999;0.0;0.0;8;79;42;18;0.85999999999999999;0.089999999999999997;0.02;0.029999999999999999;0;5.516457728509636;12;9;23;2;
2019_02_25 10:26;13;0;0;practice;39;2;0;41;60;0;0;0.97999999999999998;0.02;0.0;0.0;10;14;97;6;0.54000000000000004;0.17000000000000001;0.12;0.17000000000000001;0;9.2163978822241;12;9;23;2;
2019_02_25 10:26;13;0;0;practice;40;72;1;86;85;97;43;0.51000000000000001;0.14999999999999999;0.33000000000000002;0.0099999999999999499;72;29;10;90;0.01;0.11;0.65000000000000002;0.23000000000000001;0;6.533321167368172;12;9;23;2;
2019_02_25 10:26;13;0;0;practice;41;12;0;45;86;0;0;0.97999999999999998;0.02;0.0;0.0;6;23;95;81;0.14999999999999999;0.40999999999999998;0.050000000000000003;0.39000000000000001;0;4.516768826563862;12;9;23;2;
2019_02_25 10:26;13;0;0;practice;42;58;0;44;50;85;42;0.38;0.57999999999999996;0.02;0.02;37;88;19;12;0.20000000000000001;0.29999999999999999;0.46000000000000002;0.040000000000000001;1;6.016456445630979;12;9;23;2;
2019_02_25 10:26;13;0;0;practice;43;70;0;21;42;14;63;0.96999999999999997;0.01;0.01;0.01;70;2;6;76;0.23999999999999999;0.42999999999999999;0.01;0.32000000000000001;0;6.24994676053916;12;9;23;2;
2019_02_25 10:26;13;0;0;practice;44;68;0;39;58;40;8;0.48999999999999999;0.44;0.02;0.050000000000000003;92;83;51;2;0.57999999999999996;0.13;0.02;0.27000000000000002;1;7.916377484454756;12;9;23;2;
2019_02_25 10:26;13;0;0;practice;45;42;0;23;45;91;22;0.72999999999999998;0.02;0.20000000000000001;0.050000000000000003;2;86;0;0;0.40999999999999998;0.58999999999999997;0.0;0.0;1;2.9167068635287023;12;9;23;2;
2019_02_25 10:26;13;0;0;practice;46;11;1;10;44;0;0;0.48999999999999999;0.51000000000000001;0.0;0.0;88;12;54;50;0.17000000000000001;0.75;0.02;0.059999999999999998;0;5.816509556803908;12;9;23;2;
2019_02_25 10:26;13;0;0;practice;47;63;0;24;82;6;96;0.91000000000000003;0.070000000000000007;0.01;0.0099999999999999603;73;10;71;22;0.31;0.51000000000000001;0.050000000000000003;0.13;1;6.599929826541938;12;9;23;2;
2019_02_25 10:26;13;0;0;practice;48;8;0;20;44;0;0;0.26000000000000001;0.73999999999999999;0.0;0.0;99;3;69;24;0.20999999999999999;0.60999999999999999;0.12;0.060000000000000102;0;5.399774149227028;12;9;23;2;
2019_02_25 10:26;13;0;0;practice;49;38;1;51;89;10;60;0.57999999999999996;0.029999999999999999;0.080000000000000002;0.31;8;84;0;0;0.33000000000000002;0.67000000000000004;0.0;0.0;1;5.11662424614849;12;9;23;2;
2019_02_25 10:26;13;0;0;practice;50;17;0;27;61;0;0;0.68999999999999995;0.31;0.0;0.0;3;91;69;43;0.29999999999999999;0.33000000000000002;0.27000000000000002;0.099999999999999895;1;5.6164741493553265;12;9;23;2;
2019_02_25 10:26;13;0;0;practice;51;61;0;51;48;56;88;0.91000000000000003;0.02;0.01;0.059999999999999998;78;21;14;82;0.55000000000000004;0.29999999999999999;0.070000000000000007;0.080000000000000002;0;9.966341114847182;12;9;23;2;
2019_02_25 10:26;13;0;0;practice;52;25;0;7;18;0;0;0.20999999999999999;0.79000000000000004;0.0;0.0;92;45;33;13;0.41999999999999998;0.17999999999999999;0.22;0.17999999999999999;1;6.199937587957379;12;9;23;2;
2019_02_25 10:26;13;0;0;practice;53;53;1;47;24;95;38;0.57999999999999996;0.28000000000000003;0.02;0.12;8;22;93;96;0.54000000000000004;0.34000000000000002;0.10000000000000001;0.0199999999999999;0;7.399779601460978;12;9;23;2;
2019_02_25 10:26;13;0;0;practice;54;74;0;36;46;10;12;0.11;0.19;0.65000000000000002;0.049999999999999899;92;24;79;19;0.51000000000000001;0.40999999999999998;0.02;0.059999999999999998;1;6.083068953440488;12;9;23;2;
2019_02_25 10:26;13;0;0;practice;55;57;1;39;68;59;91;0.73999999999999999;0.040000000000000001;0.14999999999999999;0.070000000000000007;9;22;40;84;0.29999999999999999;0.32000000000000001;0.040000000000000001;0.34000000000000002;0;9.849723603811185;12;9;23;2;
2019_02_25 10:26;13;0;0;practice;56;23;1;99;93;0;0;0.57999999999999996;0.41999999999999998;0.0;0.0;64;10;80;81;0.13;0.55000000000000004;0.02;0.29999999999999999;0;3.599888132988326;12;9;23;2;
2019_02_25 10:26;13;0;0;practice;57;4;1;40;59;0;0;0.19;0.81000000000000005;0.0;0.0;10;88;13;45;0.56000000000000005;0.28999999999999998;0.01;0.14000000000000001;0;5.999763629622635;12;9;23;2;
2019_02_25 10:26;13;0;0;practice;58;51;0;38;13;51;84;0.91000000000000003;0.070000000000000007;0.01;0.0099999999999999603;4;89;35;16;0.80000000000000004;0.089999999999999997;0.059999999999999998;0.050000000000000003;0;6.699761192153346;12;9;23;2;
2019_02_25 10:26;13;0;0;practice;59;14;1;92;56;0;0;0.11;0.89000000000000001;0.0;0.0;97;31;51;4;0.58999999999999997;0.22;0.080000000000000002;0.11;0;5.533132584217697;12;9;23;2;
2019_02_25 10:26;13;0;0;practice;60;29;0;66;40;92;49;0.46999999999999997;0.10000000000000001;0.34000000000000002;0.089999999999999997;8;94;0;0;0.44;0.56000000000000005;0.0;0.0;1;7.283043744876522;12;9;23;2;
2019_02_25 10:26;13;0;0;practice;61;27;0;68;43;98;36;0.54000000000000004;0.44;0.01;0.0099999999999999603;97;13;0;0;0.27000000000000002;0.72999999999999998;0.0;0.0;0;6.68327363671699;12;9;23;2;
2019_02_25 10:26;13;0;0;practice;62;69;0;38;74;27;73;0.22;0.19;0.45000000000000001;0.14000000000000001;1;97;79;84;0.28000000000000003;0.45000000000000001;0.17000000000000001;0.10000000000000001;0;8.466556317728077;12;9;23;2;
2019_02_25 10:26;13;0;0;practice;63;47;0;91;99;90;78;0.93000000000000005;0.040000000000000001;0.02;0.0099999999999999499;10;87;0;0;0.23000000000000001;0.77000000000000002;0.0;0.0;0;6.999909877780283;12;9;23;2;
2019_02_25 10:26;13;0;0;practice;64;6;1;42;59;0;0;0.35999999999999999;0.64000000000000001;0.0;0.0;77;19;6;7;0.44;0.14999999999999999;0.17999999999999999;0.23000000000000001;0;7.3830669008348195;12;9;23;2;
2019_02_25 10:26;13;0;0;practice;65;55;1;53;11;80;74;0.31;0.37;0.28000000000000003;0.039999999999999897;6;93;98;96;0.69999999999999996;0.22;0.050000000000000003;0.029999999999999999;1;12.183182552338394;12;9;23;2;
2019_02_25 10:26;13;0;0;practice;66;43;0;11;17;21;44;0.16;0.46000000000000002;0.25;0.13;2;66;0;0;0.44;0.56000000000000005;0.0;0.0;1;9.116405515351744;12;9;23;2;
2019_02_25 10:26;13;0;0;practice;67;34;0;57;23;66;79;0.56000000000000005;0.23000000000000001;0.13;0.079999999999999905;85;9;0;0;0.56000000000000005;0.44;0.0;0.0;0;7.299747465352539;12;9;23;2;
2019_02_25 10:26;13;0;0;practice;68;30;1;54;78;85;25;0.20999999999999999;0.60999999999999999;0.089999999999999997;0.090000000000000094;87;20;0;0;0.58999999999999997;0.40999999999999998;0.0;0.0;1;4.483149389927121;12;9;23;2;
2019_02_25 10:26;13;0;0;practice;69;26;1;24;46;74;59;0.29999999999999999;0.11;0.25;0.34000000000000002;91;6;0;0;0.28999999999999998;0.70999999999999996;0.0;0.0;0;6.216718281147905;12;9;23;2;
2019_02_25 10:26;13;0;0;practice;70;22;1;84;87;0;0;0.17000000000000001;0.82999999999999996;0.0;0.0;3;24;41;83;0.68000000000000005;0.11;0.10000000000000001;0.11;0;5.133163758167029;12;9;23;2;
2019_02_25 10:26;13;0;0;practice;71;16;0;50;42;0;0;0.32000000000000001;0.68000000000000005;0.0;0.0;97;2;56;31;0.35999999999999999;0.16;0.16;0.32000000000000001;0;5.04985715147086;12;9;23;2;
2019_02_25 10:26;13;0;0;practice;72;71;0;94;87;26;75;0.71999999999999997;0.23999999999999999;0.02;0.02;90;27;12;83;0.16;0.73999999999999999;0.02;0.080000000000000002;0;7.8831134051829395;12;9;23;2;
2019_02_25 10:26;13;0;0;practice;73;32;1;21;86;16;78;0.45000000000000001;0.41999999999999998;0.050000000000000003;0.080000000000000099;95;9;0;0;0.42999999999999999;0.56999999999999995;0.0;0.0;1;6.549742333838367;12;9;23;2;
2019_02_25 10:26;13;0;0;practice;74;54;1;69;80;22;55;0.27000000000000002;0.31;0.059999999999999998;0.35999999999999999;52;2;49;90;0.059999999999999998;0.33000000000000002;0.20000000000000001;0.40999999999999998;1;5.066730853357967;12;9;23;2;
2019_02_25 10:26;13;0;0;practice;75;9;0;57;44;0;0;0.14999999999999999;0.84999999999999998;0.0;0.0;38;35;64;95;0.34000000000000002;0.45000000000000001;0.089999999999999997;0.12;0;5.649961770218624;12;9;23;2;
2019_02_25 10:26;13;1;0;control;1;19;0;22;53;0;0;0.13;0.87;0.0;0.0;4;93;96;65;0.46999999999999997;0.059999999999999998;0.26000000000000001;0.20999999999999999;0;5.851378837891616;12;9;23;2;
2019_02_25 10:26;13;1;0;control;2;94;0;84;86;93;39;0.78000000000000003;0.20000000000000001;0.01;0.0099999999999999603;9;83;0;0;0.46999999999999997;0.53000000000000003;0.0;0.0;0;6.283421873336238;12;9;23;2;
2019_02_25 10:26;13;1;0;control;3;126;0;16;55;51;42;0.68999999999999995;0.23999999999999999;0.01;0.060000000000000102;66;4;1;5;0.46999999999999997;0.38;0.089999999999999997;0.059999999999999998;0;17.099665553555724;12;9;23;2;
2019_02_25 10:26;13;1;0;control;4;27;0;44;26;0;0;0.35999999999999999;0.64000000000000001;0.0;0.0;63;10;3;5;0.58999999999999997;0.19;0.14999999999999999;0.070000000000000007;0;12.133062090040085;12;9;23;2;
2019_02_25 10:26;13;1;0;control;5;65;1;75;64;59;52;0.59999999999999998;0.22;0.14000000000000001;0.040000000000000001;1;99;0;0;0.35999999999999999;0.64000000000000001;0.0;0.0;0;12.08314945407119;12;9;23;2;
2019_02_25 10:26;13;1;0;control;6;43;0;60;83;0;0;0.23000000000000001;0.77000000000000002;0.0;0.0;72;5;70;12;0.29999999999999999;0.40999999999999998;0.12;0.17000000000000001;0;4.333154906305026;12;9;23;2;
2019_02_25 10:26;13;1;0;control;7;85;0;31;22;82;50;0.11;0.69999999999999996;0.01;0.17999999999999999;3;99;0;0;0.62;0.38;0.0;0.0;0;5.266452917714787;12;9;23;2;
2019_02_25 10:26;13;1;0;control;8;5;1;70;5;0;0;0.98999999999999999;0.01;0.0;0.0;92;87;47;1;0.44;0.02;0.16;0.38;0;18.166180883313245;12;9;23;2;
2019_02_25 10:26;13;1;0;control;9;57;0;52;35;23;47;0.22;0.68000000000000005;0.040000000000000001;0.059999999999999998;71;7;0;0;0.28999999999999998;0.70999999999999996;0.0;0.0;0;9.883118215977674;12;9;23;2;
2019_02_25 10:26;13;1;0;control;10;132;1;27;70;21;19;0.64000000000000001;0.23000000000000001;0.029999999999999999;0.10000000000000001;11;85;55;6;0.39000000000000001;0.46999999999999997;0.029999999999999999;0.11;1;7.199819563128585;12;9;23;2;
2019_02_25 10:26;13;1;0;control;11;8;0;50;36;0;0;0.080000000000000002;0.92000000000000004;0.0;0.0;6;19;84;29;0.54000000000000004;0.070000000000000007;0.17000000000000001;0.22;1;10.916545220828311;12;9;23;2;
2019_02_25 10:26;13;1;0;control;12;58;0;37;58;76;34;0.20999999999999999;0.57999999999999996;0.19;0.020000000000000101;86;5;0;0;0.47999999999999998;0.52000000000000002;0.0;0.0;0;9.749745027883364;12;9;23;2;
2019_02_25 10:26;13;1;0;control;13;24;0;35;27;0;0;0.070000000000000007;0.93000000000000005;0.0;0.0;62;3;81;95;0.35999999999999999;0.55000000000000004;0.01;0.080000000000000002;0;11.249679921795632;12;9;23;2;
2019_02_25 10:26;13;1;0;control;14;80;1;47;39;45;10;0.13;0.76000000000000001;0.059999999999999998;0.050000000000000003;2;87;0;0;0.48999999999999999;0.51000000000000001;0.0;0.0;1;5.883147080745857;12;9;23;2;
2019_02_25 10:26;13;1;0;control;15;119;0;60;58;11;18;0.25;0.72999999999999998;0.01;0.01;96;23;42;85;0.44;0.48999999999999999;0.059999999999999998;0.010000000000000101;1;6.366470942158912;12;9;23;2;
2019_02_25 10:26;13;1;0;control;16;95;0;93;88;68;85;0.83999999999999997;0.14000000000000001;0.01;0.01;2;82;0;0;0.41999999999999998;0.57999999999999996;0.0;0.0;0;3.116539576162495;12;9;23;2;
2019_02_25 10:26;13;1;0;control;17;136;1;29;67;14;75;0.46000000000000002;0.29999999999999999;0.20999999999999999;0.0300000000000001;70;86;1;85;0.31;0.39000000000000001;0.27000000000000002;0.029999999999999898;1;7.932999742141419;12;9;23;2;
2019_02_25 10:26;13;1;0;control;18;96;0;51;54;39;7;0.17000000000000001;0.26000000000000001;0.10000000000000001;0.46999999999999997;24;96;0;0;0.28000000000000003;0.71999999999999997;0.0;0.0;1;3.7164902494812395;12;9;23;2;
2019_02_25 10:26;13;1;0;control;19;2;0;59;32;0;0;0.080000000000000002;0.92000000000000004;0.0;0.0;33;38;85;1;0.28999999999999998;0.050000000000000003;0.070000000000000007;0.58999999999999997;0;10.633019113607816;12;9;23;2;
2019_02_25 10:26;13;1;0;control;20;9;1;61;69;0;0;0.93999999999999995;0.060000000000000102;0.0;0.0;18;93;72;16;0.40999999999999998;0.34999999999999998;0.089999999999999997;0.14999999999999999;0;6.183211096386458;12;9;23;2;
2019_02_25 10:26;13;1;0;control;21;60;1;64;59;57;96;0.83999999999999997;0.13;0.02;0.01;83;6;0;0;0.54000000000000004;0.46000000000000002;0.0;0.0;0;8.883078767461711;12;9;23;2;
2019_02_25 10:26;13;1;0;control;22;143;1;88;44;56;73;0.95999999999999996;0.02;0.01;0.01;20;3;87;32;0.19;0.40000000000000002;0.28000000000000003;0.13;0;6.116635792055604;12;9;23;2;
2019_02_25 10:26;13;1;0;control;23;28;0;47;30;0;0;0.97999999999999998;0.02;0.0;0.0;55;48;77;13;0.070000000000000007;0.26000000000000001;0.42999999999999999;0.23999999999999999;1;6.599812763872023;12;9;23;2;
2019_02_25 10:26;13;1;0;control;24;68;1;84;27;55;62;0.01;0.050000000000000003;0.40999999999999998;0.53000000000000003;9;82;0;0;0.37;0.63;0.0;0.0;0;10.649805579751956;12;9;23;2;
2019_02_25 10:26;13;1;0;control;25;29;1;44;51;0;0;0.78000000000000003;0.22;0.0;0.0;74;1;68;82;0.69999999999999996;0.28000000000000003;0.01;0.01;1;9.799854585713774;12;9;23;2;
2019_02_25 10:26;13;1;0;control;26;14;1;36;40;0;0;0.54000000000000004;0.46000000000000002;0.0;0.0;99;70;1;11;0.16;0.089999999999999997;0.080000000000000002;0.67000000000000004;0;6.91645766436568;12;9;23;2;
2019_02_25 10:26;13;1;0;control;27;7;0;49;29;0;0;0.95999999999999996;0.040000000000000001;0.0;0.0;23;99;64;25;0.68999999999999995;0.12;0.059999999999999998;0.13;0;5.533262475673382;12;9;23;2;
2019_02_25 10:26;13;1;0;control;28;31;1;10;59;0;0;0.23999999999999999;0.76000000000000001;0.0;0.0;1;79;53;73;0.23000000000000001;0.58999999999999997;0.050000000000000003;0.13;1;5.883112443024174;12;9;23;2;
2019_02_25 10:26;13;1;0;control;29;121;1;42;51;47;70;0.41999999999999998;0.17000000000000001;0.23999999999999999;0.17000000000000001;21;76;48;9;0.14999999999999999;0.34000000000000002;0.40999999999999998;0.10000000000000001;1;8.483277998504263;12;9;23;2;
2019_02_25 10:26;13;1;0;control;30;144;1;99;93;90;71;0.65000000000000002;0.32000000000000001;0.01;0.02;97;14;48;73;0.23000000000000001;0.46000000000000002;0.13;0.17999999999999999;0;5.499818472681682;12;9;23;2;
2019_02_25 10:26;13;1;0;control;31;129;0;12;29;81;36;0.17999999999999999;0.79000000000000004;0.01;0.02;5;19;95;92;0.47999999999999998;0.26000000000000001;0.13;0.13;0;8.333090762376287;12;9;23;2;
2019_02_25 10:26;13;1;0;control;32;76;1;39;62;9;28;0.01;0.51000000000000001;0.26000000000000001;0.22;77;7;0;0;0.57999999999999996;0.41999999999999998;0.0;0.0;1;6.999818793401346;12;9;23;2;
2019_02_25 10:26;13;1;0;control;33;39;1;14;33;0;0;0.78000000000000003;0.22;0.0;0.0;93;84;1;25;0.14000000000000001;0.23999999999999999;0.39000000000000001;0.23000000000000001;1;8.649735342150052;12;9;23;2;
2019_02_25 10:26;13;1;0;control;34;79;1;52;46;29;22;0.17999999999999999;0.51000000000000001;0.23999999999999999;0.070000000000000104;93;14;0;0;0.45000000000000001;0.55000000000000004;0.0;0.0;1;9.016414431357589;12;9;23;2;
2019_02_25 10:26;13;1;0;control;35;55;0;74;55;47;48;0.60999999999999999;0.31;0.070000000000000007;0.01;97;6;0;0;0.42999999999999999;0.56999999999999995;0.0;0.0;0;8.31648389923248;12;9;23;2;
2019_02_25 10:26;13;1;0;control;36;107;0;52;48;13;63;0.68000000000000005;0.19;0.050000000000000003;0.079999999999999905;54;91;33;3;0.19;0.17999999999999999;0.33000000000000002;0.29999999999999999;1;7.866540859041152;12;9;23;2;
2019_02_25 10:26;13;1;0;control;37;111;0;51;36;48;27;0.93000000000000005;0.01;0.01;0.049999999999999899;31;78;30;53;0.55000000000000004;0.16;0.029999999999999999;0.26000000000000001;0;11.266273314714681;12;9;23;2;
2019_02_25 10:26;13;1;0;control;38;13;0;52;56;0;0;0.46999999999999997;0.53000000000000003;0.0;0.0;94;71;27;2;0.089999999999999997;0.31;0.57999999999999996;0.020000000000000101;0;5.583287363517911;12;9;23;2;
2019_02_25 10:26;13;1;0;control;39;53;1;26;70;50;80;0.29999999999999999;0.59999999999999998;0.040000000000000001;0.059999999999999998;89;1;0;0;0.40999999999999998;0.58999999999999997;0.0;0.0;0;4.416651058310663;12;9;23;2;
2019_02_25 10:26;13;1;0;control;40;118;1;62;52;65;68;0.40999999999999998;0.44;0.10000000000000001;0.0500000000000001;79;20;14;37;0.56999999999999995;0.23999999999999999;0.14000000000000001;0.050000000000000003;0;4.699992110296762;12;9;23;2;
2019_02_25 10:26;13;1;0;control;41;16;1;64;53;0;0;0.65000000000000002;0.34999999999999998;0.0;0.0;29;17;81;46;0.10000000000000001;0.01;0.44;0.45000000000000001;0;5.2664109034415105;12;9;23;2;
2019_02_25 10:26;13;1;0;control;42;78;0;74;36;34;3;0.14999999999999999;0.64000000000000001;0.13;0.080000000000000002;1;83;0;0;0.41999999999999998;0.57999999999999996;0.0;0.0;1;6.816477484839652;12;9;23;2;
2019_02_25 10:26;13;1;0;control;43;142;0;98;65;64;84;0.88;0.070000000000000007;0.01;0.040000000000000001;5;68;60;16;0.46000000000000002;0.080000000000000002;0.27000000000000002;0.19;0;4.449831429755477;12;9;23;2;
2019_02_25 10:26;13;1;0;control;44;81;1;67;38;52;65;0.27000000000000002;0.35999999999999999;0.01;0.35999999999999999;2;77;0;0;0.14000000000000001;0.85999999999999999;0.0;0.0;0;5.716510454818945;12;9;23;2;
2019_02_25 10:26;13;1;0;control;45;49;0;21;30;0;0;0.53000000000000003;0.46999999999999997;0.0;0.0;93;99;89;25;0.44;0.02;0.11;0.42999999999999999;1;3.099925657186759;12;9;23;2;
2019_02_25 10:26;13;1;0;control;46;109;0;75;28;16;56;0.19;0.070000000000000007;0.059999999999999998;0.68000000000000005;3;50;98;44;0.5;0.02;0.34999999999999998;0.13;0;5.299751313988509;12;9;23;2;
2019_02_25 10:26;13;1;0;control;47;33;0;27;70;0;0;0.88;0.12;0.0;0.0;93;3;77;16;0.080000000000000002;0.40000000000000002;0.5;0.02;0;8.483203270827289;12;9;23;2;
2019_02_25 10:26;13;1;0;control;48;48;1;13;32;0;0;0.90000000000000002;0.10000000000000001;0.0;0.0;24;99;84;94;0.62;0.14999999999999999;0.20000000000000001;0.029999999999999999;1;3.716641308433509;12;9;23;2;
2019_02_25 10:26;13;1;0;control;49;73;1;65;68;70;47;0.25;0.23000000000000001;0.20999999999999999;0.31;27;95;0;0;0.45000000000000001;0.55000000000000004;0.0;0.0;1;6.2833301475182;12;9;23;2;
2019_02_25 10:26;13;1;0;control;50;51;1;52;23;43;16;0.60999999999999999;0.20999999999999999;0.01;0.17000000000000001;92;7;0;0;0.14999999999999999;0.84999999999999998;0.0;0.0;0;5.8664507368214345;12;9;23;2;
2019_02_25 10:26;13;1;0;control;51;1;1;22;51;0;0;0.26000000000000001;0.73999999999999999;0.0;0.0;14;11;92;31;0.29999999999999999;0.40999999999999998;0.14999999999999999;0.14000000000000001;0;6.916461513001423;12;9;23;2;
2019_02_25 10:26;13;1;0;control;52;123;1;26;24;51;92;0.72999999999999998;0.16;0.070000000000000007;0.040000000000000001;6;90;82;49;0.64000000000000001;0.25;0.050000000000000003;0.059999999999999998;1;10.516352853186163;12;9;23;2;
2019_02_25 10:26;13;1;0;control;53;23;0;54;40;0;0;0.93000000000000005;0.070000000000000007;0.0;0.0;36;23;71;86;0.02;0.41999999999999998;0.19;0.37;0;7.616436945876558;12;9;23;2;
2019_02_25 10:26;13;1;0;control;54;84;0;43;10;5;45;0.78000000000000003;0.13;0.059999999999999998;0.029999999999999999;87;1;0;0;0.57999999999999996;0.41999999999999998;0.0;0.0;1;5.933143103822204;12;9;23;2;
2019_02_25 10:26;13;1;0;control;55;93;1;87;81;73;98;0.80000000000000004;0.040000000000000001;0.14999999999999999;0.0099999999999999499;5;71;0;0;0.51000000000000001;0.48999999999999999;0.0;0.0;0;6.549795894018871;12;9;23;2;
2019_02_25 10:26;13;1;0;control;56;54;1;44;79;78;52;0.79000000000000004;0.19;0.01;0.0099999999999999603;96;1;0;0;0.28000000000000003;0.71999999999999997;0.0;0.0;0;3.0000038486357425;12;9;23;2;
2019_02_25 10:26;13;1;0;control;57;110;1;47;44;23;52;0.13;0.27000000000000002;0.040000000000000001;0.56000000000000005;99;2;30;22;0.28999999999999998;0.5;0.11;0.10000000000000001;0;1.2165912761690834;12;9;23;2;
2019_02_25 10:26;13;1;0;control;58;92;1;90;86;65;94;0.16;0.34000000000000002;0.28000000000000003;0.22;79;22;0;0;0.35999999999999999;0.64000000000000001;0.0;0.0;0;4.883188453579578;12;9;23;2;
2019_02_25 10:26;13;1;0;control;59;26;1;76;41;0;0;0.57999999999999996;0.41999999999999998;0.0;0.0;61;79;84;2;0.13;0.029999999999999999;0.67000000000000004;0.17000000000000001;1;5.333133418088892;12;9;23;2;
2019_02_25 10:26;13;1;0;control;60;87;1;10;30;63;4;0.56999999999999995;0.12;0.16;0.14999999999999999;86;2;0;0;0.42999999999999999;0.56999999999999995;0.0;0.0;0;7.116443039549949;12;9;23;2;
2019_02_25 10:26;13;1;0;control;61;75;1;67;80;36;81;0.81999999999999995;0.080000000000000002;0.059999999999999998;0.040000000000000001;3;97;0;0;0.32000000000000001;0.68000000000000005;0.0;0.0;1;7.4165728027178375;12;9;23;2;
2019_02_25 10:26;13;1;0;control;62;45;0;97;87;0;0;0.71999999999999997;0.28000000000000003;0.0;0.0;96;11;14;4;0.25;0.029999999999999999;0.14000000000000001;0.57999999999999996;0;3.4665537519706504;12;9;23;2;
2019_02_25 10:26;13;1;0;control;63;120;1;64;40;48;51;0.19;0.02;0.070000000000000007;0.71999999999999997;97;9;79;94;0.23000000000000001;0.54000000000000004;0.01;0.22;0;10.099712378623508;12;9;23;2;
2019_02_25 10:26;13;1;0;control;64;141;0;93;28;60;91;0.81999999999999995;0.10000000000000001;0.01;0.070000000000000007;14;85;7;89;0.45000000000000001;0.070000000000000007;0.23999999999999999;0.23999999999999999;1;7.099916677036617;12;9;23;2;
2019_02_25 10:26;13;1;0;control;65;46;1;5;19;0;0;0.32000000000000001;0.68000000000000005;0.0;0.0;88;38;97;66;0.60999999999999999;0.20000000000000001;0.040000000000000001;0.14999999999999999;1;4.499801795260282;12;9;23;2;
2019_02_25 10:26;13;1;0;control;66;135;0;48;60;41;51;0.14000000000000001;0.40000000000000002;0.089999999999999997;0.37;94;1;85;65;0.64000000000000001;0.29999999999999999;0.01;0.050000000000000003;1;8.799719562743576;12;9;23;2;
2019_02_25 10:26;13;1;0;control;67;88;0;77;13;12;7;0.12;0.19;0.66000000000000003;0.029999999999999898;94;2;0;0;0.40999999999999998;0.58999999999999997;0.0;0.0;1;4.349993329031349;12;9;23;2;
2019_02_25 10:26;13;1;0;control;68;50;0;15;20;0;0;0.82999999999999996;0.17000000000000001;0.0;0.0;97;18;88;87;0.56999999999999995;0.39000000000000001;0.01;0.029999999999999999;1;2.8332402177300082;12;9;23;2;
2019_02_25 10:26;13;1;0;control;69;130;1;37;79;23;95;0.94999999999999996;0.029999999999999999;0.01;0.01;94;4;58;49;0.46000000000000002;0.5;0.029999999999999999;0.01;1;5.75010647892168;12;9;23;2;
2019_02_25 10:26;13;1;0;control;70;37;1;14;98;0;0;0.93000000000000005;0.070000000000000007;0.0;0.0;41;2;87;66;0.17999999999999999;0.48999999999999999;0.32000000000000001;0.010000000000000101;0;9.983063116342919;12;9;23;2;
2019_02_25 10:26;13;1;0;control;71;108;0;48;72;39;70;0.14000000000000001;0.66000000000000003;0.02;0.17999999999999999;81;44;98;8;0.59999999999999998;0.029999999999999999;0.050000000000000003;0.32000000000000001;0;8.166636625926685;12;9;23;2;
2019_02_25 10:26;13;1;0;control;72;12;0;53;68;0;0;0.31;0.68999999999999995;0.0;0.0;69;54;97;29;0.25;0.20999999999999999;0.20000000000000001;0.34000000000000002;1;4.966638421956759;12;9;23;2;
2019_02_25 10:26;13;1;0;control;73;148;1;37;63;55;10;0.72999999999999998;0.070000000000000007;0.029999999999999999;0.17000000000000001;80;14;23;70;0.46999999999999997;0.10000000000000001;0.23000000000000001;0.20000000000000001;1;6.266427580863137;12;9;23;2;
2019_02_25 10:26;13;1;0;control;74;100;0;27;14;59;52;0.02;0.95999999999999996;0.01;0.01;17;98;0;0;0.48999999999999999;0.51000000000000001;0.0;0.0;1;5.716493777397318;12;9;23;2;
2019_02_25 10:26;13;1;0;control;75;44;1;79;74;0;0;0.71999999999999997;0.28000000000000003;0.0;0.0;3;67;15;36;0.41999999999999998;0.53000000000000003;0.02;0.029999999999999999;0;4.349848363752471;12;9;23;2;
2019_02_25 10:26;13;2;0;timed;1;35;1;33;37;0;0;0.88;0.12;0.0;0.0;63;4;79;98;0.16;0.46000000000000002;0.17000000000000001;0.20999999999999999;0;4.829916920783489;12;9;23;2;
2019_02_25 10:26;13;2;0;timed;2;50;1;15;20;0;0;0.82999999999999996;0.17000000000000001;0.0;0.0;97;18;88;87;0.56999999999999995;0.39000000000000001;0.01;0.029999999999999999;1;3.8166776138973546;12;9;23;2;
2019_02_25 10:26;13;2;0;timed;3;27;1;44;26;0;0;0.35999999999999999;0.64000000000000001;0.0;0.0;63;10;3;5;0.58999999999999997;0.19;0.14999999999999999;0.070000000000000007;1;4.016536946261567;12;9;23;2;
2019_02_25 10:26;13;2;0;timed;4;147;0;39;43;76;28;0.14000000000000001;0.10000000000000001;0.10000000000000001;0.66000000000000003;6;31;68;85;0.27000000000000002;0.20000000000000001;0.22;0.31;NA;5.1331737004761635;12;9;23;2;
2019_02_25 10:26;13;2;0;timed;5;102;1;40;56;53;17;0.28000000000000003;0.26000000000000001;0.14999999999999999;0.31;1;76;29;62;0.68000000000000005;0.23000000000000001;0.050000000000000003;0.039999999999999897;0;4.133296215379914;12;9;23;2;
2019_02_25 10:26;13;2;0;timed;6;54;1;44;79;78;52;0.79000000000000004;0.19;0.01;0.0099999999999999603;96;1;0;0;0.28000000000000003;0.71999999999999997;0.0;0.0;0;2.6998917250484737;12;9;23;2;
2019_02_25 10:26;13;2;0;timed;7;148;0;37;63;55;10;0.72999999999999998;0.070000000000000007;0.029999999999999999;0.17000000000000001;80;14;23;70;0.46999999999999997;0.10000000000000001;0.23000000000000001;0.20000000000000001;1;3.81652174415035;12;9;23;2;
2019_02_25 10:26;13;2;0;timed;8;33;0;27;70;0;0;0.88;0.12;0.0;0.0;93;3;77;16;0.080000000000000002;0.40000000000000002;0.5;0.02;1;3.349913469840203;12;9;23;2;
2019_02_25 10:26;13;2;0;timed;9;139;1;44;31;16;8;0.79000000000000004;0.070000000000000007;0.13;0.0099999999999999499;92;58;2;88;0.55000000000000004;0.070000000000000007;0.34000000000000002;0.039999999999999897;1;3.099905772568718;12;9;23;2;
2019_02_25 10:26;13;2;0;timed;10;81;1;67;38;52;65;0.27000000000000002;0.35999999999999999;0.01;0.35999999999999999;2;77;0;0;0.14000000000000001;0.85999999999999999;0.0;0.0;1;3.38344310497655;12;9;23;2;
2019_02_25 10:26;13;2;0;timed;11;111;0;51;36;48;27;0.93000000000000005;0.01;0.01;0.049999999999999899;31;78;30;53;0.55000000000000004;0.16;0.029999999999999999;0.26000000000000001;0;3.516648556697646;12;9;23;2;
2019_02_25 10:26;13;2;0;timed;12;68;1;84;27;55;62;0.01;0.050000000000000003;0.40999999999999998;0.53000000000000003;9;82;0;0;0.37;0.63;0.0;0.0;1;2.4832552274094724;12;9;23;2;
2019_02_25 10:26;13;2;0;timed;13;129;0;12;29;81;36;0.17999999999999999;0.79000000000000004;0.01;0.02;5;19;95;92;0.47999999999999998;0.26000000000000001;0.13;0.13;0;4.6332128282724625;12;9;23;2;
2019_02_25 10:26;13;2;0;timed;14;112;1;70;44;98;64;0.02;0.75;0.12;0.11;33;2;63;85;0.23999999999999999;0.31;0.080000000000000002;0.37;0;3.749879730133671;12;9;23;2;
2019_02_25 10:26;13;2;0;timed;15;149;0;14;89;73;53;0.93999999999999995;0.01;0.01;0.040000000000000001;97;45;6;13;0.34000000000000002;0.01;0.40999999999999998;0.23999999999999999;1;3.566537780132421;12;9;23;2;
2019_02_25 10:26;13;2;0;timed;16;1;1;22;51;0;0;0.26000000000000001;0.73999999999999999;0.0;0.0;14;11;92;31;0.29999999999999999;0.40999999999999998;0.14999999999999999;0.14000000000000001;1;3.266536946261567;12;9;23;2;
2019_02_25 10:26;13;2;0;timed;17;64;0;48;39;34;19;0.46000000000000002;0.5;0.02;0.02;13;92;0;0;0.68999999999999995;0.31;0.0;0.0;1;2.283233610905654;12;9;23;2;
2019_02_25 10:26;13;2;0;timed;18;119;1;60;58;11;18;0.25;0.72999999999999998;0.01;0.01;96;23;42;85;0.44;0.48999999999999999;0.059999999999999998;0.010000000000000101;1;2.6832264909296555;12;9;23;2;
2019_02_25 10:26;13;2;0;timed;19;98;1;27;10;31;79;0.23000000000000001;0.67000000000000004;0.070000000000000007;0.029999999999999999;25;99;0;0;0.38;0.62;0.0;0.0;1;2.08326747889987;12;9;23;2;
2019_02_25 10:26;13;2;0;timed;20;19;1;22;53;0;0;0.13;0.87;0.0;0.0;4;93;96;65;0.46999999999999997;0.059999999999999998;0.26000000000000001;0.20999999999999999;1;2.8665710066875363;12;9;23;2;
2019_02_25 10:26;13;2;0;timed;21;40;1;45;49;0;0;0.68999999999999995;0.31;0.0;0.0;2;92;65;73;0.23999999999999999;0.59999999999999998;0.11;0.050000000000000003;1;3.3998793452701648;12;9;23;2;
2019_02_25 10:26;13;2;0;timed;22;37;1;14;98;0;0;0.93000000000000005;0.070000000000000007;0.0;0.0;41;2;87;66;0.17999999999999999;0.48999999999999999;0.32000000000000001;0.010000000000000101;0;2.4499039123948023;12;9;23;2;
2019_02_25 10:26;13;2;0;timed;23;120;0;64;40;48;51;0.19;0.02;0.070000000000000007;0.71999999999999997;97;9;79;94;0.23000000000000001;0.54000000000000004;0.01;0.22;1;4.166659717740913;12;9;23;2;
2019_02_25 10:26;13;2;0;timed;24;53;0;26;70;50;80;0.29999999999999999;0.59999999999999998;0.040000000000000001;0.059999999999999998;89;1;0;0;0.40999999999999998;0.58999999999999997;0.0;0.0;0;3.5830881966189736;12;9;23;2;
2019_02_25 10:26;13;2;0;timed;25;34;0;32;48;0;0;0.28000000000000003;0.71999999999999997;0.0;0.0;97;83;7;62;0.040000000000000001;0.54000000000000004;0.35999999999999999;0.059999999999999901;1;4.516485951838149;12;9;23;2;
2019_02_25 10:26;13;2;0;timed;26;39;1;14;33;0;0;0.78000000000000003;0.22;0.0;0.0;93;84;1;25;0.14000000000000001;0.23999999999999999;0.39000000000000001;0.23000000000000001;1;3.7835556134277795;12;9;23;2;
2019_02_25 10:26;13;2;0;timed;27;108;0;48;72;39;70;0.14000000000000001;0.66000000000000003;0.02;0.17999999999999999;81;44;98;8;0.59999999999999998;0.029999999999999999;0.050000000000000003;0.32000000000000001;1;3.7334210394651564;12;9;23;2;
2019_02_25 10:26;13;2;0;timed;28;79;0;52;46;29;22;0.17999999999999999;0.51000000000000001;0.23999999999999999;0.070000000000000104;93;14;0;0;0.45000000000000001;0.55000000000000004;0.0;0.0;1;4.066552853955727;12;9;23;2;
2019_02_25 10:26;13;2;0;timed;29;91;0;74;81;86;48;0.93000000000000005;0.02;0.01;0.039999999999999897;7;64;0;0;0.13;0.87;0.0;0.0;0;3.216623668853117;12;9;23;2;
2019_02_25 10:26;13;2;0;timed;30;144;1;99;93;90;71;0.65000000000000002;0.32000000000000001;0.01;0.02;97;14;48;73;0.23000000000000001;0.46000000000000002;0.13;0.17999999999999999;0;1.5665515710770705;12;9;23;2;
2019_02_25 10:26;13;2;0;timed;31;86;0;56;30;57;88;0.20000000000000001;0.35999999999999999;0.080000000000000002;0.35999999999999999;98;2;0;0;0.77000000000000002;0.23000000000000001;0.0;0.0;1;2.3832048102813133;12;9;23;2;
2019_02_25 10:26;13;2;0;timed;32;66;1;89;23;27;15;0.070000000000000007;0.54000000000000004;0.17000000000000001;0.22;9;73;0;0;0.72999999999999998;0.27000000000000002;0.0;0.0;0;3.9833046182343423;12;9;23;2;
2019_02_25 10:26;13;2;0;timed;33;10;1;45;62;0;0;0.059999999999999998;0.93999999999999995;0.0;0.0;17;99;28;67;0.58999999999999997;0.34000000000000002;0.01;0.059999999999999998;1;3.6498857596629932;12;9;23;2;
2019_02_25 10:26;13;2;0;timed;34;46;1;5;19;0;0;0.32000000000000001;0.68000000000000005;0.0;0.0;88;38;97;66;0.60999999999999999;0.20000000000000001;0.040000000000000001;0.14999999999999999;1;2.6165601022198643;12;9;23;2;
2019_02_25 10:26;13;2;0;timed;35;4;0;40;43;0;0;0.58999999999999997;0.40999999999999998;0.0;0.0;2;33;88;81;0.69999999999999996;0.14000000000000001;0.13;0.029999999999999999;0;2.6833589481425406;12;9;23;2;
2019_02_25 10:26;13;2;0;timed;36;128;1;70;49;27;54;0.27000000000000002;0.53000000000000003;0.02;0.17999999999999999;72;97;6;20;0.29999999999999999;0.39000000000000001;0.22;0.0899999999999999;1;2.116695766628709;12;9;23;2;
2019_02_25 10:26;13;2;0;timed;37;9;0;61;69;0;0;0.93999999999999995;0.060000000000000102;0.0;0.0;18;93;72;16;0.40999999999999998;0.34999999999999998;0.089999999999999997;0.14999999999999999;0;2.683155291168532;12;9;23;2;
2019_02_25 10:26;13;2;0;timed;38;16;1;64;53;0;0;0.65000000000000002;0.34999999999999998;0.0;0.0;29;17;81;46;0.10000000000000001;0.01;0.44;0.45000000000000001;0;2.449835278390765;12;9;23;2;
2019_02_25 10:26;13;2;0;timed;39;42;1;70;48;0;0;0.79000000000000004;0.20999999999999999;0.0;0.0;51;8;12;67;0.19;0.26000000000000001;0.28999999999999998;0.26000000000000001;0;2.3498400250418854;12;9;23;2;
2019_02_25 10:26;13;2;0;timed;40;17;0;81;52;0;0;0.059999999999999998;0.93999999999999995;0.0;0.0;34;3;69;41;0.01;0.22;0.75;0.02;0;3.316635599624078;12;9;23;2;
2019_02_25 10:26;13;2;0;timed;41;57;1;52;35;23;47;0.22;0.68000000000000005;0.040000000000000001;0.059999999999999998;71;7;0;0;0.28999999999999998;0.70999999999999996;0.0;0.0;0;3.4832209104074536;12;9;23;2;
2019_02_25 10:26;13;2;0;timed;42;127;0;89;26;62;79;0.02;0.28999999999999998;0.53000000000000003;0.16;96;6;60;13;0.53000000000000003;0.25;0.17000000000000001;0.050000000000000003;0;3.599871134847035;12;9;23;2;
2019_02_25 10:26;13;2;0;timed;43;116;0;53;65;43;99;0.56999999999999995;0.37;0.050000000000000003;0.010000000000000101;57;72;11;87;0.67000000000000004;0.13;0.14999999999999999;0.050000000000000003;1;4.299953367363742;12;9;23;2;
2019_02_25 10:26;13;2;0;timed;44;72;0;63;82;51;61;0.01;0.96999999999999997;0.01;0.01;92;12;0;0;0.89000000000000001;0.11;0.0;0.0;1;2.583321359799811;12;9;23;2;
2019_02_25 10:26;13;2;0;timed;45;124;1;37;65;15;41;0.17999999999999999;0.45000000000000001;0.02;0.34999999999999998;40;7;98;30;0.070000000000000007;0.45000000000000001;0.45000000000000001;0.029999999999999898;1;3.1000237973976255;12;9;23;2;
2019_02_25 10:26;13;2;0;timed;46;142;0;98;65;64;84;0.88;0.070000000000000007;0.01;0.040000000000000001;5;68;60;16;0.46000000000000002;0.080000000000000002;0.27000000000000002;0.19;0;2.9333903786673545;12;9;23;2;
2019_02_25 10:26;13;2;0;timed;47;60;1;64;59;57;96;0.83999999999999997;0.13;0.02;0.01;83;6;0;0;0.54000000000000004;0.46000000000000002;0.0;0.0;1;3.533172032734001;12;9;23;2;
2019_02_25 10:26;13;2;0;timed;48;43;0;60;83;0;0;0.23000000000000001;0.77000000000000002;0.0;0.0;72;5;70;12;0.29999999999999999;0.40999999999999998;0.12;0.17000000000000001;0;3.799819627272427;12;9;23;2;
2019_02_25 10:26;13;2;0;timed;49;82;0;78;66;30;27;0.28999999999999998;0.58999999999999997;0.080000000000000002;0.040000000000000001;90;6;0;0;0.82999999999999996;0.17000000000000001;0.0;0.0;1;2.4332774853528463;12;9;23;2;
2019_02_25 10:26;13;2;0;timed;50;89;0;26;41;13;56;0.059999999999999998;0.40999999999999998;0.050000000000000003;0.47999999999999998;5;97;0;0;0.37;0.63;0.0;0.0;1;2.6830776770148077;12;9;23;2;
2019_02_25 10:26;13;2;0;timed;51;135;0;48;60;41;51;0.14000000000000001;0.40000000000000002;0.089999999999999997;0.37;94;1;85;65;0.64000000000000001;0.29999999999999999;0.01;0.050000000000000003;1;3.0000125080664475;12;9;23;2;
2019_02_25 10:26;13;2;0;timed;52;101;1;30;96;61;45;0.65000000000000002;0.14000000000000001;0.11;0.10000000000000001;3;98;63;89;0.75;0.19;0.040000000000000001;0.02;0;3.833218408794437;12;9;23;2;
2019_02_25 10:26;13;2;0;timed;53;41;0;99;40;0;0;0.89000000000000001;0.11;0.0;0.0;1;67;52;46;0.51000000000000001;0.38;0.029999999999999999;0.080000000000000002;0;1.9832100059397817;12;9;23;2;
2019_02_25 10:26;13;2;0;timed;54;49;0;21;30;0;0;0.53000000000000003;0.46999999999999997;0.0;0.0;93;99;89;25;0.44;0.02;0.11;0.42999999999999999;1;3.4498875556928397;12;9;23;2;
2019_02_25 10:26;13;2;0;timed;55;150;0;25;21;78;38;0.84999999999999998;0.059999999999999998;0.050000000000000003;0.040000000000000001;31;43;64;95;0.059999999999999998;0.45000000000000001;0.13;0.35999999999999999;1;4.666448363495874;12;9;23;2;
2019_02_25 10:26;13;2;0;timed;56;24;0;35;27;0;0;0.070000000000000007;0.93000000000000005;0.0;0.0;62;3;81;95;0.35999999999999999;0.55000000000000004;0.01;0.080000000000000002;1;4.516689608811703;12;9;23;2;
2019_02_25 10:26;13;2;0;timed;57;36;0;70;17;0;0;0.33000000000000002;0.67000000000000004;0.0;0.0;84;1;12;88;0.22;0.27000000000000002;0.14000000000000001;0.37;0;3.7666706863528816;12;9;23;2;
2019_02_25 10:26;13;2;0;timed;58;28;0;47;30;0;0;0.97999999999999998;0.02;0.0;0.0;55;48;77;13;0.070000000000000007;0.26000000000000001;0.42999999999999999;0.23999999999999999;1;3.183325272579623;12;9;23;2;
2019_02_25 10:26;13;2;0;timed;59;83;0;17;12;7;41;0.65000000000000002;0.19;0.089999999999999997;0.070000000000000007;6;84;0;0;0.72999999999999998;0.27000000000000002;0.0;0.0;1;2.666570236960524;12;9;23;2;
2019_02_25 10:26;13;2;0;timed;60;74;0;66;47;52;44;0.41999999999999998;0.26000000000000001;0.17999999999999999;0.14000000000000001;17;99;0;0;0.47999999999999998;0.52000000000000002;0.0;0.0;1;2.3499064140082737;12;9;23;2;
2019_02_25 10:26;13;2;0;timed;61;140;1;36;32;26;27;0.39000000000000001;0.14999999999999999;0.19;0.27000000000000002;44;3;99;25;0.29999999999999999;0.34000000000000002;0.34000000000000002;0.0199999999999999;1;2.933355420226235;12;9;23;2;
2019_02_25 10:26;13;2;0;timed;62;80;1;47;39;45;10;0.13;0.76000000000000001;0.059999999999999998;0.050000000000000003;2;87;0;0;0.48999999999999999;0.51000000000000001;0.0;0.0;1;2.9832209104074536;12;9;23;2;
2019_02_25 10:26;13;2;0;timed;63;8;1;50;36;0;0;0.080000000000000002;0.92000000000000004;0.0;0.0;6;19;84;29;0.54000000000000004;0.070000000000000007;0.17000000000000001;0.22;0;4.433315971709817;12;9;23;2;
2019_02_25 10:26;13;2;0;timed;64;109;1;75;28;16;56;0.19;0.070000000000000007;0.059999999999999998;0.68000000000000005;3;50;98;44;0.5;0.02;0.34999999999999998;0.13;1;3.999904425545992;12;9;23;2;
2019_02_25 10:26;13;2;0;timed;65;65;1;75;64;59;52;0.59999999999999998;0.22;0.14000000000000001;0.040000000000000001;1;99;0;0;0.35999999999999999;0.64000000000000001;0.0;0.0;1;3.4498747269071828;12;9;23;2;
2019_02_25 10:26;13;2;0;timed;66;118;0;62;52;65;68;0.40999999999999998;0.44;0.10000000000000001;0.0500000000000001;79;20;14;37;0.56999999999999995;0.23999999999999999;0.14000000000000001;0.050000000000000003;1;3.9834008341276785;12;9;23;2;
2019_02_25 10:26;13;2;0;timed;67;114;0;57;39;79;97;0.77000000000000002;0.02;0.13;0.080000000000000002;92;36;6;1;0.54000000000000004;0.12;0.13;0.20999999999999999;1;2.800020397769458;12;9;23;2;
2019_02_25 10:26;13;2;0;timed;68;123;0;26;24;51;92;0.72999999999999998;0.16;0.070000000000000007;0.040000000000000001;6;90;82;49;0.64000000000000001;0.25;0.050000000000000003;0.059999999999999998;1;4.549875111771144;12;9;23;2;
2019_02_25 10:26;13;2;0;timed;69;96;1;51;54;39;7;0.17000000000000001;0.26000000000000001;0.10000000000000001;0.46999999999999997;24;96;0;0;0.28000000000000003;0.71999999999999997;0.0;0.0;1;3.31652270630957;12;9;23;2;
2019_02_25 10:26;13;2;0;timed;70;56;1;28;84;37;41;0.68000000000000005;0.28000000000000003;0.02;0.0199999999999999;6;95;0;0;0.72999999999999998;0.27000000000000002;0.0;0.0;1;4.54997325198201;12;9;23;2;
2019_02_25 10:26;13;2;0;timed;71;113;1;85;65;39;64;0.44;0.34000000000000002;0.13;0.089999999999999997;87;2;4;35;0.67000000000000004;0.17000000000000001;0.11;0.049999999999999899;0;3.6334867228483745;12;9;23;2;
2019_02_25 10:26;13;2;0;timed;72;133;0;59;88;60;36;0.67000000000000004;0.070000000000000007;0.12;0.14000000000000001;7;91;66;61;0.25;0.68999999999999995;0.01;0.0500000000000001;1;3.366612379521939;12;9;23;2;
2019_02_25 10:26;13;2;0;timed;73;136;1;29;67;14;75;0.46000000000000002;0.29999999999999999;0.20999999999999999;0.0300000000000001;70;86;1;85;0.31;0.39000000000000001;0.27000000000000002;0.029999999999999898;0;4.0498593965080545;12;9;23;2;
2019_02_25 10:26;13;2;0;timed;74;143;0;88;44;56;73;0.95999999999999996;0.02;0.01;0.01;20;3;87;32;0.19;0.40000000000000002;0.28000000000000003;0.13;0;3.5166796665030233;12;9;23;2;
2019_02_25 10:26;13;2;0;timed;75;12;1;53;68;0;0;0.31;0.68999999999999995;0.0;0.0;69;54;97;29;0.25;0.20999999999999999;0.20000000000000001;0.34000000000000002;1;3.233195894275468;12;9;23;2;
2019_02_25 10:26;13;3;0;control;1;133;0;59;88;60;36;0.67000000000000004;0.070000000000000007;0.12;0.14000000000000001;7;91;66;61;0.25;0.68999999999999995;0.01;0.0500000000000001;1;5.334246956691459;12;9;23;2;
2019_02_25 10:26;13;3;0;control;2;70;1;66;55;69;50;0.22;0.29999999999999999;0.29999999999999999;0.17999999999999999;2;90;0;0;0.34000000000000002;0.66000000000000003;0.0;0.0;0;4.6831787037026515;12;9;23;2;
2019_02_25 10:26;13;3;0;control;3;63;0;56;78;42;36;0.93000000000000005;0.040000000000000001;0.01;0.0199999999999999;2;72;0;0;0.32000000000000001;0.68000000000000005;0.0;0.0;0;3.4831686331058336;12;9;23;2;
2019_02_25 10:26;13;3;0;control;4;36;0;70;17;0;0;0.33000000000000002;0.67000000000000004;0.0;0.0;84;1;12;88;0.22;0.27000000000000002;0.14000000000000001;0.37;1;5.516479858164985;12;9;23;2;
2019_02_25 10:26;13;3;0;control;5;30;1;33;30;0;0;0.71999999999999997;0.28000000000000003;0.0;0.0;9;88;1;14;0.55000000000000004;0.39000000000000001;0.01;0.049999999999999899;1;5.91647883186215;12;9;23;2;
2019_02_25 10:26;13;3;0;control;6;11;0;17;36;0;0;0.14000000000000001;0.85999999999999999;0.0;0.0;19;41;34;95;0.88;0.02;0.050000000000000003;0.050000000000000003;0;4.4998248870747375;12;9;23;2;
2019_02_25 10:26;13;3;0;control;7;83;0;17;12;7;41;0.65000000000000002;0.19;0.089999999999999997;0.070000000000000007;6;84;0;0;0.72999999999999998;0.27000000000000002;0.0;0.0;1;3.2498941625176485;12;9;23;2;
2019_02_25 10:26;13;3;0;control;8;21;1;64;28;0;0;0.080000000000000002;0.92000000000000004;0.0;0.0;50;1;88;13;0.57999999999999996;0.13;0.02;0.27000000000000002;1;5.249771006174342;12;9;23;2;
2019_02_25 10:26;13;3;0;control;9;69;1;54;34;64;49;0.34000000000000002;0.25;0.20999999999999999;0.20000000000000001;14;98;0;0;0.62;0.38;0.0;0.0;1;4.216660551611767;12;9;23;2;
2019_02_25 10:26;13;3;0;control;10;38;0;40;70;0;0;0.53000000000000003;0.46999999999999997;0.0;0.0;97;90;6;96;0.56999999999999995;0.070000000000000007;0.27000000000000002;0.089999999999999997;1;2.9500184093071766;12;9;23;2;
2019_02_25 10:26;13;3;0;control;11;91;0;74;81;86;48;0.93000000000000005;0.02;0.01;0.039999999999999897;7;64;0;0;0.13;0.87;0.0;0.0;0;4.016496856305821;12;9;23;2;
2019_02_25 10:26;13;3;0;control;12;89;1;26;41;13;56;0.059999999999999998;0.40999999999999998;0.050000000000000003;0.47999999999999998;5;97;0;0;0.37;0.63;0.0;0.0;1;4.583232841178415;12;9;23;2;
2019_02_25 10:26;13;3;0;control;13;145;0;91;89;90;74;0.57999999999999996;0.29999999999999999;0.11;0.010000000000000101;2;75;84;39;0.32000000000000001;0.27000000000000002;0.39000000000000001;0.0199999999999999;0;7.033128414862404;12;9;23;2;
2019_02_25 10:26;13;3;0;control;14;98;1;27;10;31;79;0.23000000000000001;0.67000000000000004;0.070000000000000007;0.029999999999999999;25;99;0;0;0.38;0.62;0.0;0.0;1;4.583335471464579;12;9;23;2;
2019_02_25 10:26;13;3;0;control;15;25;1;50;53;0;0;0.82999999999999996;0.17000000000000001;0.0;0.0;83;16;97;4;0.45000000000000001;0.29999999999999999;0.11;0.14000000000000001;0;4.566508594644802;12;9;23;2;
2019_02_25 10:26;13;3;0;control;16;10;1;45;62;0;0;0.059999999999999998;0.93999999999999995;0.0;0.0;17;99;28;67;0.58999999999999997;0.34000000000000002;0.01;0.059999999999999998;0;4.349874342043677;12;9;23;2;
2019_02_25 10:26;13;3;0;control;17;147;1;39;43;76;28;0.14000000000000001;0.10000000000000001;0.10000000000000001;0.66000000000000003;6;31;68;85;0.27000000000000002;0.20000000000000001;0.22;0.31;0;4.733198780751991;12;9;23;2;
2019_02_25 10:26;13;3;0;control;18;52;0;71;51;10;54;0.22;0.12;0.19;0.46999999999999997;91;1;0;0;0.29999999999999999;0.69999999999999996;0.0;0.0;0;3.249893200358656;12;9;23;2;
2019_02_25 10:26;13;3;0;control;19;106;0;85;69;22;61;0.10000000000000001;0.58999999999999997;0.17999999999999999;0.13;20;79;91;84;0.55000000000000004;0.14999999999999999;0.26000000000000001;0.039999999999999897;0;3.749863373431708;12;9;23;2;
2019_02_25 10:26;13;3;0;control;20;71;0;68;55;36;51;0.20000000000000001;0.75;0.02;0.029999999999999999;38;81;0;0;0.52000000000000002;0.47999999999999998;0.0;0.0;0;5.11646709352317;12;9;23;2;
2019_02_25 10:26;13;3;0;control;21;3;1;53;40;0;0;0.31;0.68999999999999995;0.0;0.0;96;24;7;88;0.11;0.27000000000000002;0.58999999999999997;0.029999999999999999;1;4.099886529390005;12;9;23;2;
2019_02_25 10:26;13;3;0;control;22;115;1;50;28;61;79;0.83999999999999997;0.040000000000000001;0.059999999999999998;0.059999999999999998;1;26;97;55;0.45000000000000001;0.080000000000000002;0.40999999999999998;0.060000000000000102;1;5.666681205957502;12;9;23;2;
2019_02_25 10:26;13;3;0;control;23;128;1;70;49;27;54;0.27000000000000002;0.53000000000000003;0.02;0.17999999999999999;72;97;6;20;0.29999999999999999;0.39000000000000001;0.22;0.0899999999999999;0;3.4332085306295994;12;9;23;2;
2019_02_25 10:26;13;3;0;control;24;66;1;89;23;27;15;0.070000000000000007;0.54000000000000004;0.17000000000000001;0.22;9;73;0;0;0.72999999999999998;0.27000000000000002;0.0;0.0;0;3.849942013888267;12;9;23;2;
2019_02_25 10:26;13;3;0;control;25;90;1;27;44;50;72;0.68000000000000005;0.28999999999999998;0.02;0.0099999999999999707;6;96;0;0;0.46999999999999997;0.53000000000000003;0.0;0.0;1;3.0165241174754556;12;9;23;2;
2019_02_25 10:26;13;3;0;control;26;47;0;2;40;0;0;0.45000000000000001;0.55000000000000004;0.0;0.0;93;89;11;56;0.58999999999999997;0.070000000000000007;0.28000000000000003;0.059999999999999998;1;4.149782167218291;12;9;23;2;
2019_02_25 10:26;13;3;0;control;27;131;0;83;41;81;88;0.23999999999999999;0.58999999999999997;0.10000000000000001;0.070000000000000007;82;97;4;17;0.26000000000000001;0.46999999999999997;0.11;0.16;0;5.249794097988797;12;9;23;2;
2019_02_25 10:26;13;3;0;control;28;18;1;68;50;0;0;0.029999999999999999;0.96999999999999997;0.0;0.0;34;64;15;89;0.65000000000000002;0.029999999999999999;0.050000000000000003;0.27000000000000002;1;3.283307055703972;12;9;23;2;
2019_02_25 10:26;13;3;0;control;29;105;0;49;74;63;58;0.84999999999999998;0.080000000000000002;0.02;0.050000000000000003;97;5;86;8;0.25;0.52000000000000002;0.070000000000000007;0.16;0;3.3165490053197573;12;9;23;2;
2019_02_25 10:26;13;3;0;control;30;77;1;24;17;99;41;0.17999999999999999;0.13;0.10000000000000001;0.58999999999999997;12;97;0;0;0.59999999999999998;0.40000000000000002;0.0;0.0;0;5.283475754236406;12;9;23;2;
2019_02_25 10:26;13;3;0;control;31;82;1;78;66;30;27;0.28999999999999998;0.58999999999999997;0.080000000000000002;0.040000000000000001;90;6;0;0;0.82999999999999996;0.17000000000000001;0.0;0.0;1;4.783103398729963;12;9;23;2;
2019_02_25 10:26;13;3;0;control;32;56;1;28;84;37;41;0.68000000000000005;0.28000000000000003;0.02;0.0199999999999999;6;95;0;0;0.72999999999999998;0.27000000000000002;0.0;0.0;0;3.783361578043241;12;9;23;2;
2019_02_25 10:26;13;3;0;control;33;59;0;56;47;83;90;0.31;0.12;0.54000000000000004;0.029999999999999898;10;98;0;0;0.46999999999999997;0.53000000000000003;0.0;0.0;1;3.999974021709022;12;9;23;2;
2019_02_25 10:26;13;3;0;control;34;102;1;40;56;53;17;0.28000000000000003;0.26000000000000001;0.14999999999999999;0.31;1;76;29;62;0.68000000000000005;0.23000000000000001;0.050000000000000003;0.039999999999999897;0;7.533418345420159;12;9;23;2;
2019_02_25 10:26;13;3;0;control;35;122;1;35;58;25;31;0.81999999999999995;0.070000000000000007;0.080000000000000002;0.029999999999999999;18;64;68;89;0.63;0.17000000000000001;0.11;0.089999999999999997;1;6.866433097241043;12;9;23;2;
2019_02_25 10:26;13;3;0;control;36;97;1;17;33;32;74;0.94999999999999996;0.01;0.029999999999999999;0.01;76;23;0;0;0.33000000000000002;0.67000000000000004;0.0;0.0;0;3.8333226426784677;12;9;23;2;
2019_02_25 10:26;13;3;0;control;37;6;0;9;51;0;0;0.14999999999999999;0.84999999999999998;0.0;0.0;6;40;50;73;0.42999999999999999;0.26000000000000001;0.059999999999999998;0.25;0;5.016513533727448;12;9;23;2;
2019_02_25 10:26;13;3;0;control;38;62;1;12;45;16;50;0.20999999999999999;0.76000000000000001;0.02;0.01;92;15;0;0;0.20999999999999999;0.79000000000000004;0.0;0.0;0;4.149811994145239;12;9;23;2;
2019_02_25 10:26;13;3;0;control;39;20;1;44;40;0;0;0.91000000000000003;0.089999999999999997;0.0;0.0;29;5;80;99;0.25;0.40000000000000002;0.26000000000000001;0.089999999999999997;0;3.2498066060552446;12;9;23;2;
2019_02_25 10:26;13;3;0;control;40;72;0;63;82;51;61;0.01;0.96999999999999997;0.01;0.01;92;12;0;0;0.89000000000000001;0.11;0.0;0.0;1;3.0334016679989873;12;9;23;2;
2019_02_25 10:26;13;3;0;control;41;17;0;81;52;0;0;0.059999999999999998;0.93999999999999995;0.0;0.0;34;3;69;41;0.01;0.22;0.75;0.02;0;3.316530082861391;12;9;23;2;
2019_02_25 10:26;13;3;0;control;42;114;0;57;39;79;97;0.77000000000000002;0.02;0.13;0.080000000000000002;92;36;6;1;0.54000000000000004;0.12;0.13;0.20999999999999999;1;7.199771134462026;12;9;23;2;
2019_02_25 10:26;13;3;0;control;43;112;1;70;44;98;64;0.02;0.75;0.12;0.11;33;2;63;85;0.23999999999999999;0.31;0.080000000000000002;0.37;0;6.649722192644731;12;9;23;2;
2019_02_25 10:26;13;3;0;control;44;117;0;65;85;92;41;0.23000000000000001;0.17999999999999999;0.54000000000000004;0.050000000000000003;99;93;10;13;0.64000000000000001;0.16;0.01;0.19;1;2.9498016028287566;12;9;23;2;
2019_02_25 10:26;13;3;0;control;45;103;0;38;49;89;50;0.89000000000000001;0.070000000000000007;0.01;0.029999999999999999;6;64;99;27;0.70999999999999996;0.17999999999999999;0.059999999999999998;0.050000000000000003;0;4.466521038567407;12;9;23;2;
2019_02_25 10:26;13;3;0;control;46;149;0;14;89;73;53;0.93999999999999995;0.01;0.01;0.040000000000000001;97;45;6;13;0.34000000000000002;0.01;0.40999999999999998;0.23999999999999999;0;3.3333707506249084;12;9;23;2;
2019_02_25 10:26;13;3;0;control;47;138;1;8;20;43;51;0.38;0.5;0.02;0.10000000000000001;72;82;70;1;0.39000000000000001;0.050000000000000003;0.070000000000000007;0.48999999999999999;0;5.650095831029375;12;9;23;2;
2019_02_25 10:26;13;3;0;control;48;22;1;32;55;0;0;0.39000000000000001;0.60999999999999999;0.0;0.0;93;72;59;22;0.20000000000000001;0.11;0.14000000000000001;0.55000000000000004;1;3.0998496466309007;12;9;23;2;
2019_02_25 10:26;13;3;0;control;49;64;1;48;39;34;19;0.46000000000000002;0.5;0.02;0.02;13;92;0;0;0.68999999999999995;0.31;0.0;0.0;1;4.049851699237024;12;9;23;2;
2019_02_25 10:26;13;3;0;control;50;116;0;53;65;43;99;0.56999999999999995;0.37;0.050000000000000003;0.010000000000000101;57;72;11;87;0.67000000000000004;0.13;0.14999999999999999;0.050000000000000003;0;4.2166579858549085;12;9;23;2;
2019_02_25 10:26;13;3;0;control;51;35;1;33;37;0;0;0.88;0.12;0.0;0.0;63;4;79;98;0.16;0.46000000000000002;0.17000000000000001;0.20999999999999999;1;4.233175368218326;12;9;23;2;
2019_02_25 10:26;13;3;0;control;52;101;0;30;96;61;45;0.65000000000000002;0.14000000000000001;0.11;0.10000000000000001;3;98;63;89;0.75;0.19;0.040000000000000001;0.02;0;3.566483578512816;12;9;23;2;
2019_02_25 10:26;13;3;0;control;53;40;0;45;49;0;0;0.68999999999999995;0.31;0.0;0.0;2;92;65;73;0.23999999999999999;0.59999999999999998;0.11;0.050000000000000003;1;5.516584733488344;12;9;23;2;
2019_02_25 10:26;13;3;0;control;54;74;1;66;47;52;44;0.41999999999999998;0.26000000000000001;0.17999999999999999;0.14000000000000001;17;99;0;0;0.47999999999999998;0.52000000000000002;0.0;0.0;1;2.7998840919208305;12;9;23;2;
2019_02_25 10:26;13;3;0;control;55;139;1;44;31;16;8;0.79000000000000004;0.070000000000000007;0.13;0.0099999999999999499;92;58;2;88;0.55000000000000004;0.070000000000000007;0.34000000000000002;0.039999999999999897;1;5.183188004572003;12;9;23;2;
2019_02_25 10:26;13;3;0;control;56;41;1;99;40;0;0;0.89000000000000001;0.11;0.0;0.0;1;67;52;46;0.51000000000000001;0.38;0.029999999999999999;0.080000000000000002;0;2.049649004422008;12;9;23;2;
2019_02_25 10:26;13;3;0;control;57;67;0;44;42;8;89;0.88;0.070000000000000007;0.029999999999999999;0.02;10;63;0;0;0.39000000000000001;0.60999999999999999;0.0;0.0;0;2.8498836429134826;12;9;23;2;
2019_02_25 10:26;13;3;0;control;58;127;1;89;26;62;79;0.02;0.28999999999999998;0.53000000000000003;0.16;96;6;60;13;0.53000000000000003;0.25;0.17000000000000001;0.050000000000000003;1;3.866499165487312;12;9;23;2;
2019_02_25 10:26;13;3;0;control;59;61;1;43;18;39;70;0.75;0.089999999999999997;0.089999999999999997;0.070000000000000007;16;66;0;0;0.64000000000000001;0.35999999999999999;0.0;0.0;0;3.5166710070725458;12;9;23;2;
2019_02_25 10:26;13;3;0;control;60;140;1;36;32;26;27;0.39000000000000001;0.14999999999999999;0.19;0.27000000000000002;44;3;99;25;0.29999999999999999;0.34000000000000002;0.34000000000000002;0.0199999999999999;1;4.049809684963748;12;9;23;2;
2019_02_25 10:26;13;3;0;control;61;86;1;56;30;57;88;0.20000000000000001;0.35999999999999999;0.080000000000000002;0.35999999999999999;98;2;0;0;0.77000000000000002;0.23000000000000001;0.0;0.0;1;2.0499344449049204;12;9;23;2;
2019_02_25 10:26;13;3;0;control;62;15;0;77;81;0;0;0.28000000000000003;0.71999999999999997;0.0;0.0;98;14;87;18;0.55000000000000004;0.23000000000000001;0.16;0.059999999999999901;1;2.916476266104837;12;9;23;2;
2019_02_25 10:26;13;3;0;control;63;137;1;71;22;28;17;0.25;0.46000000000000002;0.050000000000000003;0.23999999999999999;3;98;92;69;0.42999999999999999;0.23999999999999999;0.20000000000000001;0.13;1;4.049839511890241;12;9;23;2;
2019_02_25 10:26;13;3;0;control;64;124;0;37;65;15;41;0.17999999999999999;0.45000000000000001;0.02;0.34999999999999998;40;7;98;30;0.070000000000000007;0.45000000000000001;0.45000000000000001;0.029999999999999898;1;4.066622450118302;12;9;23;2;
2019_02_25 10:26;13;3;0;control;65;32;0;19;81;0;0;0.93000000000000005;0.070000000000000007;0.0;0.0;1;65;41;68;0.45000000000000001;0.050000000000000003;0.059999999999999998;0.44;0;5.083189864746146;12;9;23;2;
2019_02_25 10:26;13;3;0;control;66;4;0;40;43;0;0;0.58999999999999997;0.40999999999999998;0.0;0.0;2;33;88;81;0.69999999999999996;0.14000000000000001;0.13;0.029999999999999999;0;3.583334188585468;12;9;23;2;
2019_02_25 10:26;13;3;0;control;67;125;0;37;41;10;35;0.91000000000000003;0.040000000000000001;0.029999999999999999;0.02;7;13;91;93;0.26000000000000001;0.39000000000000001;0.16;0.19;0;4.200105324330707;12;9;23;2;
2019_02_25 10:26;13;3;0;control;68;146;1;25;5;64;35;0.94999999999999996;0.02;0.01;0.02;47;97;12;79;0.20999999999999999;0.029999999999999999;0.02;0.73999999999999999;1;3.7998430398065466;12;9;23;2;
2019_02_25 10:26;13;3;0;control;69;134;0;57;48;50;55;0.02;0.62;0.17999999999999999;0.17999999999999999;80;96;15;18;0.23999999999999999;0.35999999999999999;0.33000000000000002;0.070000000000000007;0;5.666527260528255;12;9;23;2;
2019_02_25 10:26;13;3;0;control;70;113;1;85;65;39;64;0.44;0.34000000000000002;0.13;0.089999999999999997;87;2;4;35;0.67000000000000004;0.17000000000000001;0.11;0.049999999999999899;1;5.349981462404685;12;9;23;2;
2019_02_25 10:26;13;3;0;control;71;42;0;70;48;0;0;0.79000000000000004;0.20999999999999999;0.0;0.0;51;8;12;67;0.19;0.26000000000000001;0.28999999999999998;0.26000000000000001;0;3.883254521826075;12;9;23;2;
2019_02_25 10:26;13;3;0;control;72;34;1;32;48;0;0;0.28000000000000003;0.71999999999999997;0.0;0.0;97;83;7;62;0.040000000000000001;0.54000000000000004;0.35999999999999999;0.059999999999999901;0;5.049790441784808;12;9;23;2;
2019_02_25 10:26;13;3;0;control;73;99;0;8;24;15;73;0.56000000000000005;0.35999999999999999;0.070000000000000007;0.0099999999999999499;88;12;0;0;0.52000000000000002;0.47999999999999998;0.0;0.0;1;2.733433547531149;12;9;23;2;
2019_02_25 10:26;13;3;0;control;74;150;1;25;21;78;38;0.84999999999999998;0.059999999999999998;0.050000000000000003;0.040000000000000001;31;43;64;95;0.059999999999999998;0.45000000000000001;0.13;0.35999999999999999;0;4.866514880749946;12;9;23;2;
2019_02_25 10:26;13;3;0;control;75;104;1;55;85;93;3;0.87;0.02;0.089999999999999997;0.02;1;2;90;8;0.35999999999999999;0.070000000000000007;0.40000000000000002;0.17000000000000001;0;2.200019050746505;12;9;23;2;
2019_02_25 10:26;13;4;0;timed;1;26;0;76;41;0;0;0.57999999999999996;0.41999999999999998;0.0;0.0;61;79;84;2;0.13;0.029999999999999999;0.67000000000000004;0.17000000000000001;0;4.363850341951547;12;9;23;2;
2019_02_25 10:26;13;4;0;timed;2;105;0;49;74;63;58;0.84999999999999998;0.080000000000000002;0.02;0.050000000000000003;97;5;86;8;0.25;0.52000000000000002;0.070000000000000007;0.16;0;3.8164826163542784;12;9;23;2;
2019_02_25 10:26;13;4;0;timed;3;107;1;52;48;13;63;0.68000000000000005;0.19;0.050000000000000003;0.079999999999999905;54;91;33;3;0.19;0.17999999999999999;0.33000000000000002;0.29999999999999999;1;3.850095638597395;12;9;23;2;
2019_02_25 10:26;13;4;0;timed;4;132;0;27;70;21;19;0.64000000000000001;0.23000000000000001;0.029999999999999999;0.10000000000000001;11;85;55;6;0.39000000000000001;0.46999999999999997;0.029999999999999999;0.11;1;3.59986343757555;12;9;23;2;
2019_02_25 10:26;13;4;0;timed;5;32;0;19;81;0;0;0.93000000000000005;0.070000000000000007;0.0;0.0;1;65;41;68;0.45000000000000001;0.050000000000000003;0.059999999999999998;0.44;0;3.483358819854402;12;9;23;2;
2019_02_25 10:26;13;4;0;timed;6;2;1;59;32;0;0;0.080000000000000002;0.92000000000000004;0.0;0.0;33;38;85;1;0.28999999999999998;0.050000000000000003;0.070000000000000007;0.58999999999999997;0;4.149839255314873;12;9;23;2;
2019_02_25 10:26;13;4;0;timed;7;117;1;65;85;92;41;0.23000000000000001;0.17999999999999999;0.54000000000000004;0.050000000000000003;99;93;10;13;0.64000000000000001;0.16;0.01;0.19;1;2.3665209744231106;12;9;23;2;
2019_02_25 10:26;13;4;0;timed;8;21;1;64;28;0;0;0.080000000000000002;0.92000000000000004;0.0;0.0;50;1;88;13;0.57999999999999996;0.13;0.02;0.27000000000000002;0;3.649883514625344;12;9;23;2;
2019_02_25 10:26;13;4;0;timed;9;137;0;71;22;28;17;0.25;0.46000000000000002;0.050000000000000003;0.23999999999999999;3;98;92;69;0.42999999999999999;0.23999999999999999;0.20000000000000001;0.13;1;4.36682309232765;12;9;23;2;
2019_02_25 10:26;13;4;0;timed;10;103;0;38;49;89;50;0.89000000000000001;0.070000000000000007;0.01;0.029999999999999999;6;64;99;27;0.70999999999999996;0.17999999999999999;0.059999999999999998;0.050000000000000003;NA;5.133170813999186;12;9;23;2;
2019_02_25 10:26;13;4;0;timed;11;29;0;44;51;0;0;0.78000000000000003;0.22;0.0;0.0;74;1;68;82;0.69999999999999996;0.28000000000000003;0.01;0.01;1;4.216553431251214;12;9;23;2;
2019_02_25 10:26;13;4;0;timed;12;13;1;52;56;0;0;0.46999999999999997;0.53000000000000003;0.0;0.0;94;71;27;2;0.089999999999999997;0.31;0.57999999999999996;0.020000000000000101;0;3.4498429756627047;12;9;23;2;
2019_02_25 10:26;13;4;0;timed;13;6;0;9;51;0;0;0.14999999999999999;0.84999999999999998;0.0;0.0;6;40;50;73;0.42999999999999999;0.26000000000000001;0.059999999999999998;0.25;0;3.8833173828761574;12;9;23;2;
2019_02_25 10:26;13;4;0;timed;14;97;0;17;33;32;74;0.94999999999999996;0.01;0.029999999999999999;0.01;76;23;0;0;0.33000000000000002;0.67000000000000004;0.0;0.0;1;3.550032585115787;12;9;23;2;
2019_02_25 10:26;13;4;0;timed;15;31;1;10;59;0;0;0.23999999999999999;0.76000000000000001;0.0;0.0;1;79;53;73;0.23000000000000001;0.58999999999999997;0.050000000000000003;0.13;1;4.51643142949888;12;9;23;2;
2019_02_25 10:26;13;4;0;timed;16;61;0;43;18;39;70;0.75;0.089999999999999997;0.089999999999999997;0.070000000000000007;16;66;0;0;0.64000000000000001;0.35999999999999999;0.0;0.0;NA;5.133173059036835;12;9;23;2;
2019_02_25 10:26;13;4;0;timed;17;131;0;83;41;81;88;0.23999999999999999;0.58999999999999997;0.10000000000000001;0.070000000000000007;82;97;4;17;0.26000000000000001;0.46999999999999997;0.11;0.16;0;1.7667322645247623;12;9;23;2;
2019_02_25 10:26;13;4;0;timed;18;59;0;56;47;83;90;0.31;0.12;0.54000000000000004;0.029999999999999898;10;98;0;0;0.46999999999999997;0.53000000000000003;0.0;0.0;1;2.3000566390887798;12;9;23;2;
2019_02_25 10:26;13;4;0;timed;19;146;1;25;5;64;35;0.94999999999999996;0.02;0.01;0.02;47;97;12;79;0.20999999999999999;0.029999999999999999;0.02;0.73999999999999999;1;3.1665372028369347;12;9;23;2;
2019_02_25 10:26;13;4;0;timed;20;23;1;54;40;0;0;0.93000000000000005;0.070000000000000007;0.0;0.0;36;23;71;86;0.02;0.41999999999999998;0.19;0.37;0;3.7666328414347845;12;9;23;2;
2019_02_25 10:26;13;4;0;timed;21;115;0;50;28;61;79;0.83999999999999997;0.040000000000000001;0.059999999999999998;0.059999999999999998;1;26;97;55;0.45000000000000001;0.080000000000000002;0.40999999999999998;0.060000000000000102;0;3.9000140475204716;12;9;23;2;
2019_02_25 10:26;13;4;0;timed;22;3;0;53;40;0;0;0.31;0.68999999999999995;0.0;0.0;96;24;7;88;0.11;0.27000000000000002;0.58999999999999997;0.029999999999999999;0;3.4165574081748673;12;9;23;2;
2019_02_25 10:26;13;4;0;timed;23;134;1;57;48;50;55;0.02;0.62;0.17999999999999999;0.17999999999999999;80;96;15;18;0.23999999999999999;0.35999999999999999;0.33000000000000002;0.070000000000000007;1;3.2166865299036544;12;9;23;2;
2019_02_25 10:26;13;4;0;timed;24;11;0;17;36;0;0;0.14000000000000001;0.85999999999999999;0.0;0.0;19;41;34;95;0.88;0.02;0.050000000000000003;0.050000000000000003;0;2.6000196280419914;12;9;23;2;
2019_02_25 10:26;13;4;0;timed;25;141;1;93;28;60;91;0.81999999999999995;0.10000000000000001;0.01;0.070000000000000007;14;85;7;89;0.45000000000000001;0.070000000000000007;0.23999999999999999;0.23999999999999999;0;3.399881590307359;12;9;23;2;
2019_02_25 10:26;13;4;0;timed;26;71;0;68;55;36;51;0.20000000000000001;0.75;0.02;0.029999999999999999;38;81;0;0;0.52000000000000002;0.47999999999999998;0.0;0.0;1;3.299710903313553;12;9;23;2;
2019_02_25 10:26;13;4;0;timed;27;106;1;85;69;22;61;0.10000000000000001;0.58999999999999997;0.17999999999999999;0.13;20;79;91;84;0.55000000000000004;0.14999999999999999;0.26000000000000001;0.039999999999999897;1;4.033189993034284;12;9;23;2;
2019_02_25 10:26;13;4;0;timed;28;126;1;16;55;51;42;0.68999999999999995;0.23999999999999999;0.01;0.060000000000000102;66;4;1;5;0.46999999999999997;0.38;0.089999999999999997;0.059999999999999998;1;3.6998596530838768;12;9;23;2;
2019_02_25 10:26;13;4;0;timed;29;15;0;77;81;0;0;0.28000000000000003;0.71999999999999997;0.0;0.0;98;14;87;18;0.55000000000000004;0.23000000000000001;0.16;0.059999999999999901;0;2.6998955736844437;12;9;23;2;
2019_02_25 10:26;13;4;0;timed;30;145;1;91;89;90;74;0.57999999999999996;0.29999999999999999;0.11;0.010000000000000101;2;75;84;39;0.32000000000000001;0.27000000000000002;0.39000000000000001;0.0199999999999999;0;2.800017832012145;12;9;23;2;
2019_02_25 10:26;13;4;0;timed;31;125;0;37;41;10;35;0.91000000000000003;0.040000000000000001;0.029999999999999999;0.02;7;13;91;93;0.26000000000000001;0.39000000000000001;0.16;0.19;0;3.5831558684640186;12;9;23;2;
2019_02_25 10:26;13;4;0;timed;32;75;1;67;80;36;81;0.81999999999999995;0.080000000000000002;0.059999999999999998;0.040000000000000001;3;97;0;0;0.32000000000000001;0.68000000000000005;0.0;0.0;0;2.8164784469981896;12;9;23;2;
2019_02_25 10:26;13;4;0;timed;33;45;0;97;87;0;0;0.71999999999999997;0.28000000000000003;0.0;0.0;96;11;14;4;0.25;0.029999999999999999;0.14000000000000001;0.57999999999999996;0;2.2832429117752326;12;9;23;2;
2019_02_25 10:26;13;4;0;timed;34;88;1;77;13;12;7;0.12;0.19;0.66000000000000003;0.029999999999999898;94;2;0;0;0.40999999999999998;0.58999999999999997;0.0;0.0;1;2.8165409873290628;12;9;23;2;
2019_02_25 10:26;13;4;0;timed;35;100;0;27;14;59;52;0.02;0.95999999999999996;0.01;0.01;17;98;0;0;0.48999999999999999;0.51000000000000001;0.0;0.0;1;2.5500091725816674;12;9;23;2;
2019_02_25 10:26;13;4;0;timed;36;87;1;10;30;63;4;0.56999999999999995;0.12;0.16;0.14999999999999999;86;2;0;0;0.42999999999999999;0.56999999999999995;0.0;0.0;1;2.4999053877054394;12;9;23;2;
2019_02_25 10:26;13;4;0;timed;37;25;1;50;53;0;0;0.82999999999999996;0.17000000000000001;0.0;0.0;83;16;97;4;0.45000000000000001;0.29999999999999999;0.11;0.14000000000000001;1;3.399858819213023;12;9;23;2;
2019_02_25 10:26;13;4;0;timed;38;22;1;32;55;0;0;0.39000000000000001;0.60999999999999999;0.0;0.0;93;72;59;22;0.20000000000000001;0.11;0.14000000000000001;0.55000000000000004;1;2.4667413729625878;12;9;23;2;
2019_02_25 10:26;13;4;0;timed;39;73;0;65;68;70;47;0.25;0.23000000000000001;0.20999999999999999;0.31;27;95;0;0;0.45000000000000001;0.55000000000000004;0.0;0.0;1;3.049851699237024;12;9;23;2;
2019_02_25 10:26;13;4;0;timed;40;38;0;40;70;0;0;0.53000000000000003;0.46999999999999997;0.0;0.0;97;90;6;96;0.56999999999999995;0.070000000000000007;0.27000000000000002;0.089999999999999997;0;3.0500412445462644;12;9;23;2;
2019_02_25 10:26;13;4;0;timed;41;20;1;44;40;0;0;0.91000000000000003;0.089999999999999997;0.0;0.0;29;5;80;99;0.25;0.40000000000000002;0.26000000000000001;0.089999999999999997;1;3.2167262991392818;12;9;23;2;
2019_02_25 10:26;13;4;0;timed;42;44;1;79;74;0;0;0.71999999999999997;0.28000000000000003;0.0;0.0;3;67;15;36;0.41999999999999998;0.53000000000000003;0.02;0.029999999999999999;0;3.1331842842241713;12;9;23;2;
2019_02_25 10:26;13;4;0;timed;43;30;0;33;30;0;0;0.71999999999999997;0.28000000000000003;0.0;0.0;9;88;1;14;0.55000000000000004;0.39000000000000001;0.01;0.049999999999999899;1;2.5167043619157994;12;9;23;2;
2019_02_25 10:26;13;4;0;timed;44;47;0;2;40;0;0;0.45000000000000001;0.55000000000000004;0.0;0.0;93;89;11;56;0.58999999999999997;0.070000000000000007;0.28000000000000003;0.059999999999999998;1;2.916710391444667;12;9;23;2;
2019_02_25 10:26;13;4;0;timed;45;76;0;39;62;9;28;0.01;0.51000000000000001;0.26000000000000001;0.22;77;7;0;0;0.57999999999999996;0.41999999999999998;0.0;0.0;1;2.8832131489925814;12;9;23;2;
2019_02_25 10:26;13;4;0;timed;46;92;0;90;86;65;94;0.16;0.34000000000000002;0.28000000000000003;0.22;79;22;0;0;0.35999999999999999;0.64000000000000001;0.0;0.0;1;1.5501855683855865;12;9;23;2;
2019_02_25 10:26;13;4;0;timed;47;77;0;24;17;99;41;0.17999999999999999;0.13;0.10000000000000001;0.58999999999999997;12;97;0;0;0.59999999999999998;0.40000000000000002;0.0;0.0;1;1.949901346637489;12;9;23;2;
2019_02_25 10:26;13;4;0;timed;48;69;0;54;34;64;49;0.34000000000000002;0.25;0.20999999999999999;0.20000000000000001;14;98;0;0;0.62;0.38;0.0;0.0;1;3.1665388064352555;12;9;23;2;
2019_02_25 10:26;13;4;0;timed;49;18;1;68;50;0;0;0.029999999999999999;0.96999999999999997;0.0;0.0;34;64;15;89;0.65000000000000002;0.029999999999999999;0.050000000000000003;0.27000000000000002;0;2.3833571521122394;12;9;23;2;
2019_02_25 10:26;13;4;0;timed;50;67;0;44;42;8;89;0.88;0.070000000000000007;0.029999999999999999;0.02;10;63;0;0;0.39000000000000001;0.60999999999999999;0.0;0.0;1;4.049845926283524;12;9;23;2;
2019_02_25 10:26;13;4;0;timed;51;130;1;37;79;23;95;0.94999999999999996;0.029999999999999999;0.01;0.01;94;4;58;49;0.46000000000000002;0.5;0.029999999999999999;0.01;1;4.366465169205185;12;9;23;2;
2019_02_25 10:26;13;4;0;timed;52;5;1;70;5;0;0;0.98999999999999999;0.01;0.0;0.0;92;87;47;1;0.44;0.02;0.16;0.38;0;3.583203334971131;12;9;23;2;
2019_02_25 10:26;13;4;0;timed;53;138;1;8;20;43;51;0.38;0.5;0.02;0.10000000000000001;72;82;70;1;0.39000000000000001;0.050000000000000003;0.070000000000000007;0.48999999999999999;1;3.96652969799743;12;9;23;2;
2019_02_25 10:26;13;4;0;timed;54;62;0;12;45;16;50;0.20999999999999999;0.76000000000000001;0.02;0.01;92;15;0;0;0.20999999999999999;0.79000000000000004;0.0;0.0;1;2.683338422084944;12;9;23;2;
2019_02_25 10:26;13;4;0;timed;55;70;0;66;55;69;50;0.22;0.29999999999999999;0.29999999999999999;0.17999999999999999;2;90;0;0;0.34000000000000002;0.66000000000000003;0.0;0.0;1;2.83321135296228;12;9;23;2;
2019_02_25 10:26;13;4;0;timed;56;94;0;84;86;93;39;0.78000000000000003;0.20000000000000001;0.01;0.0099999999999999603;9;83;0;0;0.46999999999999997;0.53000000000000003;0.0;0.0;0;1.6499758818827104;12;9;23;2;
2019_02_25 10:26;13;4;0;timed;57;95;0;93;88;68;85;0.83999999999999997;0.14000000000000001;0.01;0.01;2;82;0;0;0.41999999999999998;0.57999999999999996;0.0;0.0;0;2.566676331018698;12;9;23;2;
2019_02_25 10:26;13;4;0;timed;58;48;0;13;32;0;0;0.90000000000000002;0.10000000000000001;0.0;0.0;24;99;84;94;0.62;0.14999999999999999;0.20000000000000001;0.029999999999999999;1;2.2500237332537836;12;9;23;2;
2019_02_25 10:26;13;4;0;timed;59;14;0;36;40;0;0;0.54000000000000004;0.46000000000000002;0.0;0.0;99;70;1;11;0.16;0.089999999999999997;0.080000000000000002;0.67000000000000004;0;3.9165221290136287;12;9;23;2;
2019_02_25 10:26;13;4;0;timed;60;85;0;31;22;82;50;0.11;0.69999999999999996;0.01;0.17999999999999999;3;99;0;0;0.62;0.38;0.0;0.0;1;3.3832279020962233;12;9;23;2;
2019_02_25 10:26;13;4;0;timed;61;63;1;56;78;42;36;0.93000000000000005;0.040000000000000001;0.01;0.0199999999999999;2;72;0;0;0.32000000000000001;0.68000000000000005;0.0;0.0;0;2.4165298262855686;12;9;23;2;
2019_02_25 10:26;13;4;0;timed;62;58;1;37;58;76;34;0.20999999999999999;0.57999999999999996;0.19;0.020000000000000101;86;5;0;0;0.47999999999999998;0.52000000000000002;0.0;0.0;0;2.6167044260591865;12;9;23;2;
2019_02_25 10:26;13;4;0;timed;63;121;0;42;51;47;70;0.41999999999999998;0.17000000000000001;0.23999999999999999;0.17000000000000001;21;76;48;9;0.14999999999999999;0.34000000000000002;0.40999999999999998;0.10000000000000001;1;2.883352341317277;12;9;23;2;
2019_02_25 10:26;13;4;0;timed;64;122;1;35;58;25;31;0.81999999999999995;0.070000000000000007;0.080000000000000002;0.029999999999999999;18;64;68;89;0.63;0.17000000000000001;0.11;0.089999999999999997;1;3.3498438736778553;12;9;23;2;
2019_02_25 10:26;13;4;0;timed;65;99;1;8;24;15;73;0.56000000000000005;0.35999999999999999;0.070000000000000007;0.0099999999999999499;88;12;0;0;0.52000000000000002;0.47999999999999998;0.0;0.0;1;2.6831873631326744;12;9;23;2;
2019_02_25 10:26;13;4;0;timed;66;90;1;27;44;50;72;0.68000000000000005;0.28999999999999998;0.02;0.0099999999999999707;6;96;0;0;0.46999999999999997;0.53000000000000003;0.0;0.0;1;2.9332216801349205;12;9;23;2;
2019_02_25 10:26;13;4;0;timed;67;52;1;71;51;10;54;0.22;0.12;0.19;0.46999999999999997;91;1;0;0;0.29999999999999999;0.69999999999999996;0.0;0.0;0;3.3500353433050805;12;9;23;2;
2019_02_25 10:26;13;4;0;timed;68;7;0;49;29;0;0;0.95999999999999996;0.040000000000000001;0.0;0.0;23;99;64;25;0.68999999999999995;0.12;0.059999999999999998;0.13;0;4.4497692101444954;12;9;23;2;
2019_02_25 10:26;13;4;0;timed;69;51;1;52;23;43;16;0.60999999999999999;0.20999999999999999;0.01;0.17000000000000001;92;7;0;0;0.14999999999999999;0.84999999999999998;0.0;0.0;0;3.4835708155387692;12;9;23;2;
2019_02_25 10:26;13;4;0;timed;70;93;0;87;81;73;98;0.80000000000000004;0.040000000000000001;0.14999999999999999;0.0099999999999999499;5;71;0;0;0.51000000000000001;0.48999999999999999;0.0;0.0;0;2.149923283861426;12;9;23;2;
2019_02_25 10:26;13;4;0;timed;71;55;0;74;55;47;48;0.60999999999999999;0.31;0.070000000000000007;0.01;97;6;0;0;0.42999999999999999;0.56999999999999995;0.0;0.0;0;3.31653810085254;12;9;23;2;
2019_02_25 10:26;13;4;0;timed;72;84;1;43;10;5;45;0.78000000000000003;0.13;0.059999999999999998;0.029999999999999999;87;1;0;0;0.57999999999999996;0.41999999999999998;0.0;0.0;0;3.149804296873299;12;9;23;2;
2019_02_25 10:26;13;4;0;timed;73;110;1;47;44;23;52;0.13;0.27000000000000002;0.040000000000000001;0.56000000000000005;99;2;30;22;0.28999999999999998;0.5;0.11;0.10000000000000001;1;4.133203527403111;12;9;23;2;
2019_02_25 10:26;13;4;0;timed;74;78;0;74;36;34;3;0.14999999999999999;0.64000000000000001;0.13;0.080000000000000002;1;83;0;0;0.41999999999999998;0.57999999999999996;0.0;0.0;1;2.6166656189825517;12;9;23;2;
2019_02_25 10:26;13;4;0;timed;75;104;0;55;85;93;3;0.87;0.02;0.089999999999999997;0.02;1;2;90;8;0.35999999999999999;0.070000000000000007;0.40000000000000002;0.17000000000000001;1;3.866731687229276;12;9;23;2;
