date;id;block;order;cond;trial;gameid;leftright;oa1;oa2;oa3;oa4;pa1;pa2;pa3;pa4;ob1;ob2;ob3;ob4;pb1;pb2;pb3;pb4;choice;rt;paytrial;payout;alter;geschlecht;comment
2019_03_22 14:53;54;0;1;practice;1;35;1;84;95;4;35;0.89000000000000001;0.050000000000000003;0.01;0.050000000000000003;5;98;0;0;0.19;0.81000000000000005;0.0;0.0;1;17.365962703914192;55;93;22;2;nein
2019_03_22 14:53;54;0;1;practice;2;34;0;57;23;66;79;0.56000000000000005;0.23000000000000001;0.13;0.079999999999999905;85;9;0;0;0.56000000000000005;0.44;0.0;0.0;1;9.16641383105889;55;93;22;2;nein
2019_03_22 14:53;54;0;1;practice;3;23;0;99;93;0;0;0.57999999999999996;0.41999999999999998;0.0;0.0;64;10;80;81;0.13;0.55000000000000004;0.02;0.29999999999999999;0;8.966242116659487;55;93;22;2;nein
2019_03_22 14:53;54;0;1;practice;4;9;0;57;44;0;0;0.14999999999999999;0.84999999999999998;0.0;0.0;38;35;64;95;0.34000000000000002;0.45000000000000001;0.089999999999999997;0.12;1;11.099644063056985;55;93;22;2;nein
2019_03_22 14:53;54;0;1;practice;5;21;0;59;69;0;0;0.34000000000000002;0.66000000000000003;0.0;0.0;64;18;5;24;0.14999999999999999;0.040000000000000001;0.51000000000000001;0.29999999999999999;0;9.449699291333673;55;93;22;2;nein
2019_03_22 14:53;54;0;1;practice;6;18;1;47;36;0;0;0.089999999999999997;0.91000000000000003;0.0;0.0;2;44;81;9;0.20000000000000001;0.25;0.51000000000000001;0.040000000000000001;1;11.032834525563885;55;93;22;2;nein
2019_03_22 14:53;54;0;1;practice;7;29;0;66;40;92;49;0.46999999999999997;0.10000000000000001;0.34000000000000002;0.089999999999999997;8;94;0;0;0.44;0.56000000000000005;0.0;0.0;0;16.166003628002727;55;93;22;2;nein
2019_03_22 14:53;54;0;1;practice;8;13;0;15;25;0;0;0.29999999999999999;0.69999999999999996;0.0;0.0;3;43;35;73;0.44;0.40000000000000002;0.01;0.14999999999999999;1;9.449752851856829;55;93;22;2;nein
2019_03_22 14:53;54;0;1;practice;9;51;1;38;13;51;84;0.91000000000000003;0.070000000000000007;0.01;0.0099999999999999603;4;89;35;16;0.80000000000000004;0.089999999999999997;0.059999999999999998;0.050000000000000003;0;16.449302558588897;55;93;22;2;nein
2019_03_22 14:53;54;0;1;practice;10;65;0;35;15;77;1;0.62;0.33000000000000002;0.029999999999999999;0.02;68;3;25;96;0.38;0.28000000000000003;0.28000000000000003;0.059999999999999901;1;19.982486029361098;55;93;22;2;nein
2019_03_22 14:53;54;0;1;practice;11;38;0;51;89;10;60;0.57999999999999996;0.029999999999999999;0.080000000000000002;0.31;8;84;0;0;0.33000000000000002;0.67000000000000004;0.0;0.0;1;15.699460032945353;55;93;22;2;nein
2019_03_22 14:53;54;0;1;practice;12;70;1;21;42;14;63;0.96999999999999997;0.01;0.01;0.01;70;2;6;76;0.23999999999999999;0.42999999999999999;0.01;0.32000000000000001;1;18.932552226322514;55;93;22;2;nein
2019_03_22 14:53;54;0;1;practice;13;75;1;21;86;27;62;0.88;0.040000000000000001;0.070000000000000007;0.0099999999999999794;13;3;49;87;0.28999999999999998;0.39000000000000001;0.070000000000000007;0.25;0;17.749278376171787;55;93;22;2;nein
2019_03_22 14:53;54;0;1;practice;14;50;0;17;12;21;14;0.55000000000000004;0.34000000000000002;0.059999999999999998;0.049999999999999899;13;93;0;0;0.28999999999999998;0.70999999999999996;0.0;0.0;1;8.466226080576234;55;93;22;2;nein
2019_03_22 14:53;54;0;1;practice;15;46;0;79;57;98;81;0.67000000000000004;0.070000000000000007;0.20999999999999999;0.050000000000000003;1;76;0;0;0.56000000000000005;0.44;0.0;0.0;0;9.999555479722403;55;93;22;2;nein
2019_03_22 14:53;54;0;1;practice;16;72;1;86;85;97;43;0.51000000000000001;0.14999999999999999;0.33000000000000002;0.0099999999999999499;72;29;10;90;0.01;0.11;0.65000000000000002;0.23000000000000001;0;18.099338735997662;55;93;22;2;nein
2019_03_22 14:53;54;0;1;practice;17;73;1;99;88;95;28;0.83999999999999997;0.14000000000000001;0.01;0.01;90;93;10;74;0.080000000000000002;0.46000000000000002;0.34999999999999998;0.11;0;7.649622446413559;55;93;22;2;nein
2019_03_22 14:53;54;0;1;practice;18;1;0;67;36;0;0;0.14999999999999999;0.84999999999999998;0.0;0.0;1;4;81;77;0.25;0.54000000000000004;0.14000000000000001;0.070000000000000007;0;10.249544254464126;55;93;22;2;nein
2019_03_22 14:53;54;0;1;practice;19;49;0;14;31;42;22;0.77000000000000002;0.089999999999999997;0.02;0.12;87;28;0;0;0.68000000000000005;0.32000000000000001;0.0;0.0;1;7.6996611254508025;55;93;22;2;nein
2019_03_22 14:53;54;0;1;practice;20;28;0;37;83;75;8;0.83999999999999997;0.070000000000000007;0.01;0.080000000000000002;94;2;0;0;0.19;0.81000000000000005;0.0;0.0;0;13.332894372233568;55;93;22;2;nein
2019_03_22 14:53;54;0;1;practice;21;5;0;23;58;0;0;0.71999999999999997;0.28000000000000003;0.0;0.0;94;12;52;3;0.11;0.84999999999999998;0.029999999999999999;0.01;0;15.932680515001266;55;93;22;2;nein
2019_03_22 14:53;54;0;1;practice;22;64;1;44;60;96;45;0.53000000000000003;0.10000000000000001;0.029999999999999999;0.34000000000000002;88;20;43;31;0.47999999999999998;0.38;0.050000000000000003;0.089999999999999997;1;13.516148658356542;55;93;22;2;nein
2019_03_22 14:53;54;0;1;practice;23;2;1;41;60;0;0;0.97999999999999998;0.02;0.0;0.0;10;14;97;6;0.54000000000000004;0.17000000000000001;0.12;0.17000000000000001;0;11.49961769973197;55;93;22;2;nein
2019_03_22 14:53;54;0;1;practice;24;69;1;38;74;27;73;0.22;0.19;0.45000000000000001;0.14000000000000001;1;97;79;84;0.28000000000000003;0.45000000000000001;0.17000000000000001;0.10000000000000001;1;20.64913430798515;55;93;22;2;nein
2019_03_22 14:53;54;0;1;practice;25;30;0;54;78;85;25;0.20999999999999999;0.60999999999999999;0.089999999999999997;0.090000000000000094;87;20;0;0;0.58999999999999997;0.40999999999999998;0.0;0.0;1;11.899624050021885;55;93;22;2;nein
2019_03_22 14:53;54;0;1;practice;26;14;1;92;56;0;0;0.11;0.89000000000000001;0.0;0.0;97;31;51;4;0.58999999999999997;0.22;0.080000000000000002;0.11;0;13.699374720972628;55;93;22;2;nein
2019_03_22 14:53;54;0;1;practice;27;56;1;47;52;64;10;0.77000000000000002;0.040000000000000001;0.11;0.080000000000000002;1;5;12;99;0.14000000000000001;0.28999999999999998;0.27000000000000002;0.29999999999999999;0;19.215840893813947;55;93;22;2;nein
2019_03_22 14:53;54;0;1;practice;28;15;0;24;59;0;0;0.56999999999999995;0.42999999999999999;0.0;0.0;9;8;80;22;0.31;0.10000000000000001;0.55000000000000004;0.039999999999999897;1;17.865892465863;55;93;22;2;nein
2019_03_22 14:53;54;0;1;practice;29;67;0;74;31;10;77;0.11;0.070000000000000007;0.77000000000000002;0.050000000000000003;2;23;8;97;0.56999999999999995;0.01;0.059999999999999998;0.35999999999999999;1;23.73236255150732;55;93;22;2;nein
2019_03_22 14:53;54;0;1;practice;30;43;0;11;17;21;44;0.16;0.46000000000000002;0.25;0.13;2;66;0;0;0.44;0.56000000000000005;0.0;0.0;1;9.816396447944499;55;93;22;2;nein
2019_03_22 14:53;54;0;1;practice;31;45;1;37;40;75;23;0.54000000000000004;0.38;0.059999999999999998;0.02;1;90;0;0;0.28000000000000003;0.71999999999999997;0.0;0.0;1;19.649167342320652;55;93;22;2;nein
2019_03_22 14:53;54;0;1;practice;32;59;1;13;27;48;51;0.56999999999999995;0.13;0.13;0.17000000000000001;8;37;97;1;0.65000000000000002;0.16;0.14999999999999999;0.040000000000000001;0;14.816031466647473;55;93;22;2;nein
2019_03_22 14:53;54;0;1;practice;33;61;1;51;48;56;88;0.91000000000000003;0.02;0.01;0.059999999999999998;78;21;14;82;0.55000000000000004;0.29999999999999999;0.070000000000000007;0.080000000000000002;1;12.316085989335988;55;93;22;2;nein
2019_03_22 14:53;54;0;1;practice;34;26;0;24;46;74;59;0.29999999999999999;0.11;0.25;0.34000000000000002;91;6;0;0;0.28999999999999998;0.70999999999999996;0.0;0.0;0;18.63254401584709;55;93;22;2;nein
2019_03_22 14:53;54;0;1;practice;35;57;0;39;68;59;91;0.73999999999999999;0.040000000000000001;0.14999999999999999;0.070000000000000007;9;22;40;84;0.29999999999999999;0.32000000000000001;0.040000000000000001;0.34000000000000002;0;13.266119151960083;55;93;22;2;nein
2019_03_22 14:53;54;0;1;practice;36;16;0;50;42;0;0;0.32000000000000001;0.68000000000000005;0.0;0.0;97;2;56;31;0.35999999999999999;0.16;0.16;0.32000000000000001;1;17.83258712084171;55;93;22;2;nein
2019_03_22 14:53;54;0;1;practice;37;22;0;84;87;0;0;0.17000000000000001;0.82999999999999996;0.0;0.0;3;24;41;83;0.68000000000000005;0.11;0.10000000000000001;0.11;0;6.932980389792647;55;93;22;2;nein
2019_03_22 14:53;54;0;1;practice;38;8;0;20;44;0;0;0.26000000000000001;0.73999999999999999;0.0;0.0;99;3;69;24;0.20999999999999999;0.60999999999999999;0.12;0.060000000000000102;0;8.366417166565952;55;93;22;2;nein
2019_03_22 14:53;54;0;1;practice;39;54;0;69;80;22;55;0.27000000000000002;0.31;0.059999999999999998;0.35999999999999999;52;2;49;90;0.059999999999999998;0.33000000000000002;0.20000000000000001;0.40999999999999998;1;14.43272349171093;55;93;22;2;nein
2019_03_22 14:53;54;0;1;practice;40;36;0;56;89;86;77;0.66000000000000003;0.080000000000000002;0.14999999999999999;0.11;29;91;0;0;0.40999999999999998;0.58999999999999997;0.0;0.0;1;12.699519687179418;55;93;22;2;nein
2019_03_22 14:53;54;0;1;practice;41;66;1;44;18;63;36;0.47999999999999998;0.10000000000000001;0.029999999999999999;0.39000000000000001;13;93;61;53;0.52000000000000002;0.45000000000000001;0.02;0.0099999999999999707;1;17.79923976127975;55;93;22;2;nein
2019_03_22 14:53;54;0;1;practice;42;68;1;39;58;40;8;0.48999999999999999;0.44;0.02;0.050000000000000003;92;83;51;2;0.57999999999999996;0.13;0.02;0.27000000000000002;1;13.766064308549176;55;93;22;2;nein
2019_03_22 14:53;54;0;1;practice;43;11;0;10;44;0;0;0.48999999999999999;0.51000000000000001;0.0;0.0;88;12;54;50;0.17000000000000001;0.75;0.02;0.059999999999999998;0;12.232804506011234;55;93;22;2;nein
2019_03_22 14:53;54;0;1;practice;44;48;0;20;25;24;35;0.32000000000000001;0.13;0.48999999999999999;0.059999999999999901;44;76;0;0;0.29999999999999999;0.69999999999999996;0.0;0.0;1;6.099689605538515;55;93;22;2;nein
2019_03_22 14:53;54;0;1;practice;45;40;0;29;65;30;41;0.70999999999999996;0.01;0.14999999999999999;0.13;2;59;0;0;0.32000000000000001;0.68000000000000005;0.0;0.0;1;19.665851926638425;55;93;22;2;nein
2019_03_22 14:53;54;0;1;practice;46;37;1;50;66;99;12;0.26000000000000001;0.71999999999999997;0.01;0.01;22;90;0;0;0.37;0.63;0.0;0.0;1;14.566156227389001;55;93;22;2;nein
2019_03_22 14:53;54;0;1;practice;47;10;0;34;59;0;0;0.16;0.83999999999999997;0.0;0.0;21;61;96;7;0.19;0.01;0.5;0.29999999999999999;0;16.999284469884515;55;93;22;2;nein
2019_03_22 14:53;54;0;1;practice;48;24;1;19;38;0;0;0.89000000000000001;0.11;0.0;0.0;45;76;95;57;0.29999999999999999;0.22;0.40000000000000002;0.080000000000000002;1;7.266331790448021;55;93;22;2;nein
2019_03_22 14:53;54;0;1;practice;49;39;1;53;65;48;75;0.92000000000000004;0.029999999999999999;0.01;0.040000000000000001;16;83;0;0;0.31;0.68999999999999995;0.0;0.0;1;6.166383041774679;55;93;22;2;nein
2019_03_22 14:53;54;0;1;practice;50;7;0;13;31;0;0;0.51000000000000001;0.48999999999999999;0.0;0.0;8;79;42;18;0.85999999999999999;0.089999999999999997;0.02;0.029999999999999999;0;10.93284312090509;55;93;22;2;nein
2019_03_22 14:53;54;0;1;practice;51;71;0;94;87;26;75;0.71999999999999997;0.23999999999999999;0.02;0.02;90;27;12;83;0.16;0.73999999999999999;0.02;0.080000000000000002;0;10.032943250220342;55;93;22;2;nein
2019_03_22 14:53;54;0;1;practice;52;6;1;42;59;0;0;0.35999999999999999;0.64000000000000001;0.0;0.0;77;19;6;7;0.44;0.14999999999999999;0.17999999999999999;0.23000000000000001;0;15.49934348267925;55;93;22;2;nein
2019_03_22 14:53;54;0;1;practice;53;32;0;21;86;16;78;0.45000000000000001;0.41999999999999998;0.050000000000000003;0.080000000000000099;95;9;0;0;0.42999999999999999;0.56999999999999995;0.0;0.0;0;19.099219106803503;55;93;22;2;nein
2019_03_22 14:53;54;0;1;practice;54;47;1;91;99;90;78;0.93000000000000005;0.040000000000000001;0.02;0.0099999999999999499;10;87;0;0;0.23000000000000001;0.77000000000000002;0.0;0.0;0;11.03286467340331;55;93;22;2;nein
2019_03_22 14:53;54;0;1;practice;55;62;0;65;52;74;55;0.16;0.12;0.14999999999999999;0.56999999999999995;72;86;2;68;0.12;0.53000000000000003;0.22;0.13;0;23.265657312711483;55;93;22;2;nein
2019_03_22 14:53;54;0;1;practice;56;33;1;54;82;55;71;0.56000000000000005;0.20999999999999999;0.02;0.20999999999999999;13;99;0;0;0.5;0.5;0.0;0.0;0;13.282924648359767;55;93;22;2;nein
2019_03_22 14:53;54;0;1;practice;57;52;0;17;61;57;59;0.070000000000000007;0.050000000000000003;0.33000000000000002;0.55000000000000004;12;93;94;62;0.71999999999999997;0.16;0.080000000000000002;0.040000000000000001;0;16.382745749795504;55;93;22;2;nein
2019_03_22 14:53;54;0;1;practice;58;20;1;32;11;0;0;0.40999999999999998;0.58999999999999997;0.0;0.0;1;86;42;65;0.45000000000000001;0.38;0.050000000000000003;0.12;1;11.76611562402104;55;93;22;2;nein
2019_03_22 14:53;54;0;1;practice;59;19;0;25;73;0;0;0.69999999999999996;0.29999999999999999;0.0;0.0;87;84;1;86;0.040000000000000001;0.59999999999999998;0.28000000000000003;0.080000000000000002;1;19.649204546038163;55;93;22;2;nein
2019_03_22 14:53;54;0;1;practice;60;27;0;68;43;98;36;0.54000000000000004;0.44;0.01;0.0099999999999999603;97;13;0;0;0.27000000000000002;0.72999999999999998;0.0;0.0;0;9.533043956833353;55;93;22;2;nein
2019_03_22 14:53;54;0;1;practice;61;4;1;40;59;0;0;0.19;0.81000000000000005;0.0;0.0;10;88;13;45;0.56000000000000005;0.28999999999999998;0.01;0.14000000000000001;0;15.032696935952117;55;93;22;2;nein
2019_03_22 14:53;54;0;1;practice;62;41;0;19;54;51;8;0.76000000000000001;0.070000000000000007;0.16;0.0099999999999999794;2;77;0;0;0.54000000000000004;0.46000000000000002;0.0;0.0;1;6.899728284575758;55;93;22;2;nein
2019_03_22 14:53;54;0;1;practice;63;53;1;47;24;95;38;0.57999999999999996;0.28000000000000003;0.02;0.12;8;22;93;96;0.54000000000000004;0.34000000000000002;0.10000000000000001;0.0199999999999999;0;17.866128517034667;55;93;22;2;nein
2019_03_22 14:53;54;0;1;practice;64;60;1;39;93;27;78;0.85999999999999999;0.02;0.11;0.01;22;5;62;95;0.059999999999999998;0.56999999999999995;0.14000000000000001;0.23000000000000001;0;20.2159691824927;55;93;22;2;nein
2019_03_22 14:53;54;0;1;practice;65;74;0;36;46;10;12;0.11;0.19;0.65000000000000002;0.049999999999999899;92;24;79;19;0.51000000000000001;0.40999999999999998;0.02;0.059999999999999998;1;15.816011261180392;55;93;22;2;nein
2019_03_22 14:53;54;0;1;practice;66;12;1;45;86;0;0;0.97999999999999998;0.02;0.0;0.0;6;23;95;81;0.14999999999999999;0.40999999999999998;0.050000000000000003;0.39000000000000001;0;14.132870831259424;55;93;22;2;nein
2019_03_22 14:53;54;0;1;practice;67;63;1;24;82;6;96;0.91000000000000003;0.070000000000000007;0.01;0.0099999999999999603;73;10;71;22;0.31;0.51000000000000001;0.050000000000000003;0.13;0;19.232506876272964;55;93;22;2;nein
2019_03_22 14:53;54;0;1;practice;68;25;0;7;18;0;0;0.20999999999999999;0.79000000000000004;0.0;0.0;92;45;33;13;0.41999999999999998;0.17999999999999999;0.22;0.17999999999999999;1;7.299900768704902;55;93;22;2;nein
2019_03_22 14:53;54;0;1;practice;69;58;1;44;50;85;42;0.38;0.57999999999999996;0.02;0.02;37;88;19;12;0.20000000000000001;0.29999999999999999;0.46000000000000002;0.040000000000000001;0;15.78269725667451;55;93;22;2;nein
2019_03_22 14:53;54;0;1;practice;70;44;1;69;48;22;63;0.39000000000000001;0.40999999999999998;0.19;0.01;1;94;0;0;0.22;0.78000000000000003;0.0;0.0;1;15.965966937441408;55;93;22;2;nein
2019_03_22 14:53;54;0;1;practice;71;31;0;72;59;40;92;0.59999999999999998;0.34999999999999998;0.02;0.029999999999999999;97;29;0;0;0.38;0.62;0.0;0.0;0;13.616131403530744;55;93;22;2;nein
2019_03_22 14:53;54;0;1;practice;72;42;0;23;45;91;22;0.72999999999999998;0.02;0.20000000000000001;0.050000000000000003;2;86;0;0;0.40999999999999998;0.58999999999999997;0.0;0.0;0;18.699235527754354;55;93;22;2;nein
2019_03_22 14:53;54;0;1;practice;73;55;1;53;11;80;74;0.31;0.37;0.28000000000000003;0.039999999999999897;6;93;98;96;0.69999999999999996;0.22;0.050000000000000003;0.029999999999999999;0;12.682836065027004;55;93;22;2;nein
2019_03_22 14:53;54;0;1;practice;74;17;0;27;61;0;0;0.68999999999999995;0.31;0.0;0.0;3;91;69;43;0.29999999999999999;0.33000000000000002;0.27000000000000002;0.099999999999999895;0;9.132951653127748;55;93;22;2;nein
2019_03_22 14:53;54;0;1;practice;75;3;0;20;70;0;0;0.13;0.87;0.0;0.0;95;19;80;73;0.31;0.57999999999999996;0.029999999999999999;0.080000000000000002;0;8.432954411333412;55;93;22;2;nein
2019_03_22 14:53;54;1;1;timed;1;22;0;32;55;0;0;0.39000000000000001;0.60999999999999999;0.0;0.0;93;72;59;22;0.20000000000000001;0.11;0.14000000000000001;0.55000000000000004;0;7.571310225121124;55;93;22;2;nein
2019_03_22 14:53;54;1;1;timed;2;81;1;67;38;52;65;0.27000000000000002;0.35999999999999999;0.01;0.35999999999999999;2;77;0;0;0.14000000000000001;0.85999999999999999;0.0;0.0;NA;10.032856013916899;55;93;22;2;nein
2019_03_22 14:53;54;1;1;timed;3;111;1;51;36;48;27;0.93000000000000005;0.01;0.01;0.049999999999999899;31;78;30;53;0.55000000000000004;0.16;0.029999999999999999;0.26000000000000001;0;9.066274894419621;55;93;22;2;nein
2019_03_22 14:53;54;1;1;timed;4;91;1;74;81;86;48;0.93000000000000005;0.02;0.01;0.039999999999999897;7;64;0;0;0.13;0.87;0.0;0.0;0;4.2667192222615995;55;93;22;2;nein
2019_03_22 14:53;54;1;1;timed;5;3;0;53;40;0;0;0.31;0.68999999999999995;0.0;0.0;96;24;7;88;0.11;0.27000000000000002;0.58999999999999997;0.029999999999999999;0;6.666359949813341;55;93;22;2;nein
2019_03_22 14:53;54;1;1;timed;6;120;1;64;40;48;51;0.19;0.02;0.070000000000000007;0.71999999999999997;97;9;79;94;0.23000000000000001;0.54000000000000004;0.01;0.22;0;8.666257960312578;55;93;22;2;nein
2019_03_22 14:53;54;1;1;timed;7;105;0;49;74;63;58;0.84999999999999998;0.080000000000000002;0.02;0.050000000000000003;97;5;86;8;0.25;0.52000000000000002;0.070000000000000007;0.16;0;7.599775879676599;55;93;22;2;nein
2019_03_22 14:53;54;1;1;timed;8;98;0;27;10;31;79;0.23000000000000001;0.67000000000000004;0.070000000000000007;0.029999999999999999;25;99;0;0;0.38;0.62;0.0;0.0;1;6.833007586992608;55;93;22;2;nein
2019_03_22 14:53;54;1;1;timed;9;4;0;40;43;0;0;0.58999999999999997;0.40999999999999998;0.0;0.0;2;33;88;81;0.69999999999999996;0.14000000000000001;0.13;0.029999999999999999;0;5.966350841317762;55;93;22;2;nein
2019_03_22 14:53;54;1;1;timed;10;7;1;49;29;0;0;0.95999999999999996;0.040000000000000001;0.0;0.0;23;99;64;25;0.68999999999999995;0.12;0.059999999999999998;0.13;0;7.733107908741658;55;93;22;2;nein
2019_03_22 14:53;54;1;1;timed;11;82;0;78;66;30;27;0.28999999999999998;0.58999999999999997;0.080000000000000002;0.040000000000000001;90;6;0;0;0.82999999999999996;0.17000000000000001;0.0;0.0;0;7.199903591057591;55;93;22;2;nein
2019_03_22 14:53;54;1;1;timed;12;149;0;14;89;73;53;0.93999999999999995;0.01;0.01;0.040000000000000001;97;45;6;13;0.34000000000000002;0.01;0.40999999999999998;0.23999999999999999;0;10.03294934393125;55;93;22;2;nein
2019_03_22 14:53;54;1;1;timed;13;132;1;27;70;21;19;0.64000000000000001;0.23000000000000001;0.029999999999999999;0.10000000000000001;11;85;55;6;0.39000000000000001;0.46999999999999997;0.029999999999999999;0.11;NA;10.032925289802733;55;93;22;2;nein
2019_03_22 14:53;54;1;1;timed;14;135;0;48;60;41;51;0.14000000000000001;0.40000000000000002;0.089999999999999997;0.37;94;1;85;65;0.64000000000000001;0.29999999999999999;0.01;0.050000000000000003;1;3.5498263612716983;55;93;22;2;nein
2019_03_22 14:53;54;1;1;timed;15;140;0;36;32;26;27;0.39000000000000001;0.14999999999999999;0.19;0.27000000000000002;44;3;99;25;0.29999999999999999;0.34000000000000002;0.34000000000000002;0.0199999999999999;0;5.116421977389109;55;93;22;2;nein
2019_03_22 14:53;54;1;1;timed;16;74;0;66;47;52;44;0.41999999999999998;0.26000000000000001;0.17999999999999999;0.14000000000000001;17;99;0;0;0.47999999999999998;0.52000000000000002;0.0;0.0;1;4.499759458723929;55;93;22;2;nein
2019_03_22 14:53;54;1;1;timed;17;83;0;17;12;7;41;0.65000000000000002;0.19;0.089999999999999997;0.070000000000000007;6;84;0;0;0.72999999999999998;0.27000000000000002;0.0;0.0;0;5.9830713464671135;55;93;22;2;nein
2019_03_22 14:53;54;1;1;timed;18;28;1;47;30;0;0;0.97999999999999998;0.02;0.0;0.0;55;48;77;13;0.070000000000000007;0.26000000000000001;0.42999999999999999;0.23999999999999999;0;3.966496769689911;55;93;22;2;nein
2019_03_22 14:53;54;1;1;timed;19;64;0;48;39;34;19;0.46000000000000002;0.5;0.02;0.02;13;92;0;0;0.68999999999999995;0.31;0.0;0.0;0;9.699760549177881;55;93;22;2;nein
2019_03_22 14:53;54;1;1;timed;20;58;1;37;58;76;34;0.20999999999999999;0.57999999999999996;0.19;0.020000000000000101;86;5;0;0;0.47999999999999998;0.52000000000000002;0.0;0.0;0;5.3663687375865265;55;93;22;2;nein
2019_03_22 14:53;54;1;1;timed;21;13;1;52;56;0;0;0.46999999999999997;0.53000000000000003;0.0;0.0;94;71;27;2;0.089999999999999997;0.31;0.57999999999999996;0.020000000000000101;0;4.699927324463715;55;93;22;2;nein
2019_03_22 14:53;54;1;1;timed;22;79;0;52;46;29;22;0.17999999999999999;0.51000000000000001;0.23999999999999999;0.070000000000000104;93;14;0;0;0.45000000000000001;0.55000000000000004;0.0;0.0;0;7.632953256736073;55;93;22;2;nein
2019_03_22 14:53;54;1;1;timed;23;122;1;35;58;25;31;0.81999999999999995;0.070000000000000007;0.080000000000000002;0.029999999999999999;18;64;68;89;0.63;0.17000000000000001;0.11;0.089999999999999997;0;9.832919388523806;55;93;22;2;nein
2019_03_22 14:53;54;1;1;timed;24;52;0;71;51;10;54;0.22;0.12;0.19;0.46999999999999997;91;1;0;0;0.29999999999999999;0.69999999999999996;0.0;0.0;0;6.1665286494280735;55;93;22;2;nein
2019_03_22 14:53;54;1;1;timed;25;85;1;31;22;82;50;0.11;0.69999999999999996;0.01;0.17999999999999999;3;99;0;0;0.62;0.38;0.0;0.0;0;6.13323260533798;55;93;22;2;nein
2019_03_22 14:53;54;1;1;timed;26;27;1;44;26;0;0;0.35999999999999999;0.64000000000000001;0.0;0.0;63;10;3;5;0.58999999999999997;0.19;0.14999999999999999;0.070000000000000007;0;7.716286376255084;55;93;22;2;nein
2019_03_22 14:53;54;1;1;timed;27;25;0;50;53;0;0;0.82999999999999996;0.17000000000000001;0.0;0.0;83;16;97;4;0.45000000000000001;0.29999999999999999;0.11;0.14000000000000001;0;8.399665743843798;55;93;22;2;nein
2019_03_22 14:53;54;1;1;timed;28;108;1;48;72;39;70;0.14000000000000001;0.66000000000000003;0.02;0.17999999999999999;81;44;98;8;0.59999999999999998;0.029999999999999999;0.050000000000000003;0.32000000000000001;0;9.86621030106653;55;93;22;2;nein
2019_03_22 14:53;54;1;1;timed;29;95;1;93;88;68;85;0.83999999999999997;0.14000000000000001;0.01;0.01;2;82;0;0;0.41999999999999998;0.57999999999999996;0.0;0.0;0;9.049561124424145;55;93;22;2;nein
2019_03_22 14:53;54;1;1;timed;30;43;0;60;83;0;0;0.23000000000000001;0.77000000000000002;0.0;0.0;72;5;70;12;0.29999999999999999;0.40999999999999998;0.12;0.17000000000000001;0;7.499644961077138;55;93;22;2;nein
2019_03_22 14:53;54;1;1;timed;31;99;1;8;24;15;73;0.56000000000000005;0.35999999999999999;0.070000000000000007;0.0099999999999999499;88;12;0;0;0.52000000000000002;0.47999999999999998;0.0;0.0;1;8.333111180101696;55;93;22;2;nein
2019_03_22 14:53;54;1;1;timed;32;118;1;62;52;65;68;0.40999999999999998;0.44;0.10000000000000001;0.0500000000000001;79;20;14;37;0.56999999999999995;0.23999999999999999;0.14000000000000001;0.050000000000000003;1;6.549710901457729;55;93;22;2;nein
2019_03_22 14:53;54;1;1;timed;33;16;1;64;53;0;0;0.65000000000000002;0.34999999999999998;0.0;0.0;29;17;81;46;0.10000000000000001;0.01;0.44;0.45000000000000001;0;7.266464889953568;55;93;22;2;nein
2019_03_22 14:53;54;1;1;timed;34;126;0;16;55;51;42;0.68999999999999995;0.23999999999999999;0.01;0.060000000000000102;66;4;1;5;0.46999999999999997;0.38;0.089999999999999997;0.059999999999999998;1;7.949659201121904;55;93;22;2;nein
2019_03_22 14:53;54;1;1;timed;35;18;0;68;50;0;0;0.029999999999999999;0.96999999999999997;0.0;0.0;34;64;15;89;0.65000000000000002;0.029999999999999999;0.050000000000000003;0.27000000000000002;0;6.299651567944238;55;93;22;2;nein
2019_03_22 14:53;54;1;1;timed;36;9;0;61;69;0;0;0.93999999999999995;0.060000000000000102;0.0;0.0;18;93;72;16;0.40999999999999998;0.34999999999999998;0.089999999999999997;0.14999999999999999;0;5.999864976165554;55;93;22;2;nein
2019_03_22 14:53;54;1;1;timed;37;117;0;65;85;92;41;0.23000000000000001;0.17999999999999999;0.54000000000000004;0.050000000000000003;99;93;10;13;0.64000000000000001;0.16;0.01;0.19;1;8.082971024718063;55;93;22;2;nein
2019_03_22 14:53;54;1;1;timed;38;24;0;35;27;0;0;0.070000000000000007;0.93000000000000005;0.0;0.0;62;3;81;95;0.35999999999999999;0.55000000000000004;0.01;0.080000000000000002;0;6.2329857137719955;55;93;22;2;nein
2019_03_22 14:53;54;1;1;timed;39;8;1;50;36;0;0;0.080000000000000002;0.92000000000000004;0.0;0.0;6;19;84;29;0.54000000000000004;0.070000000000000007;0.17000000000000001;0.22;0;4.149805257784465;55;93;22;2;nein
2019_03_22 14:53;54;1;1;timed;40;88;1;77;13;12;7;0.12;0.19;0.66000000000000003;0.029999999999999898;94;2;0;0;0.40999999999999998;0.58999999999999997;0.0;0.0;1;8.866390546663752;55;93;22;2;nein
2019_03_22 14:53;54;1;1;timed;41;41;0;99;40;0;0;0.89000000000000001;0.11;0.0;0.0;1;67;52;46;0.51000000000000001;0.38;0.029999999999999999;0.080000000000000002;0;3.966480412884266;55;93;22;2;nein
2019_03_22 14:53;54;1;1;timed;42;115;0;50;28;61;79;0.83999999999999997;0.040000000000000001;0.059999999999999998;0.059999999999999998;1;26;97;55;0.45000000000000001;0.080000000000000002;0.40999999999999998;0.060000000000000102;0;8.216258794189343;55;93;22;2;nein
2019_03_22 14:53;54;1;1;timed;43;70;1;66;55;69;50;0.22;0.29999999999999999;0.29999999999999999;0.17999999999999999;2;90;0;0;0.34000000000000002;0.66000000000000003;0.0;0.0;0;6.766325376012901;55;93;22;2;nein
2019_03_22 14:53;54;1;1;timed;44;143;1;88;44;56;73;0.95999999999999996;0.02;0.01;0.01;20;3;87;32;0.19;0.40000000000000002;0.28000000000000003;0.13;0;7.032935873619863;55;93;22;2;nein
2019_03_22 14:53;54;1;1;timed;45;23;1;54;40;0;0;0.93000000000000005;0.070000000000000007;0.0;0.0;36;23;71;86;0.02;0.41999999999999998;0.19;0.37;0;7.466474319171539;55;93;22;2;nein
2019_03_22 14:53;54;1;1;timed;46;78;1;74;36;34;3;0.14999999999999999;0.64000000000000001;0.13;0.080000000000000002;1;83;0;0;0.41999999999999998;0.57999999999999996;0.0;0.0;0;8.432978465461929;55;93;22;2;nein
2019_03_22 14:53;54;1;1;timed;47;144;1;99;93;90;71;0.65000000000000002;0.32000000000000001;0.01;0.02;97;14;48;73;0.23000000000000001;0.46000000000000002;0.13;0.17999999999999999;0;6.249643998911779;55;93;22;2;nein
2019_03_22 14:53;54;1;1;timed;48;53;0;26;70;50;80;0.29999999999999999;0.59999999999999998;0.040000000000000001;0.059999999999999998;89;1;0;0;0.40999999999999998;0.58999999999999997;0.0;0.0;0;5.033350887501001;55;93;22;2;nein
2019_03_22 14:53;54;1;1;timed;49;138;1;8;20;43;51;0.38;0.5;0.02;0.10000000000000001;72;82;70;1;0.39000000000000001;0.050000000000000003;0.070000000000000007;0.48999999999999999;0;9.51621729279941;55;93;22;2;nein
2019_03_22 14:53;54;1;1;timed;50;114;1;57;39;79;97;0.77000000000000002;0.02;0.13;0.080000000000000002;92;36;6;1;0.54000000000000004;0.12;0.13;0.20999999999999999;0;8.799610194844718;55;93;22;2;nein
2019_03_22 14:53;54;1;1;timed;51;101;0;30;96;61;45;0.65000000000000002;0.14000000000000001;0.11;0.10000000000000001;3;98;63;89;0.75;0.19;0.040000000000000001;0.02;0;4.849766258024829;55;93;22;2;nein
2019_03_22 14:53;54;1;1;timed;52;66;0;89;23;27;15;0.070000000000000007;0.54000000000000004;0.17000000000000001;0.22;9;73;0;0;0.72999999999999998;0.27000000000000002;0.0;0.0;0;7.433045175575899;55;93;22;2;nein
2019_03_22 14:53;54;1;1;timed;53;109;1;75;28;16;56;0.19;0.070000000000000007;0.059999999999999998;0.68000000000000005;3;50;98;44;0.5;0.02;0.34999999999999998;0.13;0;5.88314568975693;55;93;22;2;nein
2019_03_22 14:53;54;1;1;timed;54;148;0;37;63;55;10;0.72999999999999998;0.070000000000000007;0.029999999999999999;0.17000000000000001;80;14;23;70;0.46999999999999997;0.10000000000000001;0.23000000000000001;0.20000000000000001;1;5.033078915497754;55;93;22;2;nein
2019_03_22 14:53;54;1;1;timed;55;45;1;97;87;0;0;0.71999999999999997;0.28000000000000003;0.0;0.0;96;11;14;4;0.25;0.029999999999999999;0.14000000000000001;0.57999999999999996;0;4.733085778942041;55;93;22;2;nein
2019_03_22 14:53;54;1;1;timed;56;77;1;24;17;99;41;0.17999999999999999;0.13;0.10000000000000001;0.58999999999999997;12;97;0;0;0.59999999999999998;0.40000000000000002;0.0;0.0;0;5.649843744387908;55;93;22;2;nein
2019_03_22 14:53;54;1;1;timed;57;69;0;54;34;64;49;0.34000000000000002;0.25;0.20999999999999999;0.20000000000000001;14;98;0;0;0.62;0.38;0.0;0.0;0;5.266416460975961;55;93;22;2;nein
2019_03_22 14:53;54;1;1;timed;58;26;1;76;41;0;0;0.57999999999999996;0.41999999999999998;0.0;0.0;61;79;84;2;0.13;0.029999999999999999;0.67000000000000004;0.17000000000000001;0;5.249757855117423;55;93;22;2;nein
2019_03_22 14:53;54;1;1;timed;59;51;1;52;23;43;16;0.60999999999999999;0.20999999999999999;0.01;0.17000000000000001;92;7;0;0;0.14999999999999999;0.84999999999999998;0.0;0.0;0;7.466435511845702;55;93;22;2;nein
2019_03_22 14:53;54;1;1;timed;60;80;1;47;39;45;10;0.13;0.76000000000000001;0.059999999999999998;0.050000000000000003;2;87;0;0;0.48999999999999999;0.51000000000000001;0.0;0.0;1;7.333087446695572;55;93;22;2;nein
2019_03_22 14:53;54;1;1;timed;61;141;0;93;28;60;91;0.81999999999999995;0.10000000000000001;0.01;0.070000000000000007;14;85;7;89;0.45000000000000001;0.070000000000000007;0.23999999999999999;0.23999999999999999;0;8.449778830314244;55;93;22;2;nein
2019_03_22 14:53;54;1;1;timed;62;15;1;77;81;0;0;0.28000000000000003;0.71999999999999997;0.0;0.0;98;14;87;18;0.55000000000000004;0.23000000000000001;0.16;0.059999999999999901;0;4.833059543909258;55;93;22;2;nein
2019_03_22 14:53;54;1;1;timed;63;139;1;44;31;16;8;0.79000000000000004;0.070000000000000007;0.13;0.0099999999999999499;92;58;2;88;0.55000000000000004;0.070000000000000007;0.34000000000000002;0.039999999999999897;0;8.666267261241956;55;93;22;2;nein
2019_03_22 14:53;54;1;1;timed;64;17;0;81;52;0;0;0.059999999999999998;0.93999999999999995;0.0;0.0;34;3;69;41;0.01;0.22;0.75;0.02;1;7.133027022728129;55;93;22;2;nein
2019_03_22 14:53;54;1;1;timed;65;133;0;59;88;60;36;0.67000000000000004;0.070000000000000007;0.12;0.14000000000000001;7;91;66;61;0.25;0.68999999999999995;0.01;0.0500000000000001;1;6.449703460715682;55;93;22;2;nein
2019_03_22 14:53;54;1;1;timed;66;113;1;85;65;39;64;0.44;0.34000000000000002;0.13;0.089999999999999997;87;2;4;35;0.67000000000000004;0.17000000000000001;0.11;0.049999999999999899;0;5.999694672940677;55;93;22;2;nein
2019_03_22 14:53;54;1;1;timed;67;2;1;59;32;0;0;0.080000000000000002;0.92000000000000004;0.0;0.0;33;38;85;1;0.28999999999999998;0.050000000000000003;0.070000000000000007;0.58999999999999997;0;7.266333394056346;55;93;22;2;nein
2019_03_22 14:53;54;1;1;timed;68;49;1;21;30;0;0;0.53000000000000003;0.46999999999999997;0.0;0.0;93;99;89;25;0.44;0.02;0.11;0.42999999999999999;1;7.716447057828191;55;93;22;2;nein
2019_03_22 14:53;54;1;1;timed;69;42;0;70;48;0;0;0.79000000000000004;0.20999999999999999;0.0;0.0;51;8;12;67;0.19;0.26000000000000001;0.28999999999999998;0.26000000000000001;0;6.949833353004578;55;93;22;2;nein
2019_03_22 14:53;54;1;1;timed;70;31;0;10;59;0;0;0.23999999999999999;0.76000000000000001;0.0;0.0;1;79;53;73;0.23000000000000001;0.58999999999999997;0.050000000000000003;0.13;0;8.566306966587945;55;93;22;2;nein
2019_03_22 14:53;54;1;1;timed;71;93;0;87;81;73;98;0.80000000000000004;0.040000000000000001;0.14999999999999999;0.0099999999999999499;5;71;0;0;0.51000000000000001;0.48999999999999999;0.0;0.0;0;5.399902115737859;55;93;22;2;nein
2019_03_22 14:53;54;1;1;timed;72;71;1;68;55;36;51;0.20000000000000001;0.75;0.02;0.029999999999999999;38;81;0;0;0.52000000000000002;0.47999999999999998;0.0;0.0;0;9.166431150031713;55;93;22;2;nein
2019_03_22 14:53;54;1;1;timed;73;124;1;37;65;15;41;0.17999999999999999;0.45000000000000001;0.02;0.34999999999999998;40;7;98;30;0.070000000000000007;0.45000000000000001;0.45000000000000001;0.029999999999999898;1;6.3331644199042785;55;93;22;2;nein
2019_03_22 14:53;54;1;1;timed;74;121;0;42;51;47;70;0.41999999999999998;0.17000000000000001;0.23999999999999999;0.17000000000000001;21;76;48;9;0.14999999999999999;0.34000000000000002;0.40999999999999998;0.10000000000000001;1;7.866438975641358;55;93;22;2;nein
2019_03_22 14:53;54;1;1;timed;75;142;0;98;65;64;84;0.88;0.070000000000000007;0.01;0.040000000000000001;5;68;60;16;0.46000000000000002;0.080000000000000002;0.27000000000000002;0.19;0;3.6997688879419;55;93;22;2;nein
2019_03_22 14:53;54;2;1;control;1;59;0;56;47;83;90;0.31;0.12;0.54000000000000004;0.029999999999999898;10;98;0;0;0.46999999999999997;0.53000000000000003;0.0;0.0;0;10.138579356811533;55;93;22;2;nein
2019_03_22 14:53;54;2;1;control;2;21;1;64;28;0;0;0.080000000000000002;0.92000000000000004;0.0;0.0;50;1;88;13;0.57999999999999996;0.13;0.02;0.27000000000000002;0;8.93291303823571;55;93;22;2;nein
2019_03_22 14:53;54;2;1;control;3;13;0;52;56;0;0;0.46999999999999997;0.53000000000000003;0.0;0.0;94;71;27;2;0.089999999999999997;0.31;0.57999999999999996;0.020000000000000101;0;12.532892896912017;55;93;22;2;nein
2019_03_22 14:53;54;2;1;control;4;133;0;59;88;60;36;0.67000000000000004;0.070000000000000007;0.12;0.14000000000000001;7;91;66;61;0.25;0.68999999999999995;0.01;0.0500000000000001;0;13.266093814945634;55;93;22;2;nein
2019_03_22 14:53;54;2;1;control;5;35;1;33;37;0;0;0.88;0.12;0.0;0.0;63;4;79;98;0.16;0.46000000000000002;0.17000000000000001;0.20999999999999999;1;13.81611260923819;55;93;22;2;nein
2019_03_22 14:53;54;2;1;control;6;74;0;66;47;52;44;0.41999999999999998;0.26000000000000001;0.17999999999999999;0.14000000000000001;17;99;0;0;0.47999999999999998;0.52000000000000002;0.0;0.0;0;13.899388319572608;55;93;22;2;nein
2019_03_22 14:53;54;2;1;control;7;90;1;27;44;50;72;0.68000000000000005;0.28999999999999998;0.02;0.0099999999999999707;6;96;0;0;0.46999999999999997;0.53000000000000003;0.0;0.0;1;6.599682228939855;55;93;22;2;nein
2019_03_22 14:53;54;2;1;control;8;17;0;81;52;0;0;0.059999999999999998;0.93999999999999995;0.0;0.0;34;3;69;41;0.01;0.22;0.75;0.02;0;11.116204207355622;55;93;22;2;nein
2019_03_22 14:53;54;2;1;control;9;58;1;37;58;76;34;0.20999999999999999;0.57999999999999996;0.19;0.020000000000000101;86;5;0;0;0.47999999999999998;0.52000000000000002;0.0;0.0;0;12.132785840009092;55;93;22;2;nein
2019_03_22 14:53;54;2;1;control;10;20;0;44;40;0;0;0.91000000000000003;0.089999999999999997;0.0;0.0;29;5;80;99;0.25;0.40000000000000002;0.26000000000000001;0.089999999999999997;0;9.032950626819002;55;93;22;2;nein
2019_03_22 14:53;54;2;1;control;11;71;0;68;55;36;51;0.20000000000000001;0.75;0.02;0.029999999999999999;38;81;0;0;0.52000000000000002;0.47999999999999998;0.0;0.0;0;12.516171108876733;55;93;22;2;nein
2019_03_22 14:53;54;2;1;control;12;34;0;32;48;0;0;0.28000000000000003;0.71999999999999997;0.0;0.0;97;83;7;62;0.040000000000000001;0.54000000000000004;0.35999999999999999;0.059999999999999901;1;21.86577091233812;55;93;22;2;nein
2019_03_22 14:53;54;2;1;control;13;88;0;77;13;12;7;0.12;0.19;0.66000000000000003;0.029999999999999898;94;2;0;0;0.40999999999999998;0.58999999999999997;0.0;0.0;1;11.63263734586144;55;93;22;2;nein
2019_03_22 14:53;54;2;1;control;14;104;0;55;85;93;3;0.87;0.02;0.089999999999999997;0.02;1;2;90;8;0.35999999999999999;0.070000000000000007;0.40000000000000002;0.17000000000000001;0;14.616039356400506;55;93;22;2;nein
2019_03_22 14:53;54;2;1;control;15;11;0;17;36;0;0;0.14000000000000001;0.85999999999999999;0.0;0.0;19;41;34;95;0.88;0.02;0.050000000000000003;0.050000000000000003;0;10.33290720110017;55;93;22;2;nein
2019_03_22 14:53;54;2;1;control;16;114;1;57;39;79;97;0.77000000000000002;0.02;0.13;0.080000000000000002;92;36;6;1;0.54000000000000004;0.12;0.13;0.20999999999999999;0;13.099428858795363;55;93;22;2;nein
2019_03_22 14:53;54;2;1;control;17;66;1;89;23;27;15;0.070000000000000007;0.54000000000000004;0.17000000000000001;0.22;9;73;0;0;0.72999999999999998;0.27000000000000002;0.0;0.0;1;18.882540808630438;55;93;22;2;nein
2019_03_22 14:53;54;2;1;control;18;72;1;63;82;51;61;0.01;0.96999999999999997;0.01;0.01;92;12;0;0;0.89000000000000001;0.11;0.0;0.0;0;9.79956497308558;55;93;22;2;nein
2019_03_22 14:53;54;2;1;control;19;7;1;49;29;0;0;0.95999999999999996;0.040000000000000001;0.0;0.0;23;99;64;25;0.68999999999999995;0.12;0.059999999999999998;0.13;0;10.68286942008308;55;93;22;2;nein
2019_03_22 14:53;54;2;1;control;20;53;0;26;70;50;80;0.29999999999999999;0.59999999999999998;0.040000000000000001;0.059999999999999998;89;1;0;0;0.40999999999999998;0.58999999999999997;0.0;0.0;0;8.166215304325306;55;93;22;2;nein
2019_03_22 14:53;54;2;1;control;21;138;1;8;20;43;51;0.38;0.5;0.02;0.10000000000000001;72;82;70;1;0.39000000000000001;0.050000000000000003;0.070000000000000007;0.48999999999999999;1;15.049300698403385;55;93;22;2;nein
2019_03_22 14:53;54;2;1;control;22;139;1;44;31;16;8;0.79000000000000004;0.070000000000000007;0.13;0.0099999999999999499;92;58;2;88;0.55000000000000004;0.070000000000000007;0.34000000000000002;0.039999999999999897;1;13.016081627521999;55;93;22;2;nein
2019_03_22 14:53;54;2;1;control;23;49;1;21;30;0;0;0.53000000000000003;0.46999999999999997;0.0;0.0;93;99;89;25;0.44;0.02;0.11;0.42999999999999999;1;12.632926957558084;55;93;22;2;nein
2019_03_22 14:53;54;2;1;control;24;95;1;93;88;68;85;0.83999999999999997;0.14000000000000001;0.01;0.01;2;82;0;0;0.41999999999999998;0.57999999999999996;0.0;0.0;0;6.849662344193348;55;93;22;2;nein
2019_03_22 14:53;54;2;1;control;25;109;1;75;28;16;56;0.19;0.070000000000000007;0.059999999999999998;0.68000000000000005;3;50;98;44;0.5;0.02;0.34999999999999998;0.13;0;10.94950300965138;55;93;22;2;nein
2019_03_22 14:53;54;2;1;control;26;62;1;12;45;16;50;0.20999999999999999;0.76000000000000001;0.02;0.01;92;15;0;0;0.20999999999999999;0.79000000000000004;0.0;0.0;1;9.166238717010856;55;93;22;2;nein
2019_03_22 14:53;54;2;1;control;27;132;1;27;70;21;19;0.64000000000000001;0.23000000000000001;0.029999999999999999;0.10000000000000001;11;85;55;6;0.39000000000000001;0.46999999999999997;0.029999999999999999;0.11;1;13.649342135646293;55;93;22;2;nein
2019_03_22 14:53;54;2;1;control;28;1;1;22;51;0;0;0.26000000000000001;0.73999999999999999;0.0;0.0;14;11;92;31;0.29999999999999999;0.40999999999999998;0.14999999999999999;0.14000000000000001;0;7.616315818506337;55;93;22;2;nein
2019_03_22 14:53;54;2;1;control;29;149;0;14;89;73;53;0.93999999999999995;0.01;0.01;0.040000000000000001;97;45;6;13;0.34000000000000002;0.01;0.40999999999999998;0.23999999999999999;0;11.066181243682877;55;93;22;2;nein
2019_03_22 14:53;54;2;1;control;30;118;0;62;52;65;68;0.40999999999999998;0.44;0.10000000000000001;0.0500000000000001;79;20;14;37;0.56999999999999995;0.23999999999999999;0.14000000000000001;0.050000000000000003;0;14.782718745029342;55;93;22;2;nein
2019_03_22 14:53;54;2;1;control;31;116;1;53;65;43;99;0.56999999999999995;0.37;0.050000000000000003;0.010000000000000101;57;72;11;87;0.67000000000000004;0.13;0.14999999999999999;0.050000000000000003;1;8.849603010679857;55;93;22;2;nein
2019_03_22 14:53;54;2;1;control;32;8;0;50;36;0;0;0.080000000000000002;0.92000000000000004;0.0;0.0;6;19;84;29;0.54000000000000004;0.070000000000000007;0.17000000000000001;0.22;0;12.366147439613997;55;93;22;2;nein
2019_03_22 14:53;54;2;1;control;33;89;0;26;41;13;56;0.059999999999999998;0.40999999999999998;0.050000000000000003;0.47999999999999998;5;97;0;0;0.37;0.63;0.0;0.0;1;5.899828349745803;55;93;22;2;nein
2019_03_22 14:53;54;2;1;control;34;39;1;14;33;0;0;0.78000000000000003;0.22;0.0;0.0;93;84;1;25;0.14000000000000001;0.23999999999999999;0.39000000000000001;0.23000000000000001;1;13.299361314804628;55;93;22;2;nein
2019_03_22 14:53;54;2;1;control;35;77;1;24;17;99;41;0.17999999999999999;0.13;0.10000000000000001;0.58999999999999997;12;97;0;0;0.59999999999999998;0.40000000000000002;0.0;0.0;1;12.46627322666609;55;93;22;2;nein
2019_03_22 14:53;54;2;1;control;36;64;1;48;39;34;19;0.46000000000000002;0.5;0.02;0.02;13;92;0;0;0.68999999999999995;0.31;0.0;0.0;0;16.032692445849534;55;93;22;2;nein
2019_03_22 14:53;54;2;1;control;37;146;0;25;5;64;35;0.94999999999999996;0.02;0.01;0.02;47;97;12;79;0.20999999999999999;0.029999999999999999;0.02;0.73999999999999999;1;7.066332303602394;55;93;22;2;nein
2019_03_22 14:53;54;2;1;control;38;110;1;47;44;23;52;0.13;0.27000000000000002;0.040000000000000001;0.56000000000000005;99;2;30;22;0.28999999999999998;0.5;0.11;0.10000000000000001;0;21.982430544509043;55;93;22;2;nein
2019_03_22 14:53;54;2;1;control;39;14;0;36;40;0;0;0.54000000000000004;0.46000000000000002;0.0;0.0;99;70;1;11;0.16;0.089999999999999997;0.080000000000000002;0.67000000000000004;0;20.34914341648073;55;93;22;2;nein
2019_03_22 14:53;54;2;1;control;40;142;1;98;65;64;84;0.88;0.070000000000000007;0.01;0.040000000000000001;5;68;60;16;0.46000000000000002;0.080000000000000002;0.27000000000000002;0.19;0;7.183019838561449;55;93;22;2;nein
2019_03_22 14:53;54;2;1;control;41;130;0;37;79;23;95;0.94999999999999996;0.029999999999999999;0.01;0.01;94;4;58;49;0.46000000000000002;0.5;0.029999999999999999;0.01;0;18.716033647555378;55;93;22;2;nein
2019_03_22 14:53;54;2;1;control;42;33;0;27;70;0;0;0.88;0.12;0.0;0.0;93;3;77;16;0.080000000000000002;0.40000000000000002;0.5;0.02;1;18.499213590390355;55;93;22;2;nein
2019_03_22 14:53;54;2;1;control;43;36;0;70;17;0;0;0.33000000000000002;0.67000000000000004;0.0;0.0;84;1;12;88;0.22;0.27000000000000002;0.14000000000000001;0.37;0;9.332922275019882;55;93;22;2;nein
2019_03_22 14:53;54;2;1;control;44;56;0;28;84;37;41;0.68000000000000005;0.28000000000000003;0.02;0.0199999999999999;6;95;0;0;0.72999999999999998;0.27000000000000002;0.0;0.0;0;18.16590227994675;55;93;22;2;nein
2019_03_22 14:53;54;2;1;control;45;19;1;22;53;0;0;0.13;0.87;0.0;0.0;4;93;96;65;0.46999999999999997;0.059999999999999998;0.26000000000000001;0.20999999999999999;0;8.583090974634615;55;93;22;2;nein
2019_03_22 14:53;54;2;1;control;46;143;1;88;44;56;73;0.95999999999999996;0.02;0.01;0.01;20;3;87;32;0.19;0.40000000000000002;0.28000000000000003;0.13;0;8.249630207877999;55;93;22;2;nein
2019_03_22 14:53;54;2;1;control;47;30;0;33;30;0;0;0.71999999999999997;0.28000000000000003;0.0;0.0;9;88;1;14;0.55000000000000004;0.39000000000000001;0.01;0.049999999999999899;0;11.449488577176453;55;93;22;2;nein
2019_03_22 14:53;54;2;1;control;48;65;1;75;64;59;52;0.59999999999999998;0.22;0.14000000000000001;0.040000000000000001;1;99;0;0;0.35999999999999999;0.64000000000000001;0.0;0.0;0;12.432793409041551;55;93;22;2;nein
2019_03_22 14:53;54;2;1;control;49;51;0;52;23;43;16;0.60999999999999999;0.20999999999999999;0.01;0.17000000000000001;92;7;0;0;0.14999999999999999;0.84999999999999998;0.0;0.0;0;9.699575492757504;55;93;22;2;nein
2019_03_22 14:53;54;2;1;control;50;16;0;64;53;0;0;0.65000000000000002;0.34999999999999998;0.0;0.0;29;17;81;46;0.10000000000000001;0.01;0.44;0.45000000000000001;0;10.999476582184798;55;93;22;2;nein
2019_03_22 14:53;54;2;1;control;51;97;0;17;33;32;74;0.94999999999999996;0.01;0.029999999999999999;0.01;76;23;0;0;0.33000000000000002;0.67000000000000004;0.0;0.0;1;11.082846263976535;55;93;22;2;nein
2019_03_22 14:53;54;2;1;control;52;27;0;44;26;0;0;0.35999999999999999;0.64000000000000001;0.0;0.0;63;10;3;5;0.58999999999999997;0.19;0.14999999999999999;0.070000000000000007;0;12.182807520795905;55;93;22;2;nein
2019_03_22 14:53;54;2;1;control;53;108;0;48;72;39;70;0.14000000000000001;0.66000000000000003;0.02;0.17999999999999999;81;44;98;8;0.59999999999999998;0.029999999999999999;0.050000000000000003;0.32000000000000001;1;12.866278935511218;55;93;22;2;nein
2019_03_22 14:53;54;2;1;control;54;144;1;99;93;90;71;0.65000000000000002;0.32000000000000001;0.01;0.02;97;14;48;73;0.23000000000000001;0.46000000000000002;0.13;0.17999999999999999;0;7.7829990557947895;55;93;22;2;nein
2019_03_22 14:53;54;2;1;control;55;76;1;39;62;9;28;0.01;0.51000000000000001;0.26000000000000001;0.22;77;7;0;0;0.57999999999999996;0.41999999999999998;0.0;0.0;0;11.099427575907612;55;93;22;2;nein
2019_03_22 14:53;54;2;1;control;56;115;0;50;28;61;79;0.83999999999999997;0.040000000000000001;0.059999999999999998;0.059999999999999998;1;26;97;55;0.45000000000000001;0.080000000000000002;0.40999999999999998;0.060000000000000102;0;8.899605448163129;55;93;22;2;nein
2019_03_22 14:53;54;2;1;control;57;99;1;8;24;15;73;0.56000000000000005;0.35999999999999999;0.070000000000000007;0.0099999999999999499;88;12;0;0;0.52000000000000002;0.47999999999999998;0.0;0.0;1;9.69955079718602;55;93;22;2;nein
2019_03_22 14:53;54;2;1;control;58;93;0;87;81;73;98;0.80000000000000004;0.040000000000000001;0.14999999999999999;0.0099999999999999499;5;71;0;0;0.51000000000000001;0.48999999999999999;0.0;0.0;0;7.299653171552563;55;93;22;2;nein
2019_03_22 14:53;54;2;1;control;59;81;1;67;38;52;65;0.27000000000000002;0.35999999999999999;0.01;0.35999999999999999;2;77;0;0;0.14000000000000001;0.85999999999999999;0.0;0.0;1;17.032747930703408;55;93;22;2;nein
2019_03_22 14:53;54;2;1;control;60;127;1;89;26;62;79;0.02;0.28999999999999998;0.53000000000000003;0.16;96;6;60;13;0.53000000000000003;0.25;0.17000000000000001;0.050000000000000003;1;13.599510642829046;55;93;22;2;nein
2019_03_22 14:53;54;2;1;control;61;46;0;5;19;0;0;0.32000000000000001;0.68000000000000005;0.0;0.0;88;38;97;66;0.60999999999999999;0.20000000000000001;0.040000000000000001;0.14999999999999999;1;11.916136727508274;55;93;22;2;nein
2019_03_22 14:53;54;2;1;control;62;42;0;70;48;0;0;0.79000000000000004;0.20999999999999999;0.0;0.0;51;8;12;67;0.19;0.26000000000000001;0.28999999999999998;0.26000000000000001;0;10.333028433902655;55;93;22;2;nein
2019_03_22 14:53;54;2;1;control;63;18;1;68;50;0;0;0.029999999999999999;0.96999999999999997;0.0;0.0;34;64;15;89;0.65000000000000002;0.029999999999999999;0.050000000000000003;0.27000000000000002;0;14.066073160469386;55;93;22;2;nein
2019_03_22 14:53;54;2;1;control;64;94;0;84;86;93;39;0.78000000000000003;0.20000000000000001;0.01;0.0099999999999999603;9;83;0;0;0.46999999999999997;0.53000000000000003;0.0;0.0;0;7.566441348979424;55;93;22;2;nein
2019_03_22 14:53;54;2;1;control;65;136;0;29;67;14;75;0.46000000000000002;0.29999999999999999;0.20999999999999999;0.0300000000000001;70;86;1;85;0.31;0.39000000000000001;0.27000000000000002;0.029999999999999898;0;14.899492874847056;55;93;22;2;nein
2019_03_22 14:53;54;2;1;control;66;73;0;65;68;70;47;0.25;0.23000000000000001;0.20999999999999999;0.31;27;95;0;0;0.45000000000000001;0.55000000000000004;0.0;0.0;1;12.066082461398764;55;93;22;2;nein
2019_03_22 14:53;54;2;1;control;67;78;0;74;36;34;3;0.14999999999999999;0.64000000000000001;0.13;0.080000000000000002;1;83;0;0;0.41999999999999998;0.57999999999999996;0.0;0.0;1;23.565719083710064;55;93;22;2;nein
2019_03_22 14:53;54;2;1;control;68;105;1;49;74;63;58;0.84999999999999998;0.080000000000000002;0.02;0.050000000000000003;97;5;86;8;0.25;0.52000000000000002;0.070000000000000007;0.16;0;12.366140704458303;55;93;22;2;nein
2019_03_22 14:53;54;2;1;control;69;84;1;43;10;5;45;0.78000000000000003;0.13;0.059999999999999998;0.029999999999999999;87;1;0;0;0.57999999999999996;0.41999999999999998;0.0;0.0;0;10.866232110143756;55;93;22;2;nein
2019_03_22 14:53;54;2;1;control;70;102;1;40;56;53;17;0.28000000000000003;0.26000000000000001;0.14999999999999999;0.31;1;76;29;62;0.68000000000000005;0.23000000000000001;0.050000000000000003;0.039999999999999897;0;9.149481328864567;55;93;22;2;nein
2019_03_22 14:53;54;2;1;control;71;57;0;52;35;23;47;0.22;0.68000000000000005;0.040000000000000001;0.059999999999999998;71;7;0;0;0.28999999999999998;0.70999999999999996;0.0;0.0;0;5.299765744870456;55;93;22;2;nein
2019_03_22 14:53;54;2;1;control;72;28;1;47;30;0;0;0.97999999999999998;0.02;0.0;0.0;55;48;77;13;0.070000000000000007;0.26000000000000001;0.42999999999999999;0.23999999999999999;0;10.16635353538004;55;93;22;2;nein
2019_03_22 14:53;54;2;1;control;73;150;0;25;21;78;38;0.84999999999999998;0.059999999999999998;0.050000000000000003;0.040000000000000001;31;43;64;95;0.059999999999999998;0.45000000000000001;0.13;0.35999999999999999;1;8.499796341719048;55;93;22;2;nein
2019_03_22 14:53;54;2;1;control;74;26;1;76;41;0;0;0.57999999999999996;0.41999999999999998;0.0;0.0;61;79;84;2;0.13;0.029999999999999999;0.67000000000000004;0.17000000000000001;0;9.732885327881377;55;93;22;2;nein
2019_03_22 14:53;54;2;1;control;75;86;0;56;30;57;88;0.20000000000000001;0.35999999999999999;0.080000000000000002;0.35999999999999999;98;2;0;0;0.77000000000000002;0.23000000000000001;0.0;0.0;1;7.616413317904517;55;93;22;2;nein
2019_03_22 14:53;54;3;1;timed;1;60;1;64;59;57;96;0.83999999999999997;0.13;0.02;0.01;83;6;0;0;0.54000000000000004;0.46000000000000002;0.0;0.0;0;3.871702339471085;55;93;22;2;nein
2019_03_22 14:53;54;3;1;timed;2;65;0;75;64;59;52;0.59999999999999998;0.22;0.14000000000000001;0.040000000000000001;1;99;0;0;0.35999999999999999;0.64000000000000001;0.0;0.0;0;5.933207140034938;55;93;22;2;nein
2019_03_22 14:53;54;3;1;timed;3;86;0;56;30;57;88;0.20000000000000001;0.35999999999999999;0.080000000000000002;0.35999999999999999;98;2;0;0;0.77000000000000002;0.23000000000000001;0.0;0.0;0;6.299894033551027;55;93;22;2;nein
2019_03_22 14:53;54;3;1;timed;4;68;0;84;27;55;62;0.01;0.050000000000000003;0.40999999999999998;0.53000000000000003;9;82;0;0;0.37;0.63;0.0;0.0;0;5.9997254622230685;55;93;22;2;nein
2019_03_22 14:53;54;3;1;timed;5;106;1;85;69;22;61;0.10000000000000001;0.58999999999999997;0.17999999999999999;0.13;20;79;91;84;0.55000000000000004;0.14999999999999999;0.26000000000000001;0.039999999999999897;0;6.799878318186529;55;93;22;2;nein
2019_03_22 14:53;54;3;1;timed;6;35;0;33;37;0;0;0.88;0.12;0.0;0.0;63;4;79;98;0.16;0.46000000000000002;0.17000000000000001;0.20999999999999999;1;9.866379642126049;55;93;22;2;nein
2019_03_22 14:53;54;3;1;timed;7;61;0;43;18;39;70;0.75;0.089999999999999997;0.089999999999999997;0.070000000000000007;16;66;0;0;0.64000000000000001;0.35999999999999999;0.0;0.0;NA;10.032893859077376;55;93;22;2;nein
2019_03_22 14:53;54;3;1;timed;8;20;0;44;40;0;0;0.91000000000000003;0.089999999999999997;0.0;0.0;29;5;80;99;0.25;0.40000000000000002;0.26000000000000001;0.089999999999999997;0;5.766386633858929;55;93;22;2;nein
2019_03_22 14:53;54;3;1;timed;9;46;1;5;19;0;0;0.32000000000000001;0.68000000000000005;0.0;0.0;88;38;97;66;0.60999999999999999;0.20000000000000001;0.040000000000000001;0.14999999999999999;1;5.449728156287165;55;93;22;2;nein
2019_03_22 14:53;54;3;1;timed;10;84;0;43;10;5;45;0.78000000000000003;0.13;0.059999999999999998;0.029999999999999999;87;1;0;0;0.57999999999999996;0.41999999999999998;0.0;0.0;0;6.432992577216282;55;93;22;2;nein
2019_03_22 14:53;54;3;1;timed;11;1;0;22;51;0;0;0.26000000000000001;0.73999999999999999;0.0;0.0;14;11;92;31;0.29999999999999999;0.40999999999999998;0.14999999999999999;0.14000000000000001;0;8.266289134462568;55;93;22;2;nein
2019_03_22 14:53;54;3;1;timed;12;146;0;25;5;64;35;0.94999999999999996;0.02;0.01;0.02;47;97;12;79;0.20999999999999999;0.029999999999999999;0.02;0.73999999999999999;1;4.233279174130075;55;93;22;2;nein
2019_03_22 14:53;54;3;1;timed;13;96;0;51;54;39;7;0.17000000000000001;0.26000000000000001;0.10000000000000001;0.46999999999999997;24;96;0;0;0.28000000000000003;0.71999999999999997;0.0;0.0;1;6.53314113550914;55;93;22;2;nein
2019_03_22 14:53;54;3;1;timed;14;128;0;70;49;27;54;0.27000000000000002;0.53000000000000003;0.02;0.17999999999999999;72;97;6;20;0.29999999999999999;0.39000000000000001;0.22;0.0899999999999999;0;6.7330258039837645;55;93;22;2;nein
2019_03_22 14:53;54;3;1;timed;15;123;0;26;24;51;92;0.72999999999999998;0.16;0.070000000000000007;0.040000000000000001;6;90;82;49;0.64000000000000001;0.25;0.050000000000000003;0.059999999999999998;1;9.116256164270453;55;93;22;2;nein
2019_03_22 14:53;54;3;1;timed;16;72;0;63;82;51;61;0.01;0.96999999999999997;0.01;0.01;92;12;0;0;0.89000000000000001;0.11;0.0;0.0;1;7.799662793202515;55;93;22;2;nein
2019_03_22 14:53;54;3;1;timed;17;103;0;38;49;89;50;0.89000000000000001;0.070000000000000007;0.01;0.029999999999999999;6;64;99;27;0.70999999999999996;0.17999999999999999;0.059999999999999998;0.050000000000000003;0;6.316335510820863;55;93;22;2;nein
2019_03_22 14:53;54;3;1;timed;18;32;1;19;81;0;0;0.93000000000000005;0.070000000000000007;0.0;0.0;1;65;41;68;0.45000000000000001;0.050000000000000003;0.059999999999999998;0.44;1;8.583130102681025;55;93;22;2;nein
2019_03_22 14:53;54;3;1;timed;19;12;1;53;68;0;0;0.31;0.68999999999999995;0.0;0.0;69;54;97;29;0.25;0.20999999999999999;0.20000000000000001;0.34000000000000002;0;6.899695891683223;55;93;22;2;nein
2019_03_22 14:53;54;3;1;timed;20;131;1;83;41;81;88;0.23999999999999999;0.58999999999999997;0.10000000000000001;0.070000000000000007;82;97;4;17;0.26000000000000001;0.46999999999999997;0.11;0.16;NA;10.032863390517377;55;93;22;2;nein
2019_03_22 14:53;54;3;1;timed;21;54;1;44;79;78;52;0.79000000000000004;0.19;0.01;0.0099999999999999603;96;1;0;0;0.28000000000000003;0.71999999999999997;0.0;0.0;0;6.333223432697196;55;93;22;2;nein
2019_03_22 14:53;54;3;1;timed;22;57;1;52;35;23;47;0.22;0.68000000000000005;0.040000000000000001;0.059999999999999998;71;7;0;0;0.28999999999999998;0.70999999999999996;0.0;0.0;0;6.316376242475599;55;93;22;2;nein
2019_03_22 14:53;54;3;1;timed;23;104;1;55;85;93;3;0.87;0.02;0.089999999999999997;0.02;1;2;90;8;0.35999999999999999;0.070000000000000007;0.40000000000000002;0.17000000000000001;0;4.449770170829652;55;93;22;2;nein
2019_03_22 14:53;54;3;1;timed;24;90;0;27;44;50;72;0.68000000000000005;0.28999999999999998;0.02;0.0099999999999999707;6;96;0;0;0.46999999999999997;0.53000000000000003;0.0;0.0;1;5.899881268825993;55;93;22;2;nein
2019_03_22 14:53;54;3;1;timed;25;6;1;9;51;0;0;0.14999999999999999;0.84999999999999998;0.0;0.0;6;40;50;73;0.42999999999999999;0.26000000000000001;0.059999999999999998;0.25;0;6.366527815551308;55;93;22;2;nein
2019_03_22 14:53;54;3;1;timed;26;92;1;90;86;65;94;0.16;0.34000000000000002;0.28000000000000003;0.22;79;22;0;0;0.35999999999999999;0.64000000000000001;0.0;0.0;0;4.349768182355547;55;93;22;2;nein
2019_03_22 14:53;54;3;1;timed;27;107;1;52;48;13;63;0.68000000000000005;0.19;0.050000000000000003;0.079999999999999905;54;91;33;3;0.19;0.17999999999999999;0.33000000000000002;0.29999999999999999;0;6.783184112215167;55;93;22;2;nein
2019_03_22 14:53;54;3;1;timed;28;112;1;70;44;98;64;0.02;0.75;0.12;0.11;33;2;63;85;0.23999999999999999;0.31;0.080000000000000002;0.37;1;7.866531343490351;55;93;22;2;nein
2019_03_22 14:53;54;3;1;timed;29;125;1;37;41;10;35;0.91000000000000003;0.040000000000000001;0.029999999999999999;0.02;7;13;91;93;0.26000000000000001;0.39000000000000001;0.16;0.19;0;8.316305362981439;55;93;22;2;nein
2019_03_22 14:53;54;3;1;timed;30;150;1;25;21;78;38;0.84999999999999998;0.059999999999999998;0.050000000000000003;0.040000000000000001;31;43;64;95;0.059999999999999998;0.45000000000000001;0.13;0.35999999999999999;0;7.932977182574177;55;93;22;2;nein
2019_03_22 14:53;54;3;1;timed;31;63;1;56;78;42;36;0.93000000000000005;0.040000000000000001;0.01;0.0199999999999999;2;72;0;0;0.32000000000000001;0.68000000000000005;0.0;0.0;0;6.2330431229565875;55;93;22;2;nein
2019_03_22 14:53;54;3;1;timed;32;87;0;10;30;63;4;0.56999999999999995;0.12;0.16;0.14999999999999999;86;2;0;0;0.42999999999999999;0.56999999999999995;0.0;0.0;0;6.699672671433291;55;93;22;2;nein
2019_03_22 14:53;54;3;1;timed;33;137;1;71;22;28;17;0.25;0.46000000000000002;0.050000000000000003;0.23999999999999999;3;98;92;69;0.42999999999999999;0.23999999999999999;0.20000000000000001;0.13;0;7.14972636024504;55;93;22;2;nein
2019_03_22 14:53;54;3;1;timed;34;38;0;40;70;0;0;0.53000000000000003;0.46999999999999997;0.0;0.0;97;90;6;96;0.56999999999999995;0.070000000000000007;0.27000000000000002;0.089999999999999997;1;8.732960697479939;55;93;22;2;nein
2019_03_22 14:53;54;3;1;timed;35;11;0;17;36;0;0;0.14000000000000001;0.85999999999999999;0.0;0.0;19;41;34;95;0.88;0.02;0.050000000000000003;0.050000000000000003;1;9.766199973830226;55;93;22;2;nein
2019_03_22 14:53;54;3;1;timed;36;37;0;14;98;0;0;0.93000000000000005;0.070000000000000007;0.0;0.0;41;2;87;66;0.17999999999999999;0.48999999999999999;0.32000000000000001;0.010000000000000101;0;7.083070127724568;55;93;22;2;nein
2019_03_22 14:53;54;3;1;timed;37;59;0;56;47;83;90;0.31;0.12;0.54000000000000004;0.029999999999999898;10;98;0;0;0.46999999999999997;0.53000000000000003;0.0;0.0;NA;10.032881350931348;55;93;22;2;nein
2019_03_22 14:53;54;3;1;timed;38;119;0;60;58;11;18;0.25;0.72999999999999998;0.01;0.01;96;23;42;85;0.44;0.48999999999999999;0.059999999999999998;0.010000000000000101;0;0.41663448758845334;55;93;22;2;nein
2019_03_22 14:53;54;3;1;timed;39;89;0;26;41;13;56;0.059999999999999998;0.40999999999999998;0.050000000000000003;0.47999999999999998;5;97;0;0;0.37;0.63;0.0;0.0;1;4.9164394887957314;55;93;22;2;nein
2019_03_22 14:53;54;3;1;timed;40;100;0;27;14;59;52;0.02;0.95999999999999996;0.01;0.01;17;98;0;0;0.48999999999999999;0.51000000000000001;0.0;0.0;1;4.149752659424848;55;93;22;2;nein
2019_03_22 14:53;54;3;1;timed;41;47;0;2;40;0;0;0.45000000000000001;0.55000000000000004;0.0;0.0;93;89;11;56;0.58999999999999997;0.070000000000000007;0.28000000000000003;0.059999999999999998;1;5.0998576637084625;55;93;22;2;nein
2019_03_22 14:53;54;3;1;timed;42;34;0;32;48;0;0;0.28000000000000003;0.71999999999999997;0.0;0.0;97;83;7;62;0.040000000000000001;0.54000000000000004;0.35999999999999999;0.059999999999999901;1;6.599701151519184;55;93;22;2;nein
2019_03_22 14:53;54;3;1;timed;43;127;0;89;26;62;79;0.02;0.28999999999999998;0.53000000000000003;0.16;96;6;60;13;0.53000000000000003;0.25;0.17000000000000001;0.050000000000000003;1;8.049929312936001;55;93;22;2;nein
2019_03_22 14:53;54;3;1;timed;44;30;1;33;30;0;0;0.71999999999999997;0.28000000000000003;0.0;0.0;9;88;1;14;0.55000000000000004;0.39000000000000001;0.01;0.049999999999999899;1;7.366333458199733;55;93;22;2;nein
2019_03_22 14:53;54;3;1;timed;45;67;1;44;42;8;89;0.88;0.070000000000000007;0.029999999999999999;0.02;10;63;0;0;0.39000000000000001;0.60999999999999999;0.0;0.0;1;7.966505429176323;55;93;22;2;nein
2019_03_22 14:53;54;3;1;timed;46;130;1;37;79;23;95;0.94999999999999996;0.029999999999999999;0.01;0.01;94;4;58;49;0.46000000000000002;0.5;0.029999999999999999;0.01;1;7.982977054285584;55;93;22;2;nein
2019_03_22 14:53;54;3;1;timed;47;55;0;74;55;47;48;0.60999999999999999;0.31;0.070000000000000007;0.01;97;6;0;0;0.42999999999999999;0.56999999999999995;0.0;0.0;0;5.49970237026173;55;93;22;2;nein
2019_03_22 14:53;54;3;1;timed;48;48;1;13;32;0;0;0.90000000000000002;0.10000000000000001;0.0;0.0;24;99;84;94;0.62;0.14999999999999999;0.20000000000000001;0.029999999999999999;1;5.683070191869774;55;93;22;2;nein
2019_03_22 14:53;54;3;1;timed;49;136;1;29;67;14;75;0.46000000000000002;0.29999999999999999;0.20999999999999999;0.0300000000000001;70;86;1;85;0.31;0.39000000000000001;0.27000000000000002;0.029999999999999898;0;8.28296730434704;55;93;22;2;nein
2019_03_22 14:53;54;3;1;timed;50;39;1;14;33;0;0;0.78000000000000003;0.22;0.0;0.0;93;84;1;25;0.14000000000000001;0.23999999999999999;0.39000000000000001;0.23000000000000001;NA;10.032901877120821;55;93;22;2;nein
2019_03_22 14:53;54;3;1;timed;51;29;0;44;51;0;0;0.78000000000000003;0.22;0.0;0.0;74;1;68;82;0.69999999999999996;0.28000000000000003;0.01;0.01;1;8.466317486261687;55;93;22;2;nein
2019_03_22 14:53;54;3;1;timed;52;102;1;40;56;53;17;0.28000000000000003;0.26000000000000001;0.14999999999999999;0.31;1;76;29;62;0.68000000000000005;0.23000000000000001;0.050000000000000003;0.039999999999999897;0;5.849740600287987;55;93;22;2;nein
2019_03_22 14:53;54;3;1;timed;53;5;0;70;5;0;0;0.98999999999999999;0.01;0.0;0.0;92;87;47;1;0.44;0.02;0.16;0.38;0;3.816467968883444;55;93;22;2;nein
2019_03_22 14:53;54;3;1;timed;54;56;0;28;84;37;41;0.68000000000000005;0.28000000000000003;0.02;0.0199999999999999;6;95;0;0;0.72999999999999998;0.27000000000000002;0.0;0.0;1;5.29981385312567;55;93;22;2;nein
2019_03_22 14:53;54;3;1;timed;55;76;0;39;62;9;28;0.01;0.51000000000000001;0.26000000000000001;0.22;77;7;0;0;0.57999999999999996;0.41999999999999998;0.0;0.0;0;5.899724435914322;55;93;22;2;nein
2019_03_22 14:53;54;3;1;timed;56;14;0;36;40;0;0;0.54000000000000004;0.46000000000000002;0.0;0.0;99;70;1;11;0.16;0.089999999999999997;0.080000000000000002;0.67000000000000004;0;4.199784282584005;55;93;22;2;nein
2019_03_22 14:53;54;3;1;timed;57;94;1;84;86;93;39;0.78000000000000003;0.20000000000000001;0.01;0.0099999999999999603;9;83;0;0;0.46999999999999997;0.53000000000000003;0.0;0.0;0;5.849734827299471;55;93;22;2;nein
2019_03_22 14:53;54;3;1;timed;58;10;1;45;62;0;0;0.059999999999999998;0.93999999999999995;0.0;0.0;17;99;28;67;0.58999999999999997;0.34000000000000002;0.01;0.059999999999999998;0;8.91630799289851;55;93;22;2;nein
2019_03_22 14:53;54;3;1;timed;59;40;1;45;49;0;0;0.68999999999999995;0.31;0.0;0.0;2;92;65;73;0.23999999999999999;0.59999999999999998;0.11;0.050000000000000003;1;7.9329787861843215;55;93;22;2;nein
2019_03_22 14:53;54;3;1;timed;60;73;0;65;68;70;47;0.25;0.23000000000000001;0.20999999999999999;0.31;27;95;0;0;0.45000000000000001;0.55000000000000004;0.0;0.0;0;7.199632581219703;55;93;22;2;nein
2019_03_22 14:53;54;3;1;timed;61;33;0;27;70;0;0;0.88;0.12;0.0;0.0;93;3;77;16;0.080000000000000002;0.40000000000000002;0.5;0.02;0;6.366361040267293;55;93;22;2;nein
2019_03_22 14:53;54;3;1;timed;62;110;1;47;44;23;52;0.13;0.27000000000000002;0.040000000000000001;0.56000000000000005;99;2;30;22;0.28999999999999998;0.5;0.11;0.10000000000000001;0;5.7831738491222495;55;93;22;2;nein
2019_03_22 14:53;54;3;1;timed;63;44;0;79;74;0;0;0.71999999999999997;0.28000000000000003;0.0;0.0;3;67;15;36;0.41999999999999998;0.53000000000000003;0.02;0.029999999999999999;0;4.2663622590098385;55;93;22;2;nein
2019_03_22 14:53;54;3;1;timed;64;145;1;91;89;90;74;0.57999999999999996;0.29999999999999999;0.11;0.010000000000000101;2;75;84;39;0.32000000000000001;0.27000000000000002;0.39000000000000001;0.0199999999999999;0;6.649696212405615;55;93;22;2;nein
2019_03_22 14:53;54;3;1;timed;65;62;1;12;45;16;50;0.20999999999999999;0.76000000000000001;0.02;0.01;92;15;0;0;0.20999999999999999;0.79000000000000004;0.0;0.0;1;8.132962236944877;55;93;22;2;nein
2019_03_22 14:53;54;3;1;timed;66;21;0;64;28;0;0;0.080000000000000002;0.92000000000000004;0.0;0.0;50;1;88;13;0.57999999999999996;0.13;0.02;0.27000000000000002;1;9.466247889649821;55;93;22;2;nein
2019_03_22 14:53;54;3;1;timed;67;129;0;12;29;81;36;0.17999999999999999;0.79000000000000004;0.01;0.02;5;19;95;92;0.47999999999999998;0.26000000000000001;0.13;0.13;1;5.8498740205159265;55;93;22;2;nein
2019_03_22 14:53;54;3;1;timed;68;116;0;53;65;43;99;0.56999999999999995;0.37;0.050000000000000003;0.010000000000000101;57;72;11;87;0.67000000000000004;0.13;0.14999999999999999;0.050000000000000003;1;6.049714750119165;55;93;22;2;nein
2019_03_22 14:53;54;3;1;timed;69;75;0;67;80;36;81;0.81999999999999995;0.080000000000000002;0.059999999999999998;0.040000000000000001;3;97;0;0;0.32000000000000001;0.68000000000000005;0.0;0.0;1;8.366296254484041;55;93;22;2;nein
2019_03_22 14:53;54;3;1;timed;70;36;0;70;17;0;0;0.33000000000000002;0.67000000000000004;0.0;0.0;84;1;12;88;0.22;0.27000000000000002;0.14000000000000001;0.37;1;5.1830188763979095;55;93;22;2;nein
2019_03_22 14:53;54;3;1;timed;71;19;0;22;53;0;0;0.13;0.87;0.0;0.0;4;93;96;65;0.46999999999999997;0.059999999999999998;0.26000000000000001;0.20999999999999999;1;7.249691786446419;55;93;22;2;nein
2019_03_22 14:53;54;3;1;timed;72;134;1;57;48;50;55;0.02;0.62;0.17999999999999999;0.17999999999999999;80;96;15;18;0.23999999999999999;0.35999999999999999;0.33000000000000002;0.070000000000000007;0;5.799887298393514;55;93;22;2;nein
2019_03_22 14:53;54;3;1;timed;73;97;0;17;33;32;74;0.94999999999999996;0.01;0.029999999999999999;0.01;76;23;0;0;0.33000000000000002;0.67000000000000004;0.0;0.0;1;4.199820203415584;55;93;22;2;nein
2019_03_22 14:53;54;3;1;timed;74;147;0;39;43;76;28;0.14000000000000001;0.10000000000000001;0.10000000000000001;0.66000000000000003;6;31;68;85;0.27000000000000002;0.20000000000000001;0.22;0.31;0;6.349707886674878;55;93;22;2;nein
2019_03_22 14:53;54;3;1;timed;75;50;1;15;20;0;0;0.82999999999999996;0.17000000000000001;0.0;0.0;97;18;88;87;0.56999999999999995;0.39000000000000001;0.01;0.029999999999999999;1;4.549746180846341;55;93;22;2;nein
2019_03_22 14:53;54;4;1;control;1;147;1;39;43;76;28;0.14000000000000001;0.10000000000000001;0.10000000000000001;0.66000000000000003;6;31;68;85;0.27000000000000002;0.20000000000000001;0.22;0.31;0;7.196733257043888;55;93;22;2;nein
2019_03_22 14:53;54;4;1;control;2;113;0;85;65;39;64;0.44;0.34000000000000002;0.13;0.089999999999999997;87;2;4;35;0.67000000000000004;0.17000000000000001;0.11;0.049999999999999899;0;3.749814302134837;55;93;22;2;nein
2019_03_22 14:53;54;4;1;control;3;4;0;40;43;0;0;0.58999999999999997;0.40999999999999998;0.0;0.0;2;33;88;81;0.69999999999999996;0.14000000000000001;0.13;0.029999999999999999;0;3.0998194978255924;55;93;22;2;nein
2019_03_22 14:53;54;4;1;control;4;3;1;53;40;0;0;0.31;0.68999999999999995;0.0;0.0;96;24;7;88;0.11;0.27000000000000002;0.58999999999999997;0.029999999999999999;0;3.0831910398064792;55;93;22;2;nein
2019_03_22 14:53;54;4;1;control;5;100;0;27;14;59;52;0.02;0.95999999999999996;0.01;0.01;17;98;0;0;0.48999999999999999;0.51000000000000001;0.0;0.0;1;4.399907888728194;55;93;22;2;nein
2019_03_22 14:53;54;4;1;control;6;54;0;44;79;78;52;0.79000000000000004;0.19;0.01;0.0099999999999999603;96;1;0;0;0.28000000000000003;0.71999999999999997;0.0;0.0;0;4.183237929319148;55;93;22;2;nein
2019_03_22 14:53;54;4;1;control;7;69;1;54;34;64;49;0.34000000000000002;0.25;0.20999999999999999;0.20000000000000001;14;98;0;0;0.62;0.38;0.0;0.0;0;4.899934508628576;55;93;22;2;nein
2019_03_22 14:53;54;4;1;control;8;37;1;14;98;0;0;0.93000000000000005;0.070000000000000007;0.0;0.0;41;2;87;66;0.17999999999999999;0.48999999999999999;0.32000000000000001;0.010000000000000101;1;4.649952469044365;55;93;22;2;nein
2019_03_22 14:53;54;4;1;control;9;117;0;65;85;92;41;0.23000000000000001;0.17999999999999999;0.54000000000000004;0.050000000000000003;99;93;10;13;0.64000000000000001;0.16;0.01;0.19;0;7.266345581479982;55;93;22;2;nein
2019_03_22 14:53;54;4;1;control;10;22;0;32;55;0;0;0.39000000000000001;0.60999999999999999;0.0;0.0;93;72;59;22;0.20000000000000001;0.11;0.14000000000000001;0.55000000000000004;0;8.533078274056606;55;93;22;2;nein
2019_03_22 14:53;54;4;1;control;11;23;1;54;40;0;0;0.93000000000000005;0.070000000000000007;0.0;0.0;36;23;71;86;0.02;0.41999999999999998;0.19;0.37;0;7.333151270315284;55;93;22;2;nein
2019_03_22 14:53;54;4;1;control;12;85;0;31;22;82;50;0.11;0.69999999999999996;0.01;0.17999999999999999;3;99;0;0;0.62;0.38;0.0;0.0;0;6.083156401860833;55;93;22;2;nein
2019_03_22 14:53;54;4;1;control;13;61;1;43;18;39;70;0.75;0.089999999999999997;0.089999999999999997;0.070000000000000007;16;66;0;0;0.64000000000000001;0.35999999999999999;0.0;0.0;0;3.016548277595575;55;93;22;2;nein
2019_03_22 14:53;54;4;1;control;14;145;1;91;89;90;74;0.57999999999999996;0.29999999999999999;0.11;0.010000000000000101;2;75;84;39;0.32000000000000001;0.27000000000000002;0.39000000000000001;0.0199999999999999;0;5.733013295839555;55;93;22;2;nein
2019_03_22 14:53;54;4;1;control;15;9;0;61;69;0;0;0.93999999999999995;0.060000000000000102;0.0;0.0;18;93;72;16;0.40999999999999998;0.34999999999999998;0.089999999999999997;0.14999999999999999;0;6.633003930764971;55;93;22;2;nein
2019_03_22 14:53;54;4;1;control;16;5;0;70;5;0;0;0.98999999999999999;0.01;0.0;0.0;92;87;47;1;0.44;0.02;0.16;0.38;0;6.433170898482786;55;93;22;2;nein
2019_03_22 14:53;54;4;1;control;17;45;0;97;87;0;0;0.71999999999999997;0.28000000000000003;0.0;0.0;96;11;14;4;0.25;0.029999999999999999;0.14000000000000001;0.57999999999999996;0;3.1664712402434816;55;93;22;2;nein
2019_03_22 14:53;54;4;1;control;18;25;0;50;53;0;0;0.82999999999999996;0.17000000000000001;0.0;0.0;83;16;97;4;0.45000000000000001;0.29999999999999999;0.11;0.14000000000000001;0;6.033135041796413;55;93;22;2;nein
2019_03_22 14:53;54;4;1;control;19;120;0;64;40;48;51;0.19;0.02;0.070000000000000007;0.71999999999999997;97;9;79;94;0.23000000000000001;0.54000000000000004;0.01;0.22;0;8.766419988915004;55;93;22;2;nein
2019_03_22 14:53;54;4;1;control;20;12;0;53;68;0;0;0.31;0.68999999999999995;0.0;0.0;69;54;97;29;0.25;0.20999999999999999;0.20000000000000001;0.34000000000000002;0;10.89952077763337;55;93;22;2;nein
2019_03_22 14:53;54;4;1;control;21;129;1;12;29;81;36;0.17999999999999999;0.79000000000000004;0.01;0.02;5;19;95;92;0.47999999999999998;0.26000000000000001;0.13;0.13;0;8.6329529360155;55;93;22;2;nein
2019_03_22 14:53;54;4;1;control;22;31;0;10;59;0;0;0.23999999999999999;0.76000000000000001;0.0;0.0;1;79;53;73;0.23000000000000001;0.58999999999999997;0.050000000000000003;0.13;1;8.69958671801578;55;93;22;2;nein
2019_03_22 14:53;54;4;1;control;23;24;0;35;27;0;0;0.070000000000000007;0.93000000000000005;0.0;0.0;62;3;81;95;0.35999999999999999;0.55000000000000004;0.01;0.080000000000000002;0;6.233171090914766;55;93;22;2;nein
2019_03_22 14:53;54;4;1;control;24;63;0;56;78;42;36;0.93000000000000005;0.040000000000000001;0.01;0.0199999999999999;2;72;0;0;0.32000000000000001;0.68000000000000005;0.0;0.0;1;5.199734249999892;55;93;22;2;nein
2019_03_22 14:53;54;4;1;control;25;32;1;19;81;0;0;0.93000000000000005;0.070000000000000007;0.0;0.0;1;65;41;68;0.45000000000000001;0.050000000000000003;0.059999999999999998;0.44;1;9.299587423605772;55;93;22;2;nein
2019_03_22 14:53;54;4;1;control;26;91;0;74;81;86;48;0.93000000000000005;0.02;0.01;0.039999999999999897;7;64;0;0;0.13;0.87;0.0;0.0;0;6.98317269452491;55;93;22;2;nein
2019_03_22 14:53;54;4;1;control;27;15;0;77;81;0;0;0.28000000000000003;0.71999999999999997;0.0;0.0;98;14;87;18;0.55000000000000004;0.23000000000000001;0.16;0.059999999999999901;0;4.699836239498836;55;93;22;2;nein
2019_03_22 14:53;54;4;1;control;28;29;1;44;51;0;0;0.78000000000000003;0.22;0.0;0.0;74;1;68;82;0.69999999999999996;0.28000000000000003;0.01;0.01;1;6.299654775160889;55;93;22;2;nein
2019_03_22 14:53;54;4;1;control;29;48;1;13;32;0;0;0.90000000000000002;0.10000000000000001;0.0;0.0;24;99;84;94;0.62;0.14999999999999999;0.20000000000000001;0.029999999999999999;1;7.366261616540214;55;93;22;2;nein
2019_03_22 14:53;54;4;1;control;30;135;0;48;60;41;51;0.14000000000000001;0.40000000000000002;0.089999999999999997;0.37;94;1;85;65;0.64000000000000001;0.29999999999999999;0.01;0.050000000000000003;0;7.049619175051703;55;93;22;2;nein
2019_03_22 14:53;54;4;1;control;31;122;0;35;58;25;31;0.81999999999999995;0.070000000000000007;0.080000000000000002;0.029999999999999999;18;64;68;89;0.63;0.17000000000000001;0.11;0.089999999999999997;1;4.849509359943113;55;93;22;2;nein
2019_03_22 14:53;54;4;1;control;32;134;0;57;48;50;55;0.02;0.62;0.17999999999999999;0.17999999999999999;80;96;15;18;0.23999999999999999;0.35999999999999999;0.33000000000000002;0.070000000000000007;1;3.7498357904896693;55;93;22;2;nein
2019_03_22 14:53;54;4;1;control;33;101;1;30;96;61;45;0.65000000000000002;0.14000000000000001;0.11;0.10000000000000001;3;98;63;89;0.75;0.19;0.040000000000000001;0.02;0;3.166460014985205;55;93;22;2;nein
2019_03_22 14:53;54;4;1;control;34;148;0;37;63;55;10;0.72999999999999998;0.070000000000000007;0.029999999999999999;0.17000000000000001;80;14;23;70;0.46999999999999997;0.10000000000000001;0.23000000000000001;0.20000000000000001;0;3.1498261046945117;55;93;22;2;nein
2019_03_22 14:53;54;4;1;control;35;111;1;51;36;48;27;0.93000000000000005;0.01;0.01;0.049999999999999899;31;78;30;53;0.55000000000000004;0.16;0.029999999999999999;0.26000000000000001;0;6.116360398822508;55;93;22;2;nein
2019_03_22 14:53;54;4;1;control;36;6;0;9;51;0;0;0.14999999999999999;0.84999999999999998;0.0;0.0;6;40;50;73;0.42999999999999999;0.26000000000000001;0.059999999999999998;0.25;1;2.8165087005381793;55;93;22;2;nein
2019_03_22 14:53;54;4;1;control;37;112;1;70;44;98;64;0.02;0.75;0.12;0.11;33;2;63;85;0.23999999999999999;0.31;0.080000000000000002;0.37;0;6.3496754937841615;55;93;22;2;nein
2019_03_22 14:53;54;4;1;control;38;87;0;10;30;63;4;0.56999999999999995;0.12;0.16;0.14999999999999999;86;2;0;0;0.42999999999999999;0.56999999999999995;0.0;0.0;1;7.399662215904755;55;93;22;2;nein
2019_03_22 14:53;54;4;1;control;39;75;1;67;80;36;81;0.81999999999999995;0.080000000000000002;0.059999999999999998;0.040000000000000001;3;97;0;0;0.32000000000000001;0.68000000000000005;0.0;0.0;1;2.5998756241242518;55;93;22;2;nein
2019_03_22 14:53;54;4;1;control;40;140;1;36;32;26;27;0.39000000000000001;0.14999999999999999;0.19;0.27000000000000002;44;3;99;25;0.29999999999999999;0.34000000000000002;0.34000000000000002;0.0199999999999999;0;5.966313637600251;55;93;22;2;nein
2019_03_22 14:53;54;4;1;control;41;107;0;52;48;13;63;0.68000000000000005;0.19;0.050000000000000003;0.079999999999999905;54;91;33;3;0.19;0.17999999999999999;0.33000000000000002;0.29999999999999999;0;3.933084945067094;55;93;22;2;nein
2019_03_22 14:53;54;4;1;control;42;68;0;84;27;55;62;0.01;0.050000000000000003;0.40999999999999998;0.53000000000000003;9;82;0;0;0.37;0.63;0.0;0.0;1;4.76645558902419;55;93;22;2;nein
2019_03_22 14:53;54;4;1;control;43;67;1;44;42;8;89;0.88;0.070000000000000007;0.029999999999999999;0.02;10;63;0;0;0.39000000000000001;0.60999999999999999;0.0;0.0;1;3.866425826050545;55;93;22;2;nein
2019_03_22 14:53;54;4;1;control;44;123;0;26;24;51;92;0.72999999999999998;0.16;0.070000000000000007;0.040000000000000001;6;90;82;49;0.64000000000000001;0.25;0.050000000000000003;0.059999999999999998;0;4.216483620100917;55;93;22;2;nein
2019_03_22 14:53;54;4;1;control;45;96;0;51;54;39;7;0.17000000000000001;0.26000000000000001;0.10000000000000001;0.46999999999999997;24;96;0;0;0.28000000000000003;0.71999999999999997;0.0;0.0;1;3.61647938657552;55;93;22;2;nein
2019_03_22 14:53;54;4;1;control;46;121;1;42;51;47;70;0.41999999999999998;0.17000000000000001;0.23999999999999999;0.17000000000000001;21;76;48;9;0.14999999999999999;0.34000000000000002;0.40999999999999998;0.10000000000000001;0;3.183172181368718;55;93;22;2;nein
2019_03_22 14:53;54;4;1;control;47;44;1;79;74;0;0;0.71999999999999997;0.28000000000000003;0.0;0.0;3;67;15;36;0.41999999999999998;0.53000000000000003;0.02;0.029999999999999999;1;4.233275966911606;55;93;22;2;nein
2019_03_22 14:53;54;4;1;control;48;131;1;83;41;81;88;0.23999999999999999;0.58999999999999997;0.10000000000000001;0.070000000000000007;82;97;4;17;0.26000000000000001;0.46999999999999997;0.11;0.16;0;5.066402220934833;55;93;22;2;nein
2019_03_22 14:53;54;4;1;control;49;98;0;27;10;31;79;0.23000000000000001;0.67000000000000004;0.070000000000000007;0.029999999999999999;25;99;0;0;0.38;0.62;0.0;0.0;1;3.966476884945223;55;93;22;2;nein
2019_03_22 14:53;54;4;1;control;50;126;1;16;55;51;42;0.68999999999999995;0.23999999999999999;0.01;0.060000000000000102;66;4;1;5;0.46999999999999997;0.38;0.089999999999999997;0.059999999999999998;0;4.2498040390401;55;93;22;2;nein
2019_03_22 14:53;54;4;1;control;51;128;0;70;49;27;54;0.27000000000000002;0.53000000000000003;0.02;0.17999999999999999;72;97;6;20;0.29999999999999999;0.39000000000000001;0.22;0.0899999999999999;0;4.149772223448963;55;93;22;2;nein
2019_03_22 14:53;54;4;1;control;52;141;0;93;28;60;91;0.81999999999999995;0.10000000000000001;0.01;0.070000000000000007;14;85;7;89;0.45000000000000001;0.070000000000000007;0.23999999999999999;0.23999999999999999;0;4.833303933844945;55;93;22;2;nein
2019_03_22 14:53;54;4;1;control;53;50;1;15;20;0;0;0.82999999999999996;0.17000000000000001;0.0;0.0;97;18;88;87;0.56999999999999995;0.39000000000000001;0.01;0.029999999999999999;1;3.0331536436551687;55;93;22;2;nein
2019_03_22 14:53;54;4;1;control;54;80;0;47;39;45;10;0.13;0.76000000000000001;0.059999999999999998;0.050000000000000003;2;87;0;0;0.48999999999999999;0.51000000000000001;0.0;0.0;1;4.7998953164369595;55;93;22;2;nein
2019_03_22 14:53;54;4;1;control;55;47;0;2;40;0;0;0.45000000000000001;0.55000000000000004;0.0;0.0;93;89;11;56;0.58999999999999997;0.070000000000000007;0.28000000000000003;0.059999999999999998;1;4.16645937354042;55;93;22;2;nein
2019_03_22 14:53;54;4;1;control;56;82;1;78;66;30;27;0.28999999999999998;0.58999999999999997;0.080000000000000002;0.040000000000000001;90;6;0;0;0.82999999999999996;0.17000000000000001;0.0;0.0;1;7.199758945569556;55;93;22;2;nein
2019_03_22 14:53;54;4;1;control;57;103;1;38;49;89;50;0.89000000000000001;0.070000000000000007;0.01;0.029999999999999999;6;64;99;27;0.70999999999999996;0.17999999999999999;0.059999999999999998;0.050000000000000003;0;5.249720972120485;55;93;22;2;nein
2019_03_22 14:53;54;4;1;control;58;60;1;64;59;57;96;0.83999999999999997;0.13;0.02;0.01;83;6;0;0;0.54000000000000004;0.46000000000000002;0.0;0.0;0;3.383172630379704;55;93;22;2;nein
2019_03_22 14:53;54;4;1;control;59;2;0;59;32;0;0;0.080000000000000002;0.92000000000000004;0.0;0.0;33;38;85;1;0.28999999999999998;0.050000000000000003;0.070000000000000007;0.58999999999999997;0;4.53343235081411;55;93;22;2;nein
2019_03_22 14:53;54;4;1;control;60;119;1;60;58;11;18;0.25;0.72999999999999998;0.01;0.01;96;23;42;85;0.44;0.48999999999999999;0.059999999999999998;0.010000000000000101;0;7.2162642464591045;55;93;22;2;nein
2019_03_22 14:53;54;4;1;control;61;55;1;74;55;47;48;0.60999999999999999;0.31;0.070000000000000007;0.01;97;6;0;0;0.42999999999999999;0.56999999999999995;0.0;0.0;0;4.399807823558149;55;93;22;2;nein
2019_03_22 14:53;54;4;1;control;62;125;0;37;41;10;35;0.91000000000000003;0.040000000000000001;0.029999999999999999;0.02;7;13;91;93;0.26000000000000001;0.39000000000000001;0.16;0.19;0;5.533022789200913;55;93;22;2;nein
2019_03_22 14:53;54;4;1;control;63;43;0;60;83;0;0;0.23000000000000001;0.77000000000000002;0.0;0.0;72;5;70;12;0.29999999999999999;0.40999999999999998;0.12;0.17000000000000001;0;3.9665176166017773;55;93;22;2;nein
2019_03_22 14:53;54;4;1;control;64;83;0;17;12;7;41;0.65000000000000002;0.19;0.089999999999999997;0.070000000000000007;6;84;0;0;0.72999999999999998;0.27000000000000002;0.0;0.0;1;5.6997012156643905;55;93;22;2;nein
2019_03_22 14:53;54;4;1;control;65;92;0;90;86;65;94;0.16;0.34000000000000002;0.28000000000000003;0.22;79;22;0;0;0.35999999999999999;0.64000000000000001;0.0;0.0;0;3.533288346769041;55;93;22;2;nein
2019_03_22 14:53;54;4;1;control;66;106;1;85;69;22;61;0.10000000000000001;0.58999999999999997;0.17999999999999999;0.13;20;79;91;84;0.55000000000000004;0.14999999999999999;0.26000000000000001;0.039999999999999897;0;5.033227730367798;55;93;22;2;nein
2019_03_22 14:53;54;4;1;control;67;70;1;66;55;69;50;0.22;0.29999999999999999;0.29999999999999999;0.17999999999999999;2;90;0;0;0.34000000000000002;0.66000000000000003;0.0;0.0;0;5.383025098397411;55;93;22;2;nein
2019_03_22 14:53;54;4;1;control;68;79;1;52;46;29;22;0.17999999999999999;0.51000000000000001;0.23999999999999999;0.070000000000000104;93;14;0;0;0.45000000000000001;0.55000000000000004;0.0;0.0;0;5.5665212086842075;55;93;22;2;nein
2019_03_22 14:53;54;4;1;control;69;52;1;71;51;10;54;0.22;0.12;0.19;0.46999999999999997;91;1;0;0;0.29999999999999999;0.69999999999999996;0.0;0.0;0;3.149852403872501;55;93;22;2;nein
2019_03_22 14:53;54;4;1;control;70;137;1;71;22;28;17;0.25;0.46000000000000002;0.050000000000000003;0.23999999999999999;3;98;92;69;0.42999999999999999;0.23999999999999999;0.20000000000000001;0.13;0;7.016305491268213;55;93;22;2;nein
2019_03_22 14:53;54;4;1;control;71;38;0;40;70;0;0;0.53000000000000003;0.46999999999999997;0.0;0.0;97;90;6;96;0.56999999999999995;0.070000000000000007;0.27000000000000002;0.089999999999999997;1;5.433314261083069;55;93;22;2;nein
2019_03_22 14:53;54;4;1;control;72;41;1;99;40;0;0;0.89000000000000001;0.11;0.0;0.0;1;67;52;46;0.51000000000000001;0.38;0.029999999999999999;0.080000000000000002;0;4.499807887701536;55;93;22;2;nein
2019_03_22 14:53;54;4;1;control;73;10;1;45;62;0;0;0.059999999999999998;0.93999999999999995;0.0;0.0;17;99;28;67;0.58999999999999997;0.34000000000000002;0.01;0.059999999999999998;0;4.833267692290974;55;93;22;2;nein
2019_03_22 14:53;54;4;1;control;74;124;1;37;65;15;41;0.17999999999999999;0.45000000000000001;0.02;0.34999999999999998;40;7;98;30;0.070000000000000007;0.45000000000000001;0.45000000000000001;0.029999999999999898;1;7.033008036001775;55;93;22;2;nein
2019_03_22 14:53;54;4;1;control;75;40;0;45;49;0;0;0.68999999999999995;0.31;0.0;0.0;2;92;65;73;0.23999999999999999;0.59999999999999998;0.11;0.050000000000000003;0;3.4832916822761035;55;93;22;2;nein
