date;id;block;order;cond;trial;gameid;leftright;oa1;oa2;oa3;oa4;pa1;pa2;pa3;pa4;ob1;ob2;ob3;ob4;pb1;pb2;pb3;pb4;choice;rt;paytrial;payout;alter;geschlecht;comment
2019_03_22 13:22;53;0;0;practice;1;33;1;54;82;55;71;0.56000000000000005;0.20999999999999999;0.02;0.20999999999999999;13;99;0;0;0.5;0.5;0.0;0.0;0;9.1610771124042;74;74;20;2;
2019_03_22 13:22;53;0;0;practice;2;19;0;25;73;0;0;0.69999999999999996;0.29999999999999999;0.0;0.0;87;84;1;86;0.040000000000000001;0.59999999999999998;0.28000000000000003;0.080000000000000002;1;8.233249057306239;74;74;20;2;
2019_03_22 13:22;53;0;0;practice;3;71;0;94;87;26;75;0.71999999999999997;0.23999999999999999;0.02;0.02;90;27;12;83;0.16;0.73999999999999999;0.02;0.080000000000000002;0;6.766718870121622;74;74;20;2;
2019_03_22 13:22;53;0;0;practice;4;62;1;65;52;74;55;0.16;0.12;0.14999999999999999;0.56999999999999995;72;86;2;68;0.12;0.53000000000000003;0.22;0.13;1;6.566671017845692;74;74;20;2;
2019_03_22 13:22;53;0;0;practice;5;50;1;17;12;21;14;0.55000000000000004;0.34000000000000002;0.059999999999999998;0.049999999999999899;13;93;0;0;0.28999999999999998;0.70999999999999996;0.0;0.0;1;8.533216118776181;74;74;20;2;
2019_03_22 13:22;53;0;0;practice;6;26;1;24;46;74;59;0.29999999999999999;0.11;0.25;0.34000000000000002;91;6;0;0;0.28999999999999998;0.70999999999999996;0.0;0.0;0;6.633548743412575;74;74;20;2;
2019_03_22 13:22;53;0;0;practice;7;1;0;67;36;0;0;0.14999999999999999;0.84999999999999998;0.0;0.0;1;4;81;77;0.25;0.54000000000000004;0.14000000000000001;0.070000000000000007;0;6.983280568608279;74;74;20;2;
2019_03_22 13:22;53;0;0;practice;8;69;0;38;74;27;73;0.22;0.19;0.45000000000000001;0.14000000000000001;1;97;79;84;0.28000000000000003;0.45000000000000001;0.17000000000000001;0.10000000000000001;1;5.683240381677024;74;74;20;2;
2019_03_22 13:22;53;0;0;practice;9;28;1;37;83;75;8;0.83999999999999997;0.070000000000000007;0.01;0.080000000000000002;94;2;0;0;0.19;0.81000000000000005;0.0;0.0;0;4.5668464548107295;74;74;20;2;
2019_03_22 13:22;53;0;0;practice;10;68;1;39;58;40;8;0.48999999999999999;0.44;0.02;0.050000000000000003;92;83;51;2;0.57999999999999996;0.13;0.02;0.27000000000000002;0;15.533204893376023;74;74;20;2;
2019_03_22 13:22;53;0;0;practice;11;67;0;74;31;10;77;0.11;0.070000000000000007;0.77000000000000002;0.050000000000000003;2;23;8;97;0.56999999999999995;0.01;0.059999999999999998;0.35999999999999999;0;7.3999411147588035;74;74;20;2;
2019_03_22 13:22;53;0;0;practice;12;24;0;19;38;0;0;0.89000000000000001;0.11;0.0;0.0;45;76;95;57;0.29999999999999999;0.22;0.40000000000000002;0.080000000000000002;1;10.24989279743022;74;74;20;2;
2019_03_22 13:22;53;0;0;practice;13;58;0;44;50;85;42;0.38;0.57999999999999996;0.02;0.02;37;88;19;12;0.20000000000000001;0.29999999999999999;0.46000000000000002;0.040000000000000001;1;8.433370676497361;74;74;20;2;
2019_03_22 13:22;53;0;0;practice;14;60;1;39;93;27;78;0.85999999999999999;0.02;0.11;0.01;22;5;62;95;0.059999999999999998;0.56999999999999995;0.14000000000000001;0.23000000000000001;0;5.683328260521193;74;74;20;2;
2019_03_22 13:22;53;0;0;practice;15;20;0;32;11;0;0;0.40999999999999998;0.58999999999999997;0.0;0.0;1;86;42;65;0.45000000000000001;0.38;0.050000000000000003;0.12;1;5.566588270611646;74;74;20;2;
2019_03_22 13:22;53;0;0;practice;16;64;0;44;60;96;45;0.53000000000000003;0.10000000000000001;0.029999999999999999;0.34000000000000002;88;20;43;31;0.47999999999999998;0.38;0.050000000000000003;0.089999999999999997;0;3.7000775194046582;74;74;20;2;
2019_03_22 13:22;53;0;0;practice;17;38;1;51;89;10;60;0.57999999999999996;0.029999999999999999;0.080000000000000002;0.31;8;84;0;0;0.33000000000000002;0.67000000000000004;0.0;0.0;1;3.366740551179646;74;74;20;2;
2019_03_22 13:22;53;0;0;practice;18;18;1;47;36;0;0;0.089999999999999997;0.91000000000000003;0.0;0.0;2;44;81;9;0.20000000000000001;0.25;0.51000000000000001;0.040000000000000001;1;4.599915520847389;74;74;20;2;
2019_03_22 13:22;53;0;0;practice;19;12;0;45;86;0;0;0.97999999999999998;0.02;0.0;0.0;6;23;95;81;0.14999999999999999;0.40999999999999998;0.050000000000000003;0.39000000000000001;1;4.9167097775480215;74;74;20;2;
2019_03_22 13:22;53;0;0;practice;20;36;0;56;89;86;77;0.66000000000000003;0.080000000000000002;0.14999999999999999;0.11;29;91;0;0;0.40999999999999998;0.58999999999999997;0.0;0.0;1;4.066587468797479;74;74;20;2;
2019_03_22 13:22;53;0;0;practice;21;14;0;92;56;0;0;0.11;0.89000000000000001;0.0;0.0;97;31;51;4;0.58999999999999997;0.22;0.080000000000000002;0.11;0;4.083240189241224;74;74;20;2;
2019_03_22 13:22;53;0;0;practice;22;13;0;15;25;0;0;0.29999999999999999;0.69999999999999996;0.0;0.0;3;43;35;73;0.44;0.40000000000000002;0.01;0.14999999999999999;0;6.916587581051317;74;74;20;2;
2019_03_22 13:22;53;0;0;practice;23;4;0;40;59;0;0;0.19;0.81000000000000005;0.0;0.0;10;88;13;45;0.56000000000000005;0.28999999999999998;0.01;0.14000000000000001;0;4.049929296016671;74;74;20;2;
2019_03_22 13:22;53;0;0;practice;24;31;0;72;59;40;92;0.59999999999999998;0.34999999999999998;0.02;0.029999999999999999;97;29;0;0;0.38;0.62;0.0;0.0;0;4.03351038461733;74;74;20;2;
2019_03_22 13:22;53;0;0;practice;25;15;1;24;59;0;0;0.56999999999999995;0.42999999999999999;0.0;0.0;9;8;80;22;0.31;0.10000000000000001;0.55000000000000004;0.039999999999999897;0;7.633437451589998;74;74;20;2;
2019_03_22 13:22;53;0;0;practice;26;21;1;59;69;0;0;0.34000000000000002;0.66000000000000003;0.0;0.0;64;18;5;24;0.14999999999999999;0.040000000000000001;0.51000000000000001;0.29999999999999999;0;4.900084960240747;74;74;20;2;
2019_03_22 13:22;53;0;0;practice;27;75;1;21;86;27;62;0.88;0.040000000000000001;0.070000000000000007;0.0099999999999999794;13;3;49;87;0.28999999999999998;0.39000000000000001;0.070000000000000007;0.25;0;7.649897736606363;74;74;20;2;
2019_03_22 13:22;53;0;0;practice;28;23;0;99;93;0;0;0.57999999999999996;0.41999999999999998;0.0;0.0;64;10;80;81;0.13;0.55000000000000004;0.02;0.29999999999999999;0;6.649806009052554;74;74;20;2;
2019_03_22 13:22;53;0;0;practice;29;65;0;35;15;77;1;0.62;0.33000000000000002;0.029999999999999999;0.02;68;3;25;96;0.38;0.28000000000000003;0.28000000000000003;0.059999999999999901;1;7.383281338349661;74;74;20;2;
2019_03_22 13:22;53;0;0;practice;30;41;0;19;54;51;8;0.76000000000000001;0.070000000000000007;0.16;0.0099999999999999794;2;77;0;0;0.54000000000000004;0.46000000000000002;0.0;0.0;0;2.86658772537794;74;74;20;2;
2019_03_22 13:22;53;0;0;practice;31;44;0;69;48;22;63;0.39000000000000001;0.40999999999999998;0.19;0.01;1;94;0;0;0.22;0.78000000000000003;0.0;0.0;1;1.9334596778817286;74;74;20;2;
2019_03_22 13:22;53;0;0;practice;32;5;0;23;58;0;0;0.71999999999999997;0.28000000000000003;0.0;0.0;94;12;52;3;0.11;0.84999999999999998;0.029999999999999999;0.01;0;5.283243139917431;74;74;20;2;
2019_03_22 13:22;53;0;0;practice;33;59;1;13;27;48;51;0.56999999999999995;0.13;0.13;0.17000000000000001;8;37;97;1;0.65000000000000002;0.16;0.14999999999999999;0.040000000000000001;0;7.066624352254621;74;74;20;2;
2019_03_22 13:22;53;0;0;practice;34;30;0;54;78;85;25;0.20999999999999999;0.60999999999999999;0.089999999999999997;0.090000000000000094;87;20;0;0;0.58999999999999997;0.40999999999999998;0.0;0.0;0;6.250030388760933;74;74;20;2;
2019_03_22 13:22;53;0;0;practice;35;7;1;13;31;0;0;0.51000000000000001;0.48999999999999999;0.0;0.0;8;79;42;18;0.85999999999999999;0.089999999999999997;0.02;0.029999999999999999;0;3.8667307690457164;74;74;20;2;
2019_03_22 13:22;53;0;0;practice;36;2;0;41;60;0;0;0.97999999999999998;0.02;0.0;0.0;10;14;97;6;0.54000000000000004;0.17000000000000001;0.12;0.17000000000000001;1;4.650046232611203;74;74;20;2;
2019_03_22 13:22;53;0;0;practice;37;70;1;21;42;14;63;0.96999999999999997;0.01;0.01;0.01;70;2;6;76;0.23999999999999999;0.42999999999999999;0.01;0.32000000000000001;1;8.200061002030452;74;74;20;2;
2019_03_22 13:22;53;0;0;practice;38;57;0;39;68;59;91;0.73999999999999999;0.040000000000000001;0.14999999999999999;0.070000000000000007;9;22;40;84;0.29999999999999999;0.32000000000000001;0.040000000000000001;0.34000000000000002;0;5.883359755785932;74;74;20;2;
2019_03_22 13:22;53;0;0;practice;39;37;1;50;66;99;12;0.26000000000000001;0.71999999999999997;0.01;0.01;22;90;0;0;0.37;0.63;0.0;0.0;0;5.349931316588481;74;74;20;2;
2019_03_22 13:22;53;0;0;practice;40;47;0;91;99;90;78;0.93000000000000005;0.040000000000000001;0.02;0.0099999999999999499;10;87;0;0;0.23000000000000001;0.77000000000000002;0.0;0.0;0;4.799945091758673;74;74;20;2;
2019_03_22 13:22;53;0;0;practice;41;34;1;57;23;66;79;0.56000000000000005;0.23000000000000001;0.13;0.079999999999999905;85;9;0;0;0.56000000000000005;0.44;0.0;0.0;0;7.933284240917601;74;74;20;2;
2019_03_22 13:22;53;0;0;practice;42;48;1;20;25;24;35;0.32000000000000001;0.13;0.48999999999999999;0.059999999999999901;44;76;0;0;0.29999999999999999;0.69999999999999996;0.0;0.0;0;4.783156062886519;74;74;20;2;
2019_03_22 13:22;53;0;0;practice;43;10;0;34;59;0;0;0.16;0.83999999999999997;0.0;0.0;21;61;96;7;0.19;0.01;0.5;0.29999999999999999;1;4.416657338893856;74;74;20;2;
2019_03_22 13:22;53;0;0;practice;44;3;1;20;70;0;0;0.13;0.87;0.0;0.0;95;19;80;73;0.31;0.57999999999999996;0.029999999999999999;0.080000000000000002;1;7.416617889631198;74;74;20;2;
2019_03_22 13:22;53;0;0;practice;45;42;1;23;45;91;22;0.72999999999999998;0.02;0.20000000000000001;0.050000000000000003;2;86;0;0;0.40999999999999998;0.58999999999999997;0.0;0.0;0;6.099919850644255;74;74;20;2;
2019_03_22 13:22;53;0;0;practice;46;40;0;29;65;30;41;0.70999999999999996;0.01;0.14999999999999999;0.13;2;59;0;0;0.32000000000000001;0.68000000000000005;0.0;0.0;0;4.233272470283737;74;74;20;2;
2019_03_22 13:22;53;0;0;practice;47;16;1;50;42;0;0;0.32000000000000001;0.68000000000000005;0.0;0.0;97;2;56;31;0.35999999999999999;0.16;0.16;0.32000000000000001;1;10.333370644424576;74;74;20;2;
2019_03_22 13:22;53;0;0;practice;48;74;0;36;46;10;12;0.11;0.19;0.65000000000000002;0.049999999999999899;92;24;79;19;0.51000000000000001;0.40999999999999998;0.02;0.059999999999999998;1;6.066535190506329;74;74;20;2;
2019_03_22 13:22;53;0;0;practice;49;39;1;53;65;48;75;0.92000000000000004;0.029999999999999999;0.01;0.040000000000000001;16;83;0;0;0.31;0.68999999999999995;0.0;0.0;0;11.966506293119892;74;74;20;2;
2019_03_22 13:22;53;0;0;practice;50;35;1;84;95;4;35;0.89000000000000001;0.050000000000000003;0.01;0.050000000000000003;5;98;0;0;0.19;0.81000000000000005;0.0;0.0;0;6.18321680833651;74;74;20;2;
2019_03_22 13:22;53;0;0;practice;51;53;0;47;24;95;38;0.57999999999999996;0.28000000000000003;0.02;0.12;8;22;93;96;0.54000000000000004;0.34000000000000002;0.10000000000000001;0.0199999999999999;0;8.566580893920218;74;74;20;2;
2019_03_22 13:22;53;0;0;practice;52;63;0;24;82;6;96;0.91000000000000003;0.070000000000000007;0.01;0.0099999999999999603;73;10;71;22;0.31;0.51000000000000001;0.050000000000000003;0.13;1;10.133206689440158;74;74;20;2;
2019_03_22 13:22;53;0;0;practice;53;9;1;57;44;0;0;0.14999999999999999;0.84999999999999998;0.0;0.0;38;35;64;95;0.34000000000000002;0.45000000000000001;0.089999999999999997;0.12;1;10.63334636548825;74;74;20;2;
2019_03_22 13:22;53;0;0;practice;54;11;0;10;44;0;0;0.48999999999999999;0.51000000000000001;0.0;0.0;88;12;54;50;0.17000000000000001;0.75;0.02;0.059999999999999998;0;7.466592087247591;74;74;20;2;
2019_03_22 13:22;53;0;0;practice;55;66;0;44;18;63;36;0.47999999999999998;0.10000000000000001;0.029999999999999999;0.39000000000000001;13;93;61;53;0.52000000000000002;0.45000000000000001;0.02;0.0099999999999999707;1;7.433364261983115;74;74;20;2;
2019_03_22 13:22;53;0;0;practice;56;6;1;42;59;0;0;0.35999999999999999;0.64000000000000001;0.0;0.0;77;19;6;7;0.44;0.14999999999999999;0.17999999999999999;0.23000000000000001;0;10.616699738833631;74;74;20;2;
2019_03_22 13:22;53;0;0;practice;57;73;1;99;88;95;28;0.83999999999999997;0.14000000000000001;0.01;0.01;90;93;10;74;0.080000000000000002;0.46000000000000002;0.34999999999999998;0.11;0;4.666749306991733;74;74;20;2;
2019_03_22 13:22;53;0;0;practice;58;17;0;27;61;0;0;0.68999999999999995;0.31;0.0;0.0;3;91;69;43;0.29999999999999999;0.33000000000000002;0.27000000000000002;0.099999999999999895;1;4.133301944976665;74;74;20;2;
2019_03_22 13:22;53;0;0;practice;59;54;0;69;80;22;55;0.27000000000000002;0.31;0.059999999999999998;0.35999999999999999;52;2;49;90;0.059999999999999998;0.33000000000000002;0.20000000000000001;0.40999999999999998;1;9.68323877804778;74;74;20;2;
2019_03_22 13:22;53;0;0;practice;60;8;0;20;44;0;0;0.26000000000000001;0.73999999999999999;0.0;0.0;99;3;69;24;0.20999999999999999;0.60999999999999999;0.12;0.060000000000000102;1;5.533219005307728;74;74;20;2;
2019_03_22 13:22;53;0;0;practice;61;43;1;11;17;21;44;0.16;0.46000000000000002;0.25;0.13;2;66;0;0;0.44;0.56000000000000005;0.0;0.0;0;4.399862857684639;74;74;20;2;
2019_03_22 13:22;53;0;0;practice;62;72;0;86;85;97;43;0.51000000000000001;0.14999999999999999;0.33000000000000002;0.0099999999999999499;72;29;10;90;0.01;0.11;0.65000000000000002;0.23000000000000001;0;10.283172259534695;74;74;20;2;
2019_03_22 13:22;53;0;0;practice;63;61;0;51;48;56;88;0.91000000000000003;0.02;0.01;0.059999999999999998;78;21;14;82;0.55000000000000004;0.29999999999999999;0.070000000000000007;0.080000000000000002;0;9.333245240670294;74;74;20;2;
2019_03_22 13:22;53;0;0;practice;64;32;1;21;86;16;78;0.45000000000000001;0.41999999999999998;0.050000000000000003;0.080000000000000099;95;9;0;0;0.42999999999999999;0.56999999999999995;0.0;0.0;0;3.699935437914064;74;74;20;2;
2019_03_22 13:22;53;0;0;practice;65;29;1;66;40;92;49;0.46999999999999997;0.10000000000000001;0.34000000000000002;0.089999999999999997;8;94;0;0;0.44;0.56000000000000005;0.0;0.0;0;4.2332500194843306;74;74;20;2;
2019_03_22 13:22;53;0;0;practice;66;56;1;47;52;64;10;0.77000000000000002;0.040000000000000001;0.11;0.080000000000000002;1;5;12;99;0.14000000000000001;0.28999999999999998;0.27000000000000002;0.29999999999999999;1;8.583431181402375;74;74;20;2;
2019_03_22 13:22;53;0;0;practice;67;51;1;38;13;51;84;0.91000000000000003;0.070000000000000007;0.01;0.0099999999999999603;4;89;35;16;0.80000000000000004;0.089999999999999997;0.059999999999999998;0.050000000000000003;0;12.049847190233777;74;74;20;2;
2019_03_22 13:22;53;0;0;practice;68;22;1;84;87;0;0;0.17000000000000001;0.82999999999999996;0.0;0.0;3;24;41;83;0.68000000000000005;0.11;0.10000000000000001;0.11;0;4.383235153847636;74;74;20;2;
2019_03_22 13:22;53;0;0;practice;69;52;1;17;61;57;59;0.070000000000000007;0.050000000000000003;0.33000000000000002;0.55000000000000004;12;93;94;62;0.71999999999999997;0.16;0.080000000000000002;0.040000000000000001;0;7.299963854212365;74;74;20;2;
2019_03_22 13:22;53;0;0;practice;70;49;1;14;31;42;22;0.77000000000000002;0.089999999999999997;0.02;0.12;87;28;0;0;0.68000000000000005;0.32000000000000001;0.0;0.0;1;7.566551707880535;74;74;20;2;
2019_03_22 13:22;53;0;0;practice;71;27;0;68;43;98;36;0.54000000000000004;0.44;0.01;0.0099999999999999603;97;13;0;0;0.27000000000000002;0.72999999999999998;0.0;0.0;0;11.36665395523778;74;74;20;2;
2019_03_22 13:22;53;0;0;practice;72;55;1;53;11;80;74;0.31;0.37;0.28000000000000003;0.039999999999999897;6;93;98;96;0.69999999999999996;0.22;0.050000000000000003;0.029999999999999999;0;7.8165035188421825;74;74;20;2;
2019_03_22 13:22;53;0;0;practice;73;25;0;7;18;0;0;0.20999999999999999;0.79000000000000004;0.0;0.0;92;45;33;13;0.41999999999999998;0.17999999999999999;0.22;0.17999999999999999;1;4.8166090376016655;74;74;20;2;
2019_03_22 13:22;53;0;0;practice;74;45;0;37;40;75;23;0.54000000000000004;0.38;0.059999999999999998;0.02;1;90;0;0;0.28000000000000003;0.71999999999999997;0.0;0.0;0;5.283196634689375;74;74;20;2;
2019_03_22 13:22;53;0;0;practice;75;46;1;79;57;98;81;0.67000000000000004;0.070000000000000007;0.20999999999999999;0.050000000000000003;1;76;0;0;0.56000000000000005;0.44;0.0;0.0;0;5.333514970995566;74;74;20;2;
2019_03_22 13:22;53;1;0;control;1;13;0;52;56;0;0;0.46999999999999997;0.53000000000000003;0.0;0.0;94;71;27;2;0.089999999999999997;0.31;0.57999999999999996;0.020000000000000101;1;7.888017976035371;74;74;20;2;
2019_03_22 13:22;53;1;0;control;2;93;0;87;81;73;98;0.80000000000000004;0.040000000000000001;0.14999999999999999;0.0099999999999999499;5;71;0;0;0.51000000000000001;0.48999999999999999;0.0;0.0;0;4.9499966163430145;74;74;20;2;
2019_03_22 13:22;53;1;0;control;3;84;0;43;10;5;45;0.78000000000000003;0.13;0.059999999999999998;0.029999999999999999;87;1;0;0;0.57999999999999996;0.41999999999999998;0.0;0.0;0;3.8499465510594746;74;74;20;2;
2019_03_22 13:22;53;1;0;control;4;9;0;61;69;0;0;0.93999999999999995;0.060000000000000102;0.0;0.0;18;93;72;16;0.40999999999999998;0.34999999999999998;0.089999999999999997;0.14999999999999999;0;3.066546095180456;74;74;20;2;
2019_03_22 13:22;53;1;0;control;5;27;0;44;26;0;0;0.35999999999999999;0.64000000000000001;0.0;0.0;63;10;3;5;0.58999999999999997;0.19;0.14999999999999999;0.070000000000000007;0;4.7167918191844365;74;74;20;2;
2019_03_22 13:22;53;1;0;control;6;100;1;27;14;59;52;0.02;0.95999999999999996;0.01;0.01;17;98;0;0;0.48999999999999999;0.51000000000000001;0.0;0.0;1;3.966741385066598;74;74;20;2;
2019_03_22 13:22;53;1;0;control;7;109;1;75;28;16;56;0.19;0.070000000000000007;0.059999999999999998;0.68000000000000005;3;50;98;44;0.5;0.02;0.34999999999999998;0.13;0;4.983292435459589;74;74;20;2;
2019_03_22 13:22;53;1;0;control;8;90;0;27;44;50;72;0.68000000000000005;0.28999999999999998;0.02;0.0099999999999999707;6;96;0;0;0.46999999999999997;0.53000000000000003;0.0;0.0;0;12.033439824960624;74;74;20;2;
2019_03_22 13:22;53;1;0;control;9;107;0;52;48;13;63;0.68000000000000005;0.19;0.050000000000000003;0.079999999999999905;54;91;33;3;0.19;0.17999999999999999;0.33000000000000002;0.29999999999999999;0;8.383239644007517;74;74;20;2;
2019_03_22 13:22;53;1;0;control;10;150;1;25;21;78;38;0.84999999999999998;0.059999999999999998;0.050000000000000003;0.040000000000000001;31;43;64;95;0.059999999999999998;0.45000000000000001;0.13;0.35999999999999999;1;9.49988566128377;74;74;20;2;
2019_03_22 13:22;53;1;0;control;11;110;0;47;44;23;52;0.13;0.27000000000000002;0.040000000000000001;0.56000000000000005;99;2;30;22;0.28999999999999998;0.5;0.11;0.10000000000000001;0;8.049974518342424;74;74;20;2;
2019_03_22 13:22;53;1;0;control;12;45;0;97;87;0;0;0.71999999999999997;0.28000000000000003;0.0;0.0;96;11;14;4;0.25;0.029999999999999999;0.14000000000000001;0.57999999999999996;0;7.316744864941029;74;74;20;2;
2019_03_22 13:22;53;1;0;control;13;126;0;16;55;51;42;0.68999999999999995;0.23999999999999999;0.01;0.060000000000000102;66;4;1;5;0.46999999999999997;0.38;0.089999999999999997;0.059999999999999998;0;7.03325797348225;74;74;20;2;
2019_03_22 13:22;53;1;0;control;14;5;0;70;5;0;0;0.98999999999999999;0.01;0.0;0.0;92;87;47;1;0.44;0.02;0.16;0.38;1;2.9667933426317177;74;74;20;2;
2019_03_22 13:22;53;1;0;control;15;2;1;59;32;0;0;0.080000000000000002;0.92000000000000004;0.0;0.0;33;38;85;1;0.28999999999999998;0.050000000000000003;0.070000000000000007;0.58999999999999997;0;4.316760259775037;74;74;20;2;
2019_03_22 13:22;53;1;0;control;16;145;0;91;89;90;74;0.57999999999999996;0.29999999999999999;0.11;0.010000000000000101;2;75;84;39;0.32000000000000001;0.27000000000000002;0.39000000000000001;0.0199999999999999;0;7.716578215860864;74;74;20;2;
2019_03_22 13:22;53;1;0;control;17;132;0;27;70;21;19;0.64000000000000001;0.23000000000000001;0.029999999999999999;0.10000000000000001;11;85;55;6;0.39000000000000001;0.46999999999999997;0.029999999999999999;0.11;0;9.783253563503422;74;74;20;2;
2019_03_22 13:22;53;1;0;control;18;34;0;32;48;0;0;0.28000000000000003;0.71999999999999997;0.0;0.0;97;83;7;62;0.040000000000000001;0.54000000000000004;0.35999999999999999;0.059999999999999901;0;6.533403743317649;74;74;20;2;
2019_03_22 13:22;53;1;0;control;19;96;1;51;54;39;7;0.17000000000000001;0.26000000000000001;0.10000000000000001;0.46999999999999997;24;96;0;0;0.28000000000000003;0.71999999999999997;0.0;0.0;1;6.366687310711313;74;74;20;2;
2019_03_22 13:22;53;1;0;control;20;57;1;52;35;23;47;0.22;0.68000000000000005;0.040000000000000001;0.059999999999999998;71;7;0;0;0.28999999999999998;0.70999999999999996;0.0;0.0;0;3.9832549105512953;74;74;20;2;
2019_03_22 13:22;53;1;0;control;21;121;0;42;51;47;70;0.41999999999999998;0.17000000000000001;0.23999999999999999;0.17000000000000001;21;76;48;9;0.14999999999999999;0.34000000000000002;0.40999999999999998;0.10000000000000001;0;6.833486586769141;74;74;20;2;
2019_03_22 13:22;53;1;0;control;22;68;0;84;27;55;62;0.01;0.050000000000000003;0.40999999999999998;0.53000000000000003;9;82;0;0;0.37;0.63;0.0;0.0;0;4.033175867699356;74;74;20;2;
2019_03_22 13:22;53;1;0;control;23;77;1;24;17;99;41;0.17999999999999999;0.13;0.10000000000000001;0.58999999999999997;12;97;0;0;0.59999999999999998;0.40000000000000002;0.0;0.0;0;5.883229541147557;74;74;20;2;
2019_03_22 13:22;53;1;0;control;24;138;0;8;20;43;51;0.38;0.5;0.02;0.10000000000000001;72;82;70;1;0.39000000000000001;0.050000000000000003;0.070000000000000007;0.48999999999999999;0;10.233267980123856;74;74;20;2;
2019_03_22 13:22;53;1;0;control;25;136;0;29;67;14;75;0.46000000000000002;0.29999999999999999;0.20999999999999999;0.0300000000000001;70;86;1;85;0.31;0.39000000000000001;0.27000000000000002;0.029999999999999898;0;6.783241696651203;74;74;20;2;
2019_03_22 13:22;53;1;0;control;26;88;0;77;13;12;7;0.12;0.19;0.66000000000000003;0.029999999999999898;94;2;0;0;0.40999999999999998;0.58999999999999997;0.0;0.0;0;3.4166329637391755;74;74;20;2;
2019_03_22 13:22;53;1;0;control;27;125;1;37;41;10;35;0.91000000000000003;0.040000000000000001;0.029999999999999999;0.02;7;13;91;93;0.26000000000000001;0.39000000000000001;0.16;0.19;0;9.316592199502338;74;74;20;2;
2019_03_22 13:22;53;1;0;control;28;118;1;62;52;65;68;0.40999999999999998;0.44;0.10000000000000001;0.0500000000000001;79;20;14;37;0.56999999999999995;0.23999999999999999;0.14000000000000001;0.050000000000000003;0;8.166533939675901;74;74;20;2;
2019_03_22 13:22;53;1;0;control;29;19;0;22;53;0;0;0.13;0.87;0.0;0.0;4;93;96;65;0.46999999999999997;0.059999999999999998;0.26000000000000001;0.20999999999999999;0;7.850037637163041;74;74;20;2;
2019_03_22 13:22;53;1;0;control;30;105;0;49;74;63;58;0.84999999999999998;0.080000000000000002;0.02;0.050000000000000003;97;5;86;8;0.25;0.52000000000000002;0.070000000000000007;0.16;0;5.500066871310992;74;74;20;2;
2019_03_22 13:22;53;1;0;control;31;142;1;98;65;64;84;0.88;0.070000000000000007;0.01;0.040000000000000001;5;68;60;16;0.46000000000000002;0.080000000000000002;0.27000000000000002;0.19;0;5.71655255780388;74;74;20;2;
2019_03_22 13:22;53;1;0;control;32;46;0;5;19;0;0;0.32000000000000001;0.68000000000000005;0.0;0.0;88;38;97;66;0.60999999999999999;0.20000000000000001;0.040000000000000001;0.14999999999999999;1;4.366644654191987;74;74;20;2;
2019_03_22 13:22;53;1;0;control;33;80;1;47;39;45;10;0.13;0.76000000000000001;0.059999999999999998;0.050000000000000003;2;87;0;0;0.48999999999999999;0.51000000000000001;0.0;0.0;0;3.8831580193136688;74;74;20;2;
2019_03_22 13:22;53;1;0;control;34;149;0;14;89;73;53;0.93999999999999995;0.01;0.01;0.040000000000000001;97;45;6;13;0.34000000000000002;0.01;0.40999999999999998;0.23999999999999999;0;12.666686444752486;74;74;20;2;
2019_03_22 13:22;53;1;0;control;35;39;1;14;33;0;0;0.78000000000000003;0.22;0.0;0.0;93;84;1;25;0.14000000000000001;0.23999999999999999;0.39000000000000001;0.23000000000000001;1;3.616820331701092;74;74;20;2;
2019_03_22 13:22;53;1;0;control;36;31;1;10;59;0;0;0.23999999999999999;0.76000000000000001;0.0;0.0;1;79;53;73;0.23000000000000001;0.58999999999999997;0.050000000000000003;0.13;1;5.18324054203913;74;74;20;2;
2019_03_22 13:22;53;1;0;control;37;18;0;68;50;0;0;0.029999999999999999;0.96999999999999997;0.0;0.0;34;64;15;89;0.65000000000000002;0.029999999999999999;0.050000000000000003;0.27000000000000002;0;7.3999722251537605;74;74;20;2;
2019_03_22 13:22;53;1;0;control;38;116;0;53;65;43;99;0.56999999999999995;0.37;0.050000000000000003;0.010000000000000101;57;72;11;87;0.67000000000000004;0.13;0.14999999999999999;0.050000000000000003;0;8.399862536959517;74;74;20;2;
2019_03_22 13:22;53;1;0;control;39;143;0;88;44;56;73;0.95999999999999996;0.02;0.01;0.01;20;3;87;32;0.19;0.40000000000000002;0.28000000000000003;0.13;0;3.0166046115864447;74;74;20;2;
2019_03_22 13:22;53;1;0;control;40;76;0;39;62;9;28;0.01;0.51000000000000001;0.26000000000000001;0.22;77;7;0;0;0.57999999999999996;0.41999999999999998;0.0;0.0;0;5.783267996160248;74;74;20;2;
2019_03_22 13:22;53;1;0;control;41;135;0;48;60;41;51;0.14000000000000001;0.40000000000000002;0.089999999999999997;0.37;94;1;85;65;0.64000000000000001;0.29999999999999999;0.01;0.050000000000000003;0;3.316812858791309;74;74;20;2;
2019_03_22 13:22;53;1;0;control;42;11;1;17;36;0;0;0.14000000000000001;0.85999999999999999;0.0;0.0;19;41;34;95;0.88;0.02;0.050000000000000003;0.050000000000000003;0;7.84990870542606;74;74;20;2;
2019_03_22 13:22;53;1;0;control;43;61;0;43;18;39;70;0.75;0.089999999999999997;0.089999999999999997;0.070000000000000007;16;66;0;0;0.64000000000000001;0.35999999999999999;0.0;0.0;0;3.9832186685453053;74;74;20;2;
2019_03_22 13:22;53;1;0;control;44;144;0;99;93;90;71;0.65000000000000002;0.32000000000000001;0.01;0.02;97;14;48;73;0.23000000000000001;0.46000000000000002;0.13;0.17999999999999999;0;4.866589970458335;74;74;20;2;
2019_03_22 13:22;53;1;0;control;45;36;1;70;17;0;0;0.33000000000000002;0.67000000000000004;0.0;0.0;84;1;12;88;0.22;0.27000000000000002;0.14000000000000001;0.37;0;4.650049760593902;74;74;20;2;
2019_03_22 13:22;53;1;0;control;46;40;0;45;49;0;0;0.68999999999999995;0.31;0.0;0.0;2;92;65;73;0.23999999999999999;0.59999999999999998;0.11;0.050000000000000003;1;7.299864749967128;74;74;20;2;
2019_03_22 13:22;53;1;0;control;47;79;1;52;46;29;22;0.17999999999999999;0.51000000000000001;0.23999999999999999;0.070000000000000104;93;14;0;0;0.45000000000000001;0.55000000000000004;0.0;0.0;0;5.716688224780228;74;74;20;2;
2019_03_22 13:22;53;1;0;control;48;48;1;13;32;0;0;0.90000000000000002;0.10000000000000001;0.0;0.0;24;99;84;94;0.62;0.14999999999999999;0.20000000000000001;0.029999999999999999;1;3.3332314494655293;74;74;20;2;
2019_03_22 13:22;53;1;0;control;49;10;1;45;62;0;0;0.059999999999999998;0.93999999999999995;0.0;0.0;17;99;28;67;0.58999999999999997;0.34000000000000002;0.01;0.059999999999999998;0;9.44990087971837;74;74;20;2;
2019_03_22 13:22;53;1;0;control;50;47;1;2;40;0;0;0.45000000000000001;0.55000000000000004;0.0;0.0;93;89;11;56;0.58999999999999997;0.070000000000000007;0.28000000000000003;0.059999999999999998;1;3.2666593755020585;74;74;20;2;
2019_03_22 13:22;53;1;0;control;51;62;0;12;45;16;50;0.20999999999999999;0.76000000000000001;0.02;0.01;92;15;0;0;0.20999999999999999;0.79000000000000004;0.0;0.0;0;4.949894304841109;74;74;20;2;
2019_03_22 13:22;53;1;0;control;52;99;0;8;24;15;73;0.56000000000000005;0.35999999999999999;0.070000000000000007;0.0099999999999999499;88;12;0;0;0.52000000000000002;0.47999999999999998;0.0;0.0;1;4.866648342537701;74;74;20;2;
2019_03_22 13:22;53;1;0;control;53;98;1;27;10;31;79;0.23000000000000001;0.67000000000000004;0.070000000000000007;0.029999999999999999;25;99;0;0;0.38;0.62;0.0;0.0;1;4.333125930706046;74;74;20;2;
2019_03_22 13:22;53;1;0;control;54;102;0;40;56;53;17;0.28000000000000003;0.26000000000000001;0.14999999999999999;0.31;1;76;29;62;0.68000000000000005;0.23000000000000001;0.050000000000000003;0.039999999999999897;0;8.449837696753093;74;74;20;2;
2019_03_22 13:22;53;1;0;control;55;120;0;64;40;48;51;0.19;0.02;0.070000000000000007;0.71999999999999997;97;9;79;94;0.23000000000000001;0.54000000000000004;0.01;0.22;0;8.016576387723944;74;74;20;2;
2019_03_22 13:22;53;1;0;control;56;97;1;17;33;32;74;0.94999999999999996;0.01;0.029999999999999999;0.01;76;23;0;0;0.33000000000000002;0.67000000000000004;0.0;0.0;1;8.466581503299494;74;74;20;2;
2019_03_22 13:22;53;1;0;control;57;56;1;28;84;37;41;0.68000000000000005;0.28000000000000003;0.02;0.0199999999999999;6;95;0;0;0.72999999999999998;0.27000000000000002;0.0;0.0;0;4.3998798561488;74;74;20;2;
2019_03_22 13:22;53;1;0;control;58;140;0;36;32;26;27;0.39000000000000001;0.14999999999999999;0.19;0.27000000000000002;44;3;99;25;0.29999999999999999;0.34000000000000002;0.34000000000000002;0.0199999999999999;0;8.266562195611186;74;74;20;2;
2019_03_22 13:22;53;1;0;control;59;130;1;37;79;23;95;0.94999999999999996;0.029999999999999999;0.01;0.01;94;4;58;49;0.46000000000000002;0.5;0.029999999999999999;0.01;1;6.283255648220802;74;74;20;2;
2019_03_22 13:22;53;1;0;control;60;50;1;15;20;0;0;0.82999999999999996;0.17000000000000001;0.0;0.0;97;18;88;87;0.56999999999999995;0.39000000000000001;0.01;0.029999999999999999;1;3.199910260946126;74;74;20;2;
2019_03_22 13:22;53;1;0;control;61;147;1;39;43;76;28;0.14000000000000001;0.10000000000000001;0.10000000000000001;0.66000000000000003;6;31;68;85;0.27000000000000002;0.20000000000000001;0.22;0.31;0;9.21655849122999;74;74;20;2;
2019_03_22 13:22;53;1;0;control;62;83;0;17;12;7;41;0.65000000000000002;0.19;0.089999999999999997;0.070000000000000007;6;84;0;0;0.72999999999999998;0.27000000000000002;0.0;0.0;0;3.7000691805360475;74;74;20;2;
2019_03_22 13:22;53;1;0;control;63;53;0;26;70;50;80;0.29999999999999999;0.59999999999999998;0.040000000000000001;0.059999999999999998;89;1;0;0;0.40999999999999998;0.58999999999999997;0.0;0.0;0;4.400024824170032;74;74;20;2;
2019_03_22 13:22;53;1;0;control;64;51;1;52;23;43;16;0.60999999999999999;0.20999999999999999;0.01;0.17000000000000001;92;7;0;0;0.14999999999999999;0.84999999999999998;0.0;0.0;0;3.2832806648257247;74;74;20;2;
2019_03_22 13:22;53;1;0;control;65;28;1;47;30;0;0;0.97999999999999998;0.02;0.0;0.0;55;48;77;13;0.070000000000000007;0.26000000000000001;0.42999999999999999;0.23999999999999999;1;4.966603152284733;74;74;20;2;
2019_03_22 13:22;53;1;0;control;66;20;1;44;40;0;0;0.91000000000000003;0.089999999999999997;0.0;0.0;29;5;80;99;0.25;0.40000000000000002;0.26000000000000001;0.089999999999999997;0;4.3333029712994175;74;74;20;2;
2019_03_22 13:22;53;1;0;control;67;23;1;54;40;0;0;0.93000000000000005;0.070000000000000007;0.0;0.0;36;23;71;86;0.02;0.41999999999999998;0.19;0.37;1;4.566581535372279;74;74;20;2;
2019_03_22 13:22;53;1;0;control;68;60;0;64;59;57;96;0.83999999999999997;0.13;0.02;0.01;83;6;0;0;0.54000000000000004;0.46000000000000002;0.0;0.0;0;3.783192946343661;74;74;20;2;
2019_03_22 13:22;53;1;0;control;69;82;0;78;66;30;27;0.28999999999999998;0.58999999999999997;0.080000000000000002;0.040000000000000001;90;6;0;0;0.82999999999999996;0.17000000000000001;0.0;0.0;0;3.983266777402605;74;74;20;2;
2019_03_22 13:22;53;1;0;control;70;92;0;90;86;65;94;0.16;0.34000000000000002;0.28000000000000003;0.22;79;22;0;0;0.35999999999999999;0.64000000000000001;0.0;0.0;0;4.616612501438794;74;74;20;2;
2019_03_22 13:22;53;1;0;control;71;114;1;57;39;79;97;0.77000000000000002;0.02;0.13;0.080000000000000002;92;36;6;1;0.54000000000000004;0.12;0.13;0.20999999999999999;0;6.649922111761043;74;74;20;2;
2019_03_22 13:22;53;1;0;control;72;127;1;89;26;62;79;0.02;0.28999999999999998;0.53000000000000003;0.16;96;6;60;13;0.53000000000000003;0.25;0.17000000000000001;0.050000000000000003;1;7.833274266347871;74;74;20;2;
2019_03_22 13:22;53;1;0;control;73;101;1;30;96;61;45;0.65000000000000002;0.14000000000000001;0.11;0.10000000000000001;3;98;63;89;0.75;0.19;0.040000000000000001;0.02;0;4.766584486048487;74;74;20;2;
2019_03_22 13:22;53;1;0;control;74;106;1;85;69;22;61;0.10000000000000001;0.58999999999999997;0.17999999999999999;0.13;20;79;91;84;0.55000000000000004;0.14999999999999999;0.26000000000000001;0.039999999999999897;0;9.449870090050354;74;74;20;2;
2019_03_22 13:22;53;1;0;control;75;123;0;26;24;51;92;0.72999999999999998;0.16;0.070000000000000007;0.040000000000000001;6;90;82;49;0.64000000000000001;0.25;0.050000000000000003;0.059999999999999998;0;5.383235474572757;74;74;20;2;
2019_03_22 13:22;53;2;0;timed;1;123;1;26;24;51;92;0.72999999999999998;0.16;0.070000000000000007;0.040000000000000001;6;90;82;49;0.64000000000000001;0.25;0.050000000000000003;0.059999999999999998;0;3.8683911660600643;74;74;20;2;
2019_03_22 13:22;53;2;0;timed;2;109;0;75;28;16;56;0.19;0.070000000000000007;0.059999999999999998;0.68000000000000005;3;50;98;44;0.5;0.02;0.34999999999999998;0.13;0;3.5000517972021044;74;74;20;2;
2019_03_22 13:22;53;2;0;timed;3;53;0;26;70;50;80;0.29999999999999999;0.59999999999999998;0.040000000000000001;0.059999999999999998;89;1;0;0;0.40999999999999998;0.58999999999999997;0.0;0.0;0;3.200089546618983;74;74;20;2;
2019_03_22 13:22;53;2;0;timed;4;62;1;12;45;16;50;0.20999999999999999;0.76000000000000001;0.02;0.01;92;15;0;0;0.20999999999999999;0.79000000000000004;0.0;0.0;1;3.416748745721634;74;74;20;2;
2019_03_22 13:22;53;2;0;timed;5;54;1;44;79;78;52;0.79000000000000004;0.19;0.01;0.0099999999999999603;96;1;0;0;0.28000000000000003;0.71999999999999997;0.0;0.0;0;3.1001905431458;74;74;20;2;
2019_03_22 13:22;53;2;0;timed;6;2;1;59;32;0;0;0.080000000000000002;0.92000000000000004;0.0;0.0;33;38;85;1;0.28999999999999998;0.050000000000000003;0.070000000000000007;0.58999999999999997;0;3.6834392316186495;74;74;20;2;
2019_03_22 13:22;53;2;0;timed;7;40;0;45;49;0;0;0.68999999999999995;0.31;0.0;0.0;2;92;65;73;0.23999999999999999;0.59999999999999998;0.11;0.050000000000000003;0;3.666593755021495;74;74;20;2;
2019_03_22 13:22;53;2;0;timed;8;145;1;91;89;90;74;0.57999999999999996;0.29999999999999999;0.11;0.010000000000000101;2;75;84;39;0.32000000000000001;0.27000000000000002;0.39000000000000001;0.0199999999999999;0;3.0832645643949945;74;74;20;2;
2019_03_22 13:22;53;2;0;timed;9;99;1;8;24;15;73;0.56000000000000005;0.35999999999999999;0.070000000000000007;0.0099999999999999499;88;12;0;0;0.52000000000000002;0.47999999999999998;0.0;0.0;1;4.216755416816341;74;74;20;2;
2019_03_22 13:22;53;2;0;timed;10;9;0;61;69;0;0;0.93999999999999995;0.060000000000000102;0.0;0.0;18;93;72;16;0.40999999999999998;0.34999999999999998;0.089999999999999997;0.14999999999999999;0;3.8832847059702544;74;74;20;2;
2019_03_22 13:22;53;2;0;timed;11;82;0;78;66;30;27;0.28999999999999998;0.58999999999999997;0.080000000000000002;0.040000000000000001;90;6;0;0;0.82999999999999996;0.17000000000000001;0.0;0.0;0;2.900002533733641;74;74;20;2;
2019_03_22 13:22;53;2;0;timed;12;1;0;22;51;0;0;0.26000000000000001;0.73999999999999999;0.0;0.0;14;11;92;31;0.29999999999999999;0.40999999999999998;0.14999999999999999;0.14000000000000001;1;3.23350660005417;74;74;20;2;
2019_03_22 13:22;53;2;0;timed;13;146;1;25;5;64;35;0.94999999999999996;0.02;0.01;0.02;47;97;12;79;0.20999999999999999;0.029999999999999999;0.02;0.73999999999999999;1;2.4667437905100087;74;74;20;2;
2019_03_22 13:22;53;2;0;timed;14;50;1;15;20;0;0;0.82999999999999996;0.17000000000000001;0.0;0.0;97;18;88;87;0.56999999999999995;0.39000000000000001;0.01;0.029999999999999999;1;2.4332699686228807;74;74;20;2;
2019_03_22 13:22;53;2;0;timed;15;72;1;63;82;51;61;0.01;0.96999999999999997;0.01;0.01;92;12;0;0;0.89000000000000001;0.11;0.0;0.0;0;2.4332792696695833;74;74;20;2;
2019_03_22 13:22;53;2;0;timed;16;66;0;89;23;27;15;0.070000000000000007;0.54000000000000004;0.17000000000000001;0.22;9;73;0;0;0.72999999999999998;0.27000000000000002;0.0;0.0;0;1.9999406657425425;74;74;20;2;
2019_03_22 13:22;53;2;0;timed;17;11;1;17;36;0;0;0.14000000000000001;0.85999999999999999;0.0;0.0;19;41;34;95;0.88;0.02;0.050000000000000003;0.050000000000000003;1;2.383193138779461;74;74;20;2;
2019_03_22 13:22;53;2;0;timed;18;137;1;71;22;28;17;0.25;0.46000000000000002;0.050000000000000003;0.23999999999999999;3;98;92;69;0.42999999999999999;0.23999999999999999;0.20000000000000001;0.13;0;3.4166220590659577;74;74;20;2;
2019_03_22 13:22;53;2;0;timed;19;24;1;35;27;0;0;0.070000000000000007;0.93000000000000005;0.0;0.0;62;3;81;95;0.35999999999999999;0.55000000000000004;0.01;0.080000000000000002;0;2.333511763737988;74;74;20;2;
2019_03_22 13:22;53;2;0;timed;20;70;0;66;55;69;50;0.22;0.29999999999999999;0.29999999999999999;0.17999999999999999;2;90;0;0;0.34000000000000002;0.66000000000000003;0.0;0.0;0;1.4332699686237902;74;74;20;2;
2019_03_22 13:22;53;2;0;timed;21;130;1;37;79;23;95;0.94999999999999996;0.029999999999999999;0.01;0.01;94;4;58;49;0.46000000000000002;0.5;0.029999999999999999;0.01;0;3.7334753292971072;74;74;20;2;
2019_03_22 13:22;53;2;0;timed;22;31;0;10;59;0;0;0.23999999999999999;0.76000000000000001;0.0;0.0;1;79;53;73;0.23000000000000001;0.58999999999999997;0.050000000000000003;0.13;0;1.2667674600679675;74;74;20;2;
2019_03_22 13:22;53;2;0;timed;23;39;0;14;33;0;0;0.78000000000000003;0.22;0.0;0.0;93;84;1;25;0.14000000000000001;0.23999999999999999;0.39000000000000001;0.23000000000000001;0;2.3667299672315494;74;74;20;2;
2019_03_22 13:22;53;2;0;timed;24;110;0;47;44;23;52;0.13;0.27000000000000002;0.040000000000000001;0.56000000000000005;99;2;30;22;0.28999999999999998;0.5;0.11;0.10000000000000001;0;2.3501067535535185;74;74;20;2;
2019_03_22 13:22;53;2;0;timed;25;88;1;77;13;12;7;0.12;0.19;0.66000000000000003;0.029999999999999898;94;2;0;0;0.40999999999999998;0.58999999999999997;0.0;0.0;0;1.8499356463853474;74;74;20;2;
2019_03_22 13:22;53;2;0;timed;26;87;1;10;30;63;4;0.56999999999999995;0.12;0.16;0.14999999999999999;86;2;0;0;0.42999999999999999;0.56999999999999995;0.0;0.0;0;2.2332564339985765;74;74;20;2;
2019_03_22 13:22;53;2;0;timed;27;120;0;64;40;48;51;0.19;0.02;0.070000000000000007;0.71999999999999997;97;9;79;94;0.23000000000000001;0.54000000000000004;0.01;0.22;0;2.3334248470700913;74;74;20;2;
2019_03_22 13:22;53;2;0;timed;28;60;1;64;59;57;96;0.83999999999999997;0.13;0.02;0.01;83;6;0;0;0.54000000000000004;0.46000000000000002;0.0;0.0;0;1.9999153284124986;74;74;20;2;
2019_03_22 13:22;53;2;0;timed;29;86;0;56;30;57;88;0.20000000000000001;0.35999999999999999;0.080000000000000002;0.35999999999999999;98;2;0;0;0.77000000000000002;0.23000000000000001;0.0;0.0;0;1.7332989301548878;74;74;20;2;
2019_03_22 13:22;53;2;0;timed;30;63;0;56;78;42;36;0.93000000000000005;0.040000000000000001;0.01;0.0199999999999999;2;72;0;0;0.32000000000000001;0.68000000000000005;0.0;0.0;0;1.8166010194590854;74;74;20;2;
2019_03_22 13:22;53;2;0;timed;31;85;0;31;22;82;50;0.11;0.69999999999999996;0.01;0.17999999999999999;3;99;0;0;0.62;0.38;0.0;0.0;0;1.6332341114894007;74;74;20;2;
2019_03_22 13:22;53;2;0;timed;32;34;0;32;48;0;0;0.28000000000000003;0.71999999999999997;0.0;0.0;97;83;7;62;0.040000000000000001;0.54000000000000004;0.35999999999999999;0.059999999999999901;0;2.9167139469827816;74;74;20;2;
2019_03_22 13:22;53;2;0;timed;33;97;1;17;33;32;74;0.94999999999999996;0.01;0.029999999999999999;0.01;76;23;0;0;0.33000000000000002;0.67000000000000004;0.0;0.0;1;2.3665724909060373;74;74;20;2;
2019_03_22 13:22;53;2;0;timed;34;114;1;57;39;79;97;0.77000000000000002;0.02;0.13;0.080000000000000002;92;36;6;1;0.54000000000000004;0.12;0.13;0.20999999999999999;0;2.4166105129397693;74;74;20;2;
2019_03_22 13:22;53;2;0;timed;35;76;0;39;62;9;28;0.01;0.51000000000000001;0.26000000000000001;0.22;77;7;0;0;0.57999999999999996;0.41999999999999998;0.0;0.0;0;2.7666265011166615;74;74;20;2;
2019_03_22 13:22;53;2;0;timed;36;75;1;67;80;36;81;0.81999999999999995;0.080000000000000002;0.059999999999999998;0.040000000000000001;3;97;0;0;0.32000000000000001;0.68000000000000005;0.0;0.0;0;1.516791755039776;74;74;20;2;
2019_03_22 13:22;53;2;0;timed;37;144;0;99;93;90;71;0.65000000000000002;0.32000000000000001;0.01;0.02;97;14;48;73;0.23000000000000001;0.46000000000000002;0.13;0.17999999999999999;1;3.683253852155758;74;74;20;2;
2019_03_22 13:22;53;2;0;timed;38;143;0;88;44;56;73;0.95999999999999996;0.02;0.01;0.01;20;3;87;32;0.19;0.40000000000000002;0.28000000000000003;0.13;0;1.4499470642213055;74;74;20;2;
2019_03_22 13:22;53;2;0;timed;39;105;0;49;74;63;58;0.84999999999999998;0.080000000000000002;0.02;0.050000000000000003;97;5;86;8;0.25;0.52000000000000002;0.070000000000000007;0.16;0;2.083330633891819;74;74;20;2;
2019_03_22 13:22;53;2;0;timed;40;10;0;45;62;0;0;0.059999999999999998;0.93999999999999995;0.0;0.0;17;99;28;67;0.58999999999999997;0.34000000000000002;0.01;0.059999999999999998;0;3.7665876933060645;74;74;20;2;
2019_03_22 13:22;53;2;0;timed;41;133;1;59;88;60;36;0.67000000000000004;0.070000000000000007;0.12;0.14000000000000001;7;91;66;61;0.25;0.68999999999999995;0.01;0.0500000000000001;0;3.666564889706933;74;74;20;2;
2019_03_22 13:22;53;2;0;timed;42;131;1;83;41;81;88;0.23999999999999999;0.58999999999999997;0.10000000000000001;0.070000000000000007;82;97;4;17;0.26000000000000001;0.46999999999999997;0.11;0.16;0;2.8999403129446364;74;74;20;2;
2019_03_22 13:22;53;2;0;timed;43;135;0;48;60;41;51;0.14000000000000001;0.40000000000000002;0.089999999999999997;0.37;94;1;85;65;0.64000000000000001;0.29999999999999999;0.01;0.050000000000000003;0;1.266741802010074;74;74;20;2;
2019_03_22 13:22;53;2;0;timed;44;102;1;40;56;53;17;0.28000000000000003;0.26000000000000001;0.14999999999999999;0.31;1;76;29;62;0.68000000000000005;0.23000000000000001;0.050000000000000003;0.039999999999999897;0;1.5999629882526278;74;74;20;2;
2019_03_22 13:22;53;2;0;timed;45;83;1;17;12;7;41;0.65000000000000002;0.19;0.089999999999999997;0.070000000000000007;6;84;0;0;0.72999999999999998;0.27000000000000002;0.0;0.0;1;1.5332597374726902;74;74;20;2;
2019_03_22 13:22;53;2;0;timed;46;32;0;19;81;0;0;0.93000000000000005;0.070000000000000007;0.0;0.0;1;65;41;68;0.45000000000000001;0.050000000000000003;0.059999999999999998;0.44;0;2.1998887723229927;74;74;20;2;
2019_03_22 13:22;53;2;0;timed;47;33;0;27;70;0;0;0.88;0.12;0.0;0.0;93;3;77;16;0.080000000000000002;0.40000000000000002;0.5;0.02;0;1.7333884126292105;74;74;20;2;
2019_03_22 13:22;53;2;0;timed;48;57;1;52;35;23;47;0.22;0.68000000000000005;0.040000000000000001;0.059999999999999998;71;7;0;0;0.28999999999999998;0.70999999999999996;0.0;0.0;0;3.2665435935196;74;74;20;2;
2019_03_22 13:22;53;2;0;timed;49;134;1;57;48;50;55;0.02;0.62;0.17999999999999999;0.17999999999999999;80;96;15;18;0.23999999999999999;0.35999999999999999;0.33000000000000002;0.070000000000000007;0;3.3499249020742354;74;74;20;2;
2019_03_22 13:22;53;2;0;timed;50;117;0;65;85;92;41;0.23000000000000001;0.17999999999999999;0.54000000000000004;0.050000000000000003;99;93;10;13;0.64000000000000001;0.16;0.01;0.19;0;3.650096586548898;74;74;20;2;
2019_03_22 13:22;53;2;0;timed;51;43;1;60;83;0;0;0.23000000000000001;0.77000000000000002;0.0;0.0;72;5;70;12;0.29999999999999999;0.40999999999999998;0.12;0.17000000000000001;0;1.2666042106793611;74;74;20;2;
2019_03_22 13:22;53;2;0;timed;52;142;0;98;65;64;84;0.88;0.070000000000000007;0.01;0.040000000000000001;5;68;60;16;0.46000000000000002;0.080000000000000002;0.27000000000000002;0.19;0;3.433275420960854;74;74;20;2;
2019_03_22 13:22;53;2;0;timed;53;113;1;85;65;39;64;0.44;0.34000000000000002;0.13;0.089999999999999997;87;2;4;35;0.67000000000000004;0.17000000000000001;0.11;0.049999999999999899;0;1.4832634097820119;74;74;20;2;
2019_03_22 13:22;53;2;0;timed;54;115;1;50;28;61;79;0.83999999999999997;0.040000000000000001;0.059999999999999998;0.059999999999999998;1;26;97;55;0.45000000000000001;0.080000000000000002;0.40999999999999998;0.060000000000000102;0;1.9333137476833144;74;74;20;2;
2019_03_22 13:22;53;2;0;timed;55;127;1;89;26;62;79;0.02;0.28999999999999998;0.53000000000000003;0.16;96;6;60;13;0.53000000000000003;0.25;0.17000000000000001;0.050000000000000003;0;2.783444074576437;74;74;20;2;
2019_03_22 13:22;53;2;0;timed;56;59;0;56;47;83;90;0.31;0.12;0.54000000000000004;0.029999999999999898;10;98;0;0;0.46999999999999997;0.53000000000000003;0.0;0.0;0;3.2000731896077923;74;74;20;2;
2019_03_22 13:22;53;2;0;timed;57;46;0;5;19;0;0;0.32000000000000001;0.68000000000000005;0.0;0.0;88;38;97;66;0.60999999999999999;0.20000000000000001;0.040000000000000001;0.14999999999999999;1;1.333296236059141;74;74;20;2;
2019_03_22 13:22;53;2;0;timed;58;74;0;66;47;52;44;0.41999999999999998;0.26000000000000001;0.17999999999999999;0.14000000000000001;17;99;0;0;0.47999999999999998;0.52000000000000002;0.0;0.0;0;1.9665996243020345;74;74;20;2;
2019_03_22 13:22;53;2;0;timed;59;67;1;44;42;8;89;0.88;0.070000000000000007;0.029999999999999999;0.02;10;63;0;0;0.39000000000000001;0.60999999999999999;0.0;0.0;1;2.133249025234363;74;74;20;2;
2019_03_22 13:22;53;2;0;timed;60;16;0;64;53;0;0;0.65000000000000002;0.34999999999999998;0.0;0.0;29;17;81;46;0.10000000000000001;0.01;0.44;0.45000000000000001;1;3.0000612586109128;74;74;20;2;
2019_03_22 13:22;53;2;0;timed;61;15;0;77;81;0;0;0.28000000000000003;0.71999999999999997;0.0;0.0;98;14;87;18;0.55000000000000004;0.23000000000000001;0.16;0.059999999999999901;1;3.5665475384466845;74;74;20;2;
2019_03_22 13:22;53;2;0;timed;62;94;1;84;86;93;39;0.78000000000000003;0.20000000000000001;0.01;0.0099999999999999603;9;83;0;0;0.46999999999999997;0.53000000000000003;0.0;0.0;0;1.583259913872098;74;74;20;2;
2019_03_22 13:22;53;2;0;timed;63;49;1;21;30;0;0;0.53000000000000003;0.46999999999999997;0.0;0.0;93;99;89;25;0.44;0.02;0.11;0.42999999999999999;1;2.0666124854033114;74;74;20;2;
2019_03_22 13:22;53;2;0;timed;64;107;1;52;48;13;63;0.68000000000000005;0.19;0.050000000000000003;0.079999999999999905;54;91;33;3;0.19;0.17999999999999999;0.33000000000000002;0.29999999999999999;0;3.6166003138623637;74;74;20;2;
2019_03_22 13:22;53;2;0;timed;65;56;0;28;84;37;41;0.68000000000000005;0.28000000000000003;0.02;0.0199999999999999;6;95;0;0;0.72999999999999998;0.27000000000000002;0.0;0.0;0;1.1332650615195234;74;74;20;2;
2019_03_22 13:22;53;2;0;timed;66;35;1;33;37;0;0;0.88;0.12;0.0;0.0;63;4;79;98;0.16;0.46000000000000002;0.17000000000000001;0.20999999999999999;0;3.8665896497323047;74;74;20;2;
2019_03_22 13:22;53;2;0;timed;67;30;0;33;30;0;0;0.71999999999999997;0.28000000000000003;0.0;0.0;9;88;1;14;0.55000000000000004;0.39000000000000001;0.01;0.049999999999999899;0;1.533404705495741;74;74;20;2;
2019_03_22 13:22;53;2;0;timed;68;8;0;50;36;0;0;0.080000000000000002;0.92000000000000004;0.0;0.0;6;19;84;29;0.54000000000000004;0.070000000000000007;0.17000000000000001;0.22;0;1.4332853634577987;74;74;20;2;
2019_03_22 13:22;53;2;0;timed;69;91;0;74;81;86;48;0.93000000000000005;0.02;0.01;0.039999999999999897;7;64;0;0;0.13;0.87;0.0;0.0;0;1.6332575244659893;74;74;20;2;
2019_03_22 13:22;53;2;0;timed;70;37;0;14;98;0;0;0.93000000000000005;0.070000000000000007;0.0;0.0;41;2;87;66;0.17999999999999999;0.48999999999999999;0.32000000000000001;0.010000000000000101;0;1.9165705825889745;74;74;20;2;
2019_03_22 13:22;53;2;0;timed;71;139;0;44;31;16;8;0.79000000000000004;0.070000000000000007;0.13;0.0099999999999999499;92;58;2;88;0.55000000000000004;0.070000000000000007;0.34000000000000002;0.039999999999999897;0;2.86657970723536;74;74;20;2;
2019_03_22 13:22;53;2;0;timed;72;17;0;81;52;0;0;0.059999999999999998;0.93999999999999995;0.0;0.0;34;3;69;41;0.01;0.22;0.75;0.02;0;2.5165864905839044;74;74;20;2;
2019_03_22 13:22;53;2;0;timed;73;79;0;52;46;29;22;0.17999999999999999;0.51000000000000001;0.23999999999999999;0.070000000000000104;93;14;0;0;0.45000000000000001;0.55000000000000004;0.0;0.0;NA;4.733244406784252;74;74;20;2;
2019_03_22 13:22;53;2;0;timed;74;68;1;84;27;55;62;0.01;0.050000000000000003;0.40999999999999998;0.53000000000000003;9;82;0;0;0.37;0.63;0.0;0.0;1;0.4000706879478457;74;74;20;2;
2019_03_22 13:22;53;2;0;timed;75;58;0;37;58;76;34;0.20999999999999999;0.57999999999999996;0.19;0.020000000000000101;86;5;0;0;0.47999999999999998;0.52000000000000002;0.0;0.0;0;1.5833493963455112;74;74;20;2;
2019_03_22 13:22;53;3;0;control;1;33;0;27;70;0;0;0.88;0.12;0.0;0.0;93;3;77;16;0.080000000000000002;0.40000000000000002;0.5;0.02;0;3.827349820987365;74;74;20;2;
2019_03_22 13:22;53;3;0;control;2;37;0;14;98;0;0;0.93000000000000005;0.070000000000000007;0.0;0.0;41;2;87;66;0.17999999999999999;0.48999999999999999;0.32000000000000001;0.010000000000000101;0;4.400061386901143;74;74;20;2;
2019_03_22 13:22;53;3;0;control;3;87;0;10;30;63;4;0.56999999999999995;0.12;0.16;0.14999999999999999;86;2;0;0;0.42999999999999999;0.56999999999999995;0.0;0.0;0;2.266584004959441;74;74;20;2;
2019_03_22 13:22;53;3;0;control;4;94;1;84;86;93;39;0.78000000000000003;0.20000000000000001;0.01;0.0099999999999999603;9;83;0;0;0.46999999999999997;0.53000000000000003;0.0;0.0;0;1.5332109871651483;74;74;20;2;
2019_03_22 13:22;53;3;0;control;5;74;1;66;47;52;44;0.41999999999999998;0.26000000000000001;0.17999999999999999;0.14000000000000001;17;99;0;0;0.47999999999999998;0.52000000000000002;0.0;0.0;0;3.316729790833051;74;74;20;2;
2019_03_22 13:22;53;3;0;control;6;146;0;25;5;64;35;0.94999999999999996;0.02;0.01;0.02;47;97;12;79;0.20999999999999999;0.029999999999999999;0.02;0.73999999999999999;1;5.066718966339067;74;74;20;2;
2019_03_22 13:22;53;3;0;control;7;6;1;9;51;0;0;0.14999999999999999;0.84999999999999998;0.0;0.0;6;40;50;73;0.42999999999999999;0.26000000000000001;0.059999999999999998;0.25;1;1.5832618382264627;74;74;20;2;
2019_03_22 13:22;53;3;0;control;8;89;0;26;41;13;56;0.059999999999999998;0.40999999999999998;0.050000000000000003;0.47999999999999998;5;97;0;0;0.37;0.63;0.0;0.0;0;2.9999252709094435;74;74;20;2;
2019_03_22 13:22;53;3;0;control;9;64;1;48;39;34;19;0.46000000000000002;0.5;0.02;0.02;13;92;0;0;0.68999999999999995;0.31;0.0;0.0;0;2.4833448741137545;74;74;20;2;
2019_03_22 13:22;53;3;0;control;10;35;0;33;37;0;0;0.88;0.12;0.0;0.0;63;4;79;98;0.16;0.46000000000000002;0.17000000000000001;0.20999999999999999;0;2.5333562759124106;74;74;20;2;
2019_03_22 13:22;53;3;0;control;11;137;1;71;22;28;17;0.25;0.46000000000000002;0.050000000000000003;0.23999999999999999;3;98;92;69;0.42999999999999999;0.23999999999999999;0.20000000000000001;0.13;0;3.6169226432039068;74;74;20;2;
2019_03_22 13:22;53;3;0;control;12;122;1;35;58;25;31;0.81999999999999995;0.070000000000000007;0.080000000000000002;0.029999999999999999;18;64;68;89;0.63;0.17000000000000001;0.11;0.089999999999999997;0;4.616624047564983;74;74;20;2;
2019_03_22 13:22;53;3;0;control;13;111;1;51;36;48;27;0.93000000000000005;0.01;0.01;0.049999999999999899;31;78;30;53;0.55000000000000004;0.16;0.029999999999999999;0.26000000000000001;1;4.450077599585711;74;74;20;2;
2019_03_22 13:22;53;3;0;control;14;104;0;55;85;93;3;0.87;0.02;0.089999999999999997;0.02;1;2;90;8;0.35999999999999999;0.070000000000000007;0.40000000000000002;0.17000000000000001;0;1.816744383851983;74;74;20;2;
2019_03_22 13:22;53;3;0;control;15;14;1;36;40;0;0;0.54000000000000004;0.46000000000000002;0.0;0.0;99;70;1;11;0.16;0.089999999999999997;0.080000000000000002;0.67000000000000004;0;4.266643018490868;74;74;20;2;
2019_03_22 13:22;53;3;0;control;16;29;0;44;51;0;0;0.78000000000000003;0.22;0.0;0.0;74;1;68;82;0.69999999999999996;0.28000000000000003;0.01;0.01;0;2.0500457194502815;74;74;20;2;
2019_03_22 13:22;53;3;0;control;17;128;1;70;49;27;54;0.27000000000000002;0.53000000000000003;0.02;0.17999999999999999;72;97;6;20;0.29999999999999999;0.39000000000000001;0.22;0.0899999999999999;0;4.066654821197517;74;74;20;2;
2019_03_22 13:22;53;3;0;control;18;66;1;89;23;27;15;0.070000000000000007;0.54000000000000004;0.17000000000000001;0.22;9;73;0;0;0.72999999999999998;0.27000000000000002;0.0;0.0;0;2.250208070806366;74;74;20;2;
2019_03_22 13:22;53;3;0;control;19;124;0;37;65;15;41;0.17999999999999999;0.45000000000000001;0.02;0.34999999999999998;40;7;98;30;0.070000000000000007;0.45000000000000001;0.45000000000000001;0.029999999999999898;0;4.716558330866974;74;74;20;2;
2019_03_22 13:22;53;3;0;control;20;86;1;56;30;57;88;0.20000000000000001;0.35999999999999999;0.080000000000000002;0.35999999999999999;98;2;0;0;0.77000000000000002;0.23000000000000001;0.0;0.0;0;1.6334040961164646;74;74;20;2;
2019_03_22 13:22;53;3;0;control;21;75;1;67;80;36;81;0.81999999999999995;0.080000000000000002;0.059999999999999998;0.040000000000000001;3;97;0;0;0.32000000000000001;0.68000000000000005;0.0;0.0;0;2.7167671233055444;74;74;20;2;
2019_03_22 13:22;53;3;0;control;22;70;0;66;55;69;50;0.22;0.29999999999999999;0.29999999999999999;0.17999999999999999;2;90;0;0;0.34000000000000002;0.66000000000000003;0.0;0.0;0;1.3999840920041606;74;74;20;2;
2019_03_22 13:22;53;3;0;control;23;141;0;93;28;60;91;0.81999999999999995;0.10000000000000001;0.01;0.070000000000000007;14;85;7;89;0.45000000000000001;0.070000000000000007;0.23999999999999999;0.23999999999999999;0;1.6333553458080132;74;74;20;2;
2019_03_22 13:22;53;3;0;control;24;12;0;53;68;0;0;0.31;0.68999999999999995;0.0;0.0;69;54;97;29;0.25;0.20999999999999999;0.20000000000000001;0.34000000000000002;1;5.6999274197705745;74;74;20;2;
2019_03_22 13:22;53;3;0;control;25;112;0;70;44;98;64;0.02;0.75;0.12;0.11;33;2;63;85;0.23999999999999999;0.31;0.080000000000000002;0.37;0;2.0832886188236444;74;74;20;2;
2019_03_22 13:22;53;3;0;control;26;3;1;53;40;0;0;0.31;0.68999999999999995;0.0;0.0;96;24;7;88;0.11;0.27000000000000002;0.58999999999999997;0.029999999999999999;0;2.633068296295278;74;74;20;2;
2019_03_22 13:22;53;3;0;control;27;1;1;22;51;0;0;0.26000000000000001;0.73999999999999999;0.0;0.0;14;11;92;31;0.29999999999999999;0.40999999999999998;0.14999999999999999;0.14000000000000001;1;1.7165695562662222;74;74;20;2;
2019_03_22 13:22;53;3;0;control;28;129;1;12;29;81;36;0.17999999999999999;0.79000000000000004;0.01;0.02;5;19;95;92;0.47999999999999998;0.26000000000000001;0.13;0.13;0;4.8832564821068445;74;74;20;2;
2019_03_22 13:22;53;3;0;control;29;24;1;35;27;0;0;0.070000000000000007;0.93000000000000005;0.0;0.0;62;3;81;95;0.35999999999999999;0.55000000000000004;0.01;0.080000000000000002;0;3.933237735689545;74;74;20;2;
2019_03_22 13:22;53;3;0;control;30;43;1;60;83;0;0;0.23000000000000001;0.77000000000000002;0.0;0.0;72;5;70;12;0.29999999999999999;0.40999999999999998;0.12;0.17000000000000001;0;2.9999326475999624;74;74;20;2;
2019_03_22 13:22;53;3;0;control;31;119;0;60;58;11;18;0.25;0.72999999999999998;0.01;0.01;96;23;42;85;0.44;0.48999999999999999;0.059999999999999998;0.010000000000000101;0;8.183278387673454;74;74;20;2;
2019_03_22 13:22;53;3;0;control;32;73;0;65;68;70;47;0.25;0.23000000000000001;0.20999999999999999;0.31;27;95;0;0;0.45000000000000001;0.55000000000000004;0.0;0.0;0;3.716642040277293;74;74;20;2;
2019_03_22 13:22;53;3;0;control;33;113;1;85;65;39;64;0.44;0.34000000000000002;0.13;0.089999999999999997;87;2;4;35;0.67000000000000004;0.17000000000000001;0.11;0.049999999999999899;0;3.283219406214812;74;74;20;2;
2019_03_22 13:22;53;3;0;control;34;59;1;56;47;83;90;0.31;0.12;0.54000000000000004;0.029999999999999898;10;98;0;0;0.46999999999999997;0.53000000000000003;0.0;0.0;0;3.5333954044490383;74;74;20;2;
2019_03_22 13:22;53;3;0;control;35;103;0;38;49;89;50;0.89000000000000001;0.070000000000000007;0.01;0.029999999999999999;6;64;99;27;0.70999999999999996;0.17999999999999999;0.059999999999999998;0.050000000000000003;1;7.033206015916221;74;74;20;2;
2019_03_22 13:22;53;3;0;control;36;148;1;37;63;55;10;0.72999999999999998;0.070000000000000007;0.029999999999999999;0.17000000000000001;80;14;23;70;0.46999999999999997;0.10000000000000001;0.23000000000000001;0.20000000000000001;0;6.349907582885862;74;74;20;2;
2019_03_22 13:22;53;3;0;control;37;44;0;79;74;0;0;0.71999999999999997;0.28000000000000003;0.0;0.0;3;67;15;36;0.41999999999999998;0.53000000000000003;0.02;0.029999999999999999;0;3.366575698163615;74;74;20;2;
2019_03_22 13:22;53;3;0;control;38;52;1;71;51;10;54;0.22;0.12;0.19;0.46999999999999997;91;1;0;0;0.29999999999999999;0.69999999999999996;0.0;0.0;0;1.4332789489435527;74;74;20;2;
2019_03_22 13:22;53;3;0;control;39;26;1;76;41;0;0;0.57999999999999996;0.41999999999999998;0.0;0.0;61;79;84;2;0.13;0.029999999999999999;0.67000000000000004;0.17000000000000001;0;2.200067737269819;74;74;20;2;
2019_03_22 13:22;53;3;0;control;40;55;0;74;55;47;48;0.60999999999999999;0.31;0.070000000000000007;0.01;97;6;0;0;0.42999999999999999;0.56999999999999995;0.0;0.0;0;3.4166137201964375;74;74;20;2;
2019_03_22 13:22;53;3;0;control;41;21;1;64;28;0;0;0.080000000000000002;0.92000000000000004;0.0;0.0;50;1;88;13;0.57999999999999996;0.13;0.02;0.27000000000000002;1;5.916758527855563;74;74;20;2;
2019_03_22 13:22;53;3;0;control;42;42;1;70;48;0;0;0.79000000000000004;0.20999999999999999;0.0;0.0;51;8;12;67;0.19;0.26000000000000001;0.28999999999999998;0.26000000000000001;0;3.266781571998763;74;74;20;2;
2019_03_22 13:22;53;3;0;control;43;25;0;50;53;0;0;0.82999999999999996;0.17000000000000001;0.0;0.0;83;16;97;4;0.45000000000000001;0.29999999999999999;0.11;0.14000000000000001;0;4.066703571505059;74;74;20;2;
2019_03_22 13:22;53;3;0;control;44;71;0;68;55;36;51;0.20000000000000001;0.75;0.02;0.029999999999999999;38;81;0;0;0.52000000000000002;0.47999999999999998;0.0;0.0;1;3.183259144130716;74;74;20;2;
2019_03_22 13:22;53;3;0;control;45;81;0;67;38;52;65;0.27000000000000002;0.35999999999999999;0.01;0.35999999999999999;2;77;0;0;0.14000000000000001;0.85999999999999999;0.0;0.0;0;7.56657383795482;74;74;20;2;
2019_03_22 13:22;53;3;0;control;46;65;0;75;64;59;52;0.59999999999999998;0.22;0.14000000000000001;0.040000000000000001;1;99;0;0;0.35999999999999999;0.64000000000000001;0.0;0.0;0;3.4331913908235947;74;74;20;2;
2019_03_22 13:22;53;3;0;control;47;7;1;49;29;0;0;0.95999999999999996;0.040000000000000001;0.0;0.0;23;99;64;25;0.68999999999999995;0.12;0.059999999999999998;0.13;1;4.80008813542554;74;74;20;2;
2019_03_22 13:22;53;3;0;control;48;4;1;40;43;0;0;0.58999999999999997;0.40999999999999998;0.0;0.0;2;33;88;81;0.69999999999999996;0.14000000000000001;0.13;0.029999999999999999;0;4.683414535738848;74;74;20;2;
2019_03_22 13:22;53;3;0;control;49;139;1;44;31;16;8;0.79000000000000004;0.070000000000000007;0.13;0.0099999999999999499;92;58;2;88;0.55000000000000004;0.070000000000000007;0.34000000000000002;0.039999999999999897;0;6.883269952587398;74;74;20;2;
2019_03_22 13:22;53;3;0;control;50;117;1;65;85;92;41;0.23000000000000001;0.17999999999999999;0.54000000000000004;0.050000000000000003;99;93;10;13;0.64000000000000001;0.16;0.01;0.19;0;3.766569411940509;74;74;20;2;
2019_03_22 13:22;53;3;0;control;51;49;0;21;30;0;0;0.53000000000000003;0.46999999999999997;0.0;0.0;93;99;89;25;0.44;0.02;0.11;0.42999999999999999;1;8.533464039752289;74;74;20;2;
2019_03_22 13:22;53;3;0;control;52;22;1;32;55;0;0;0.39000000000000001;0.60999999999999999;0.0;0.0;93;72;59;22;0.20000000000000001;0.11;0.14000000000000001;0.55000000000000004;0;9.249885420739702;74;74;20;2;
2019_03_22 13:22;53;3;0;control;53;15;1;77;81;0;0;0.28000000000000003;0.71999999999999997;0.0;0.0;98;14;87;18;0.55000000000000004;0.23000000000000001;0.16;0.059999999999999901;0;3.8833264003123986;74;74;20;2;
2019_03_22 13:22;53;3;0;control;54;67;1;44;42;8;89;0.88;0.070000000000000007;0.029999999999999999;0.02;10;63;0;0;0.39000000000000001;0.60999999999999999;0.0;0.0;1;7.383339068978785;74;74;20;2;
2019_03_22 13:22;53;3;0;control;55;95;0;93;88;68;85;0.83999999999999997;0.14000000000000001;0.01;0.01;2;82;0;0;0.41999999999999998;0.57999999999999996;0.0;0.0;0;1.9999813979084138;74;74;20;2;
2019_03_22 13:22;53;3;0;control;56;69;0;54;34;64;49;0.34000000000000002;0.25;0.20999999999999999;0.20000000000000001;14;98;0;0;0.62;0.38;0.0;0.0;0;4.133342677141627;74;74;20;2;
2019_03_22 13:22;53;3;0;control;57;78;0;74;36;34;3;0.14999999999999999;0.64000000000000001;0.13;0.080000000000000002;1;83;0;0;0.41999999999999998;0.57999999999999996;0.0;0.0;0;5.966776023444254;74;74;20;2;
2019_03_22 13:22;53;3;0;control;58;16;1;64;53;0;0;0.65000000000000002;0.34999999999999998;0.0;0.0;29;17;81;46;0.10000000000000001;0.01;0.44;0.45000000000000001;0;4.149848825934896;74;74;20;2;
2019_03_22 13:22;53;3;0;control;59;115;1;50;28;61;79;0.83999999999999997;0.040000000000000001;0.059999999999999998;0.059999999999999998;1;26;97;55;0.45000000000000001;0.080000000000000002;0.40999999999999998;0.060000000000000102;0;7.716565707557493;74;74;20;2;
2019_03_22 13:22;53;3;0;control;60;38;0;40;70;0;0;0.53000000000000003;0.46999999999999997;0.0;0.0;97;90;6;96;0.56999999999999995;0.070000000000000007;0.27000000000000002;0.089999999999999997;0;4.366625410649249;74;74;20;2;
2019_03_22 13:22;53;3;0;control;61;30;0;33;30;0;0;0.71999999999999997;0.28000000000000003;0.0;0.0;9;88;1;14;0.55000000000000004;0.39000000000000001;0.01;0.049999999999999899;0;2.6332918421176146;74;74;20;2;
2019_03_22 13:22;53;3;0;control;62;17;1;81;52;0;0;0.059999999999999998;0.93999999999999995;0.0;0.0;34;3;69;41;0.01;0.22;0.75;0.02;0;6.649888114834539;74;74;20;2;
2019_03_22 13:22;53;3;0;control;63;131;0;83;41;81;88;0.23999999999999999;0.58999999999999997;0.10000000000000001;0.070000000000000007;82;97;4;17;0.26000000000000001;0.46999999999999997;0.11;0.16;0;4.449930386484084;74;74;20;2;
2019_03_22 13:22;53;3;0;control;64;108;1;48;72;39;70;0.14000000000000001;0.66000000000000003;0.02;0.17999999999999999;81;44;98;8;0.59999999999999998;0.029999999999999999;0.050000000000000003;0.32000000000000001;0;4.549903477596672;74;74;20;2;
2019_03_22 13:22;53;3;0;control;65;54;1;44;79;78;52;0.79000000000000004;0.19;0.01;0.0099999999999999603;96;1;0;0;0.28000000000000003;0.71999999999999997;0.0;0.0;0;1.7333172115213529;74;74;20;2;
2019_03_22 13:22;53;3;0;control;66;72;1;63;82;51;61;0.01;0.96999999999999997;0.01;0.01;92;12;0;0;0.89000000000000001;0.11;0.0;0.0;0;7.749907390450971;74;74;20;2;
2019_03_22 13:22;53;3;0;control;67;41;1;99;40;0;0;0.89000000000000001;0.11;0.0;0.0;1;67;52;46;0.51000000000000001;0.38;0.029999999999999999;0.080000000000000002;0;1.9669120111457232;74;74;20;2;
2019_03_22 13:22;53;3;0;control;68;134;0;57;48;50;55;0.02;0.62;0.17999999999999999;0.17999999999999999;80;96;15;18;0.23999999999999999;0.35999999999999999;0.33000000000000002;0.070000000000000007;0;7.683255135058971;74;74;20;2;
2019_03_22 13:22;53;3;0;control;69;32;1;19;81;0;0;0.93000000000000005;0.070000000000000007;0.0;0.0;1;65;41;68;0.45000000000000001;0.050000000000000003;0.059999999999999998;0.44;0;5.749963196724821;74;74;20;2;
2019_03_22 13:22;53;3;0;control;70;85;1;31;22;82;50;0.11;0.69999999999999996;0.01;0.17999999999999999;3;99;0;0;0.62;0.38;0.0;0.0;0;5.183370756678414;74;74;20;2;
2019_03_22 13:22;53;3;0;control;71;58;1;37;58;76;34;0.20999999999999999;0.57999999999999996;0.19;0.020000000000000101;86;5;0;0;0.47999999999999998;0.52000000000000002;0.0;0.0;0;3.966715727009614;74;74;20;2;
2019_03_22 13:22;53;3;0;control;72;63;1;56;78;42;36;0.93000000000000005;0.040000000000000001;0.01;0.0199999999999999;2;72;0;0;0.32000000000000001;0.68000000000000005;0.0;0.0;0;3.833254702080012;74;74;20;2;
2019_03_22 13:22;53;3;0;control;73;8;0;50;36;0;0;0.080000000000000002;0.92000000000000004;0.0;0.0;6;19;84;29;0.54000000000000004;0.070000000000000007;0.17000000000000001;0.22;0;4.100032104643105;74;74;20;2;
2019_03_22 13:22;53;3;0;control;74;91;0;74;81;86;48;0.93000000000000005;0.02;0.01;0.039999999999999897;7;64;0;0;0.13;0.87;0.0;0.0;0;3.883308118946843;74;74;20;2;
2019_03_22 13:22;53;3;0;control;75;133;0;59;88;60;36;0.67000000000000004;0.070000000000000007;0.12;0.14000000000000001;7;91;66;61;0.25;0.68999999999999995;0.01;0.0500000000000001;0;7.049906203765204;74;74;20;2;
2019_03_22 13:22;53;4;0;timed;1;90;0;27;44;50;72;0.68000000000000005;0.28999999999999998;0.02;0.0099999999999999707;6;96;0;0;0.46999999999999997;0.53000000000000003;0.0;0.0;0;1.6303770868416905;74;74;20;2;
2019_03_22 13:22;53;4;0;timed;2;64;1;48;39;34;19;0.46000000000000002;0.5;0.02;0.02;13;92;0;0;0.68999999999999995;0.31;0.0;0.0;0;2.4666033126477487;74;74;20;2;
2019_03_22 13:22;53;4;0;timed;3;71;1;68;55;36;51;0.20000000000000001;0.75;0.02;0.029999999999999999;38;81;0;0;0.52000000000000002;0.47999999999999998;0.0;0.0;0;2.9499501111149584;74;74;20;2;
2019_03_22 13:22;53;4;0;timed;4;93;0;87;81;73;98;0.80000000000000004;0.040000000000000001;0.14999999999999999;0.0099999999999999499;5;71;0;0;0.51000000000000001;0.48999999999999999;0.0;0.0;0;0.999930402519567;74;74;20;2;
2019_03_22 13:22;53;4;0;timed;5;61;1;43;18;39;70;0.75;0.089999999999999997;0.089999999999999997;0.070000000000000007;16;66;0;0;0.64000000000000001;0.35999999999999999;0.0;0.0;0;1.9166218987029424;74;74;20;2;
2019_03_22 13:22;53;4;0;timed;6;84;0;43;10;5;45;0.78000000000000003;0.13;0.059999999999999998;0.029999999999999999;87;1;0;0;0.57999999999999996;0.41999999999999998;0.0;0.0;0;1.1334292730853122;74;74;20;2;
2019_03_22 13:22;53;4;0;timed;7;25;1;50;53;0;0;0.82999999999999996;0.17000000000000001;0.0;0.0;83;16;97;4;0.45000000000000001;0.29999999999999999;0.11;0.14000000000000001;1;2.6834507777439285;74;74;20;2;
2019_03_22 13:22;53;4;0;timed;8;52;0;71;51;10;54;0.22;0.12;0.19;0.46999999999999997;91;1;0;0;0.29999999999999999;0.69999999999999996;0.0;0.0;0;1.58330898490658;74;74;20;2;
2019_03_22 13:22;53;4;0;timed;9;111;1;51;36;48;27;0.93000000000000005;0.01;0.01;0.049999999999999899;31;78;30;53;0.55000000000000004;0.16;0.029999999999999999;0.26000000000000001;1;2.466470211476917;74;74;20;2;
2019_03_22 13:22;53;4;0;timed;10;44;0;79;74;0;0;0.71999999999999997;0.28000000000000003;0.0;0.0;3;67;15;36;0.41999999999999998;0.53000000000000003;0.02;0.029999999999999999;0;2.3000530159597474;74;74;20;2;
2019_03_22 13:22;53;4;0;timed;11;20;1;44;40;0;0;0.91000000000000003;0.089999999999999997;0.0;0.0;29;5;80;99;0.25;0.40000000000000002;0.26000000000000001;0.089999999999999997;0;1.8165352706873819;74;74;20;2;
2019_03_22 13:22;53;4;0;timed;12;7;0;49;29;0;0;0.95999999999999996;0.040000000000000001;0.0;0.0;23;99;64;25;0.68999999999999995;0.12;0.059999999999999998;0.13;1;2.6169476598088295;74;74;20;2;
2019_03_22 13:22;53;4;0;timed;13;136;1;29;67;14;75;0.46000000000000002;0.29999999999999999;0.20999999999999999;0.0300000000000001;70;86;1;85;0.31;0.39000000000000001;0.27000000000000002;0.029999999999999898;0;1.4668438569315185;74;74;20;2;
2019_03_22 13:22;53;4;0;timed;14;23;1;54;40;0;0;0.93000000000000005;0.070000000000000007;0.0;0.0;36;23;71;86;0.02;0.41999999999999998;0.19;0.37;1;2.233255792547425;74;74;20;2;
2019_03_22 13:22;53;4;0;timed;15;96;1;51;54;39;7;0.17000000000000001;0.26000000000000001;0.10000000000000001;0.46999999999999997;24;96;0;0;0.28000000000000003;0.71999999999999997;0.0;0.0;1;1.8999566699558272;74;74;20;2;
2019_03_22 13:22;53;4;0;timed;16;14;1;36;40;0;0;0.54000000000000004;0.46000000000000002;0.0;0.0;99;70;1;11;0.16;0.089999999999999997;0.080000000000000002;0.67000000000000004;0;1.1999185998147368;74;74;20;2;
2019_03_22 13:22;53;4;0;timed;17;116;0;53;65;43;99;0.56999999999999995;0.37;0.050000000000000003;0.010000000000000101;57;72;11;87;0.67000000000000004;0.13;0.14999999999999999;0.050000000000000003;0;2.4332696478977596;74;74;20;2;
2019_03_22 13:22;53;4;0;timed;18;21;1;64;28;0;0;0.080000000000000002;0.92000000000000004;0.0;0.0;50;1;88;13;0.57999999999999996;0.13;0.02;0.27000000000000002;0;1.166668323749036;74;74;20;2;
2019_03_22 13:22;53;4;0;timed;19;108;0;48;72;39;70;0.14000000000000001;0.66000000000000003;0.02;0.17999999999999999;81;44;98;8;0.59999999999999998;0.029999999999999999;0.050000000000000003;0.32000000000000001;1;2.5332478706213806;74;74;20;2;
2019_03_22 13:22;53;4;0;timed;20;112;0;70;44;98;64;0.02;0.75;0.12;0.11;33;2;63;85;0.23999999999999999;0.31;0.080000000000000002;0.37;0;2.0334353348007426;74;74;20;2;
2019_03_22 13:22;53;4;0;timed;21;29;0;44;51;0;0;0.78000000000000003;0.22;0.0;0.0;74;1;68;82;0.69999999999999996;0.28000000000000003;0.01;0.01;0;1.2664836178119003;74;74;20;2;
2019_03_22 13:22;53;4;0;timed;22;55;1;74;55;47;48;0.60999999999999999;0.31;0.070000000000000007;0.01;97;6;0;0;0.42999999999999999;0.56999999999999995;0.0;0.0;0;1.283568997241673;74;74;20;2;
2019_03_22 13:22;53;4;0;timed;23;36;1;70;17;0;0;0.33000000000000002;0.67000000000000004;0.0;0.0;84;1;12;88;0.22;0.27000000000000002;0.14000000000000001;0.37;0;1.0832943918867386;74;74;20;2;
2019_03_22 13:22;53;4;0;timed;24;51;1;52;23;43;16;0.60999999999999999;0.20999999999999999;0.01;0.17000000000000001;92;7;0;0;0.14999999999999999;0.84999999999999998;0.0;0.0;0;1.3998323887426523;74;74;20;2;
2019_03_22 13:22;53;4;0;timed;25;100;0;27;14;59;52;0.02;0.95999999999999996;0.01;0.01;17;98;0;0;0.48999999999999999;0.51000000000000001;0.0;0.0;0;2.166562484264432;74;74;20;2;
2019_03_22 13:22;53;4;0;timed;26;122;0;35;58;25;31;0.81999999999999995;0.070000000000000007;0.080000000000000002;0.029999999999999999;18;64;68;89;0.63;0.17000000000000001;0.11;0.089999999999999997;0;1.6165765801597445;74;74;20;2;
2019_03_22 13:22;53;4;0;timed;27;13;0;52;56;0;0;0.46999999999999997;0.53000000000000003;0.0;0.0;94;71;27;2;0.089999999999999997;0.31;0.57999999999999996;0.020000000000000101;0;1.6334890884299966;74;74;20;2;
2019_03_22 13:22;53;4;0;timed;28;38;0;40;70;0;0;0.53000000000000003;0.46999999999999997;0.0;0.0;97;90;6;96;0.56999999999999995;0.070000000000000007;0.27000000000000002;0.089999999999999997;0;1.5332738494043952;74;74;20;2;
2019_03_22 13:22;53;4;0;timed;29;126;1;16;55;51;42;0.68999999999999995;0.23999999999999999;0.01;0.060000000000000102;66;4;1;5;0.46999999999999997;0.38;0.089999999999999997;0.059999999999999998;0;1.1832626721134147;74;74;20;2;
2019_03_22 13:22;53;4;0;timed;30;125;1;37;41;10;35;0.91000000000000003;0.040000000000000001;0.029999999999999999;0.02;7;13;91;93;0.26000000000000001;0.39000000000000001;0.16;0.19;0;1.4666164624022713;74;74;20;2;
2019_03_22 13:22;53;4;0;timed;31;118;1;62;52;65;68;0.40999999999999998;0.44;0.10000000000000001;0.0500000000000001;79;20;14;37;0.56999999999999995;0.23999999999999999;0.14000000000000001;0.050000000000000003;1;1.6665427596335576;74;74;20;2;
2019_03_22 13:22;53;4;0;timed;32;41;0;99;40;0;0;0.89000000000000001;0.11;0.0;0.0;1;67;52;46;0.51000000000000001;0.38;0.029999999999999999;0.080000000000000002;0;1.5000495521226185;74;74;20;2;
2019_03_22 13:22;53;4;0;timed;33;106;0;85;69;22;61;0.10000000000000001;0.58999999999999997;0.17999999999999999;0.13;20;79;91;84;0.55000000000000004;0.14999999999999999;0.26000000000000001;0.039999999999999897;0;2.7500533206493856;74;74;20;2;
2019_03_22 13:22;53;4;0;timed;34;47;1;2;40;0;0;0.45000000000000001;0.55000000000000004;0.0;0.0;93;89;11;56;0.58999999999999997;0.070000000000000007;0.28000000000000003;0.059999999999999998;1;1.5167250440917996;74;74;20;2;
2019_03_22 13:22;53;4;0;timed;35;147;0;39;43;76;28;0.14000000000000001;0.10000000000000001;0.10000000000000001;0.66000000000000003;6;31;68;85;0.27000000000000002;0.20000000000000001;0.22;0.31;0;2.5833134750673707;74;74;20;2;
2019_03_22 13:22;53;4;0;timed;36;119;1;60;58;11;18;0.25;0.72999999999999998;0.01;0.01;96;23;42;85;0.44;0.48999999999999999;0.059999999999999998;0.010000000000000101;1;2.1500457515230664;74;74;20;2;
2019_03_22 13:22;53;4;0;timed;37;22;0;32;55;0;0;0.39000000000000001;0.60999999999999999;0.0;0.0;93;72;59;22;0.20000000000000001;0.11;0.14000000000000001;0.55000000000000004;1;2.066901459269502;74;74;20;2;
2019_03_22 13:22;53;4;0;timed;38;149;0;14;89;73;53;0.93999999999999995;0.01;0.01;0.040000000000000001;97;45;6;13;0.34000000000000002;0.01;0.40999999999999998;0.23999999999999999;0;1.6499368651439;74;74;20;2;
2019_03_22 13:22;53;4;0;timed;39;141;0;93;28;60;91;0.81999999999999995;0.10000000000000001;0.01;0.070000000000000007;14;85;7;89;0.45000000000000001;0.070000000000000007;0.23999999999999999;0.23999999999999999;0;1.9664264324164833;74;74;20;2;
2019_03_22 13:22;53;4;0;timed;40;48;1;13;32;0;0;0.90000000000000002;0.10000000000000001;0.0;0.0;24;99;84;94;0.62;0.14999999999999999;0.20000000000000001;0.029999999999999999;1;2.2332378319079;74;74;20;2;
2019_03_22 13:22;53;4;0;timed;41;150;0;25;21;78;38;0.84999999999999998;0.059999999999999998;0.050000000000000003;0.040000000000000001;31;43;64;95;0.059999999999999998;0.45000000000000001;0.13;0.35999999999999999;1;2.6667284598206606;74;74;20;2;
2019_03_22 13:22;53;4;0;timed;42;5;1;70;5;0;0;0.98999999999999999;0.01;0.0;0.0;92;87;47;1;0.44;0.02;0.16;0.38;0;1.199948748031602;74;74;20;2;
2019_03_22 13:22;53;4;0;timed;43;69;0;54;34;64;49;0.34000000000000002;0.25;0.20999999999999999;0.20000000000000001;14;98;0;0;0.62;0.38;0.0;0.0;0;2.7166689812365803;74;74;20;2;
2019_03_22 13:22;53;4;0;timed;44;103;1;38;49;89;50;0.89000000000000001;0.070000000000000007;0.01;0.029999999999999999;6;64;99;27;0.70999999999999996;0.17999999999999999;0.059999999999999998;0.050000000000000003;1;3.583512645733208;74;74;20;2;
2019_03_22 13:22;53;4;0;timed;45;121;0;42;51;47;70;0.41999999999999998;0.17000000000000001;0.23999999999999999;0.17000000000000001;21;76;48;9;0.14999999999999999;0.34000000000000002;0.40999999999999998;0.10000000000000001;0;2.9666320175983856;74;74;20;2;
2019_03_22 13:22;53;4;0;timed;46;128;1;70;49;27;54;0.27000000000000002;0.53000000000000003;0.02;0.17999999999999999;72;97;6;20;0.29999999999999999;0.39000000000000001;0.22;0.0899999999999999;0;1.649938468772234;74;74;20;2;
2019_03_22 13:22;53;4;0;timed;47;26;1;76;41;0;0;0.57999999999999996;0.41999999999999998;0.0;0.0;61;79;84;2;0.13;0.029999999999999999;0.67000000000000004;0.17000000000000001;0;2.2499293601631507;74;74;20;2;
2019_03_22 13:22;53;4;0;timed;48;28;1;47;30;0;0;0.97999999999999998;0.02;0.0;0.0;55;48;77;13;0.070000000000000007;0.26000000000000001;0.42999999999999999;0.23999999999999999;1;2.3165986140156747;74;74;20;2;
2019_03_22 13:22;53;4;0;timed;49;95;1;93;88;68;85;0.83999999999999997;0.14000000000000001;0.01;0.01;2;82;0;0;0.41999999999999998;0.57999999999999996;0.0;0.0;0;1.2333792719455232;74;74;20;2;
2019_03_22 13:22;53;4;0;timed;50;124;1;37;65;15;41;0.17999999999999999;0.45000000000000001;0.02;0.34999999999999998;40;7;98;30;0.070000000000000007;0.45000000000000001;0.45000000000000001;0.029999999999999898;0;1.5833750544024952;74;74;20;2;
2019_03_22 13:22;53;4;0;timed;51;101;1;30;96;61;45;0.65000000000000002;0.14000000000000001;0.11;0.10000000000000001;3;98;63;89;0.75;0.19;0.040000000000000001;0.02;0;2.066610240322916;74;74;20;2;
2019_03_22 13:22;53;4;0;timed;52;4;1;40;43;0;0;0.58999999999999997;0.40999999999999998;0.0;0.0;2;33;88;81;0.69999999999999996;0.14000000000000001;0.13;0.029999999999999999;0;1.6668259604375635;74;74;20;2;
2019_03_22 13:22;53;4;0;timed;53;12;0;53;68;0;0;0.31;0.68999999999999995;0.0;0.0;69;54;97;29;0.25;0.20999999999999999;0.20000000000000001;0.34000000000000002;1;2.199918920539858;74;74;20;2;
2019_03_22 13:22;53;4;0;timed;54;132;0;27;70;21;19;0.64000000000000001;0.23000000000000001;0.029999999999999999;0.10000000000000001;11;85;55;6;0.39000000000000001;0.46999999999999997;0.029999999999999999;0.11;0;1.583239387426147;74;74;20;2;
2019_03_22 13:22;53;4;0;timed;55;78;0;74;36;34;3;0.14999999999999999;0.64000000000000001;0.13;0.080000000000000002;1;83;0;0;0.41999999999999998;0.57999999999999996;0.0;0.0;0;1.1832463151022239;74;74;20;2;
2019_03_22 13:22;53;4;0;timed;56;104;0;55;85;93;3;0.87;0.02;0.089999999999999997;0.02;1;2;90;8;0.35999999999999999;0.070000000000000007;0.40000000000000002;0.17000000000000001;0;1.933467375300097;74;74;20;2;
2019_03_22 13:22;53;4;0;timed;57;27;1;44;26;0;0;0.35999999999999999;0.64000000000000001;0.0;0.0;63;10;3;5;0.58999999999999997;0.19;0.14999999999999999;0.070000000000000007;0;2.516582000424023;74;74;20;2;
2019_03_22 13:22;53;4;0;timed;58;73;0;65;68;70;47;0.25;0.23000000000000001;0.20999999999999999;0.31;27;95;0;0;0.45000000000000001;0.55000000000000004;0.0;0.0;0;1.783305200342511;74;74;20;2;
2019_03_22 13:22;53;4;0;timed;59;77;1;24;17;99;41;0.17999999999999999;0.13;0.10000000000000001;0.58999999999999997;12;97;0;0;0.59999999999999998;0.40000000000000002;0.0;0.0;0;1.7000993287529127;74;74;20;2;
2019_03_22 13:22;53;4;0;timed;60;148;0;37;63;55;10;0.72999999999999998;0.070000000000000007;0.029999999999999999;0.17000000000000001;80;14;23;70;0.46999999999999997;0.10000000000000001;0.23000000000000001;0.20000000000000001;0;2.9165686582346098;74;74;20;2;
2019_03_22 13:22;53;4;0;timed;61;138;1;8;20;43;51;0.38;0.5;0.02;0.10000000000000001;72;82;70;1;0.39000000000000001;0.050000000000000003;0.070000000000000007;0.48999999999999999;0;1.516599961063548;74;74;20;2;
2019_03_22 13:22;53;4;0;timed;62;19;1;22;53;0;0;0.13;0.87;0.0;0.0;4;93;96;65;0.46999999999999997;0.059999999999999998;0.26000000000000001;0.20999999999999999;0;2.383377556063351;74;74;20;2;
2019_03_22 13:22;53;4;0;timed;63;89;1;26;41;13;56;0.059999999999999998;0.40999999999999998;0.050000000000000003;0.47999999999999998;5;97;0;0;0.37;0.63;0.0;0.0;0;1.8999412751218188;74;74;20;2;
2019_03_22 13:22;53;4;0;timed;64;140;1;36;32;26;27;0.39000000000000001;0.14999999999999999;0.19;0.27000000000000002;44;3;99;25;0.29999999999999999;0.34000000000000002;0.34000000000000002;0.0199999999999999;0;2.7000608416674368;74;74;20;2;
2019_03_22 13:22;53;4;0;timed;65;42;1;70;48;0;0;0.79000000000000004;0.20999999999999999;0.0;0.0;51;8;12;67;0.19;0.26000000000000001;0.28999999999999998;0.26000000000000001;0;2.116643451470736;74;74;20;2;
2019_03_22 13:22;53;4;0;timed;66;92;0;90;86;65;94;0.16;0.34000000000000002;0.28000000000000003;0.22;79;22;0;0;0.35999999999999999;0.64000000000000001;0.0;0.0;0;2.0834977319882455;74;74;20;2;
2019_03_22 13:22;53;4;0;timed;67;45;0;97;87;0;0;0.71999999999999997;0.28000000000000003;0.0;0.0;96;11;14;4;0.25;0.029999999999999999;0.14000000000000001;0.57999999999999996;0;2.633230904231823;74;74;20;2;
2019_03_22 13:22;53;4;0;timed;68;81;0;67;38;52;65;0.27000000000000002;0.35999999999999999;0.01;0.35999999999999999;2;77;0;0;0.14000000000000001;0.85999999999999999;0.0;0.0;0;1.766876667172255;74;74;20;2;
2019_03_22 13:22;53;4;0;timed;69;18;1;68;50;0;0;0.029999999999999999;0.96999999999999997;0.0;0.0;34;64;15;89;0.65000000000000002;0.029999999999999999;0.050000000000000003;0.27000000000000002;0;2.999937779211905;74;74;20;2;
2019_03_22 13:22;53;4;0;timed;70;80;1;47;39;45;10;0.13;0.76000000000000001;0.059999999999999998;0.050000000000000003;2;87;0;0;0.48999999999999999;0.51000000000000001;0.0;0.0;0;1.60009224071473;74;74;20;2;
2019_03_22 13:22;53;4;0;timed;71;129;0;12;29;81;36;0.17999999999999999;0.79000000000000004;0.01;0.02;5;19;95;92;0.47999999999999998;0.26000000000000001;0.13;0.13;0;2.7332687819380226;74;74;20;2;
2019_03_22 13:22;53;4;0;timed;72;98;1;27;10;31;79;0.23000000000000001;0.67000000000000004;0.070000000000000007;0.029999999999999999;25;99;0;0;0.38;0.62;0.0;0.0;1;3.516754550857513;74;74;20;2;
2019_03_22 13:22;53;4;0;timed;73;6;1;9;51;0;0;0.14999999999999999;0.84999999999999998;0.0;0.0;6;40;50;73;0.42999999999999999;0.26000000000000001;0.059999999999999998;0.25;0;1.8666130627098028;74;74;20;2;
2019_03_22 13:22;53;4;0;timed;74;65;0;75;64;59;52;0.59999999999999998;0.22;0.14000000000000001;0.040000000000000001;1;99;0;0;0.35999999999999999;0.64000000000000001;0.0;0.0;0;1.899952179795946;74;74;20;2;
2019_03_22 13:22;53;4;0;timed;75;3;1;53;40;0;0;0.31;0.68999999999999995;0.0;0.0;96;24;7;88;0.11;0.27000000000000002;0.58999999999999997;0.029999999999999999;0;1.9665281024681462;74;74;20;2;
