date;id;block;order;cond;trial;gameid;leftright;oa1;oa2;oa3;oa4;pa1;pa2;pa3;pa4;ob1;ob2;ob3;ob4;pb1;pb2;pb3;pb4;choice;rt;paytrial;payout;alter;geschlecht;comment
2019_03_21 12:09;42;0;1;practice;1;23;1;99;93;0;0;0.57999999999999996;0.41999999999999998;0.0;0.0;64;10;80;81;0.13;0.55000000000000004;0.02;0.29999999999999999;0;10.26241505740245;40;97;24;1;
2019_03_21 12:09;42;0;1;practice;2;41;0;19;54;51;8;0.76000000000000001;0.070000000000000007;0.16;0.0099999999999999794;2;77;0;0;0.54000000000000004;0.46000000000000002;0.0;0.0;0;9.305864551114269;40;97;24;1;
2019_03_21 12:09;42;0;1;practice;3;6;1;42;59;0;0;0.35999999999999999;0.64000000000000001;0.0;0.0;77;19;6;7;0.44;0.14999999999999999;0.17999999999999999;0.23000000000000001;1;6.3141070459539606;40;97;24;1;
2019_03_21 12:09;42;0;1;practice;4;45;1;37;40;75;23;0.54000000000000004;0.38;0.059999999999999998;0.02;1;90;0;0;0.28000000000000003;0.71999999999999997;0.0;0.0;0;4.672923051660291;40;97;24;1;
2019_03_21 12:09;42;0;1;practice;5;46;0;79;57;98;81;0.67000000000000004;0.070000000000000007;0.20999999999999999;0.050000000000000003;1;76;0;0;0.56000000000000005;0.44;0.0;0.0;0;2.831970167941563;40;97;24;1;
2019_03_21 12:09;42;0;1;practice;6;30;0;54;78;85;25;0.20999999999999999;0.60999999999999999;0.089999999999999997;0.090000000000000094;87;20;0;0;0.58999999999999997;0.40999999999999998;0.0;0.0;1;2.831759455135739;40;97;24;1;
2019_03_21 12:09;42;0;1;practice;7;60;0;39;93;27;78;0.85999999999999999;0.02;0.11;0.01;22;5;62;95;0.059999999999999998;0.56999999999999995;0.14000000000000001;0.23000000000000001;0;1.9312787605340418;40;97;24;1;
2019_03_21 12:09;42;0;1;practice;8;47;1;91;99;90;78;0.93000000000000005;0.040000000000000001;0.02;0.0099999999999999499;10;87;0;0;0.23000000000000001;0.77000000000000002;0.0;0.0;0;2.7917349264973836;40;97;24;1;
2019_03_21 12:09;42;0;1;practice;9;74;1;36;46;10;12;0.11;0.19;0.65000000000000002;0.049999999999999899;92;24;79;19;0.51000000000000001;0.40999999999999998;0.02;0.059999999999999998;1;2.451628101198594;40;97;24;1;
2019_03_21 12:09;42;0;1;practice;10;52;0;17;61;57;59;0.070000000000000007;0.050000000000000003;0.33000000000000002;0.55000000000000004;12;93;94;62;0.71999999999999997;0.16;0.080000000000000002;0.040000000000000001;1;3.292213119486064;40;97;24;1;
2019_03_21 12:09;42;0;1;practice;11;42;1;23;45;91;22;0.72999999999999998;0.02;0.20000000000000001;0.050000000000000003;2;86;0;0;0.40999999999999998;0.58999999999999997;0.0;0.0;0;4.0325370078396645;40;97;24;1;
2019_03_21 12:09;42;0;1;practice;12;16;0;50;42;0;0;0.32000000000000001;0.68000000000000005;0.0;0.0;97;2;56;31;0.35999999999999999;0.16;0.16;0.32000000000000001;1;3.312025896186924;40;97;24;1;
2019_03_21 12:09;42;0;1;practice;13;62;0;65;52;74;55;0.16;0.12;0.14999999999999999;0.56999999999999995;72;86;2;68;0.12;0.53000000000000003;0.22;0.13;1;4.813031031549826;40;97;24;1;
2019_03_21 12:09;42;0;1;practice;14;54;1;69;80;22;55;0.27000000000000002;0.31;0.059999999999999998;0.35999999999999999;52;2;49;90;0.059999999999999998;0.33000000000000002;0.20000000000000001;0.40999999999999998;0;4.322841204007204;40;97;24;1;
2019_03_21 12:09;42;0;1;practice;15;40;1;29;65;30;41;0.70999999999999996;0.01;0.14999999999999999;0.13;2;59;0;0;0.32000000000000001;0.68000000000000005;0.0;0.0;0;4.032531234886164;40;97;24;1;
2019_03_21 12:09;42;0;1;practice;16;64;0;44;60;96;45;0.53000000000000003;0.10000000000000001;0.029999999999999999;0.34000000000000002;88;20;43;31;0.47999999999999998;0.38;0.050000000000000003;0.089999999999999997;1;2.6516295123651616;40;97;24;1;
2019_03_21 12:09;42;0;1;practice;17;37;1;50;66;99;12;0.26000000000000001;0.71999999999999997;0.01;0.01;22;90;0;0;0.37;0.63;0.0;0.0;0;2.3614314743995237;40;97;24;1;
2019_03_21 12:09;42;0;1;practice;18;33;0;54;82;55;71;0.56000000000000005;0.20999999999999999;0.02;0.20999999999999999;13;99;0;0;0.5;0.5;0.0;0.0;0;2.151429704027123;40;97;24;1;
2019_03_21 12:09;42;0;1;practice;19;10;0;34;59;0;0;0.16;0.83999999999999997;0.0;0.0;21;61;96;7;0.19;0.01;0.5;0.29999999999999999;0;2.231330268108877;40;97;24;1;
2019_03_21 12:09;42;0;1;practice;20;22;0;84;87;0;0;0.17000000000000001;0.82999999999999996;0.0;0.0;3;24;41;83;0.68000000000000005;0.11;0.10000000000000001;0.11;0;7.564941558466444;40;97;24;1;
2019_03_21 12:09;42;0;1;practice;21;21;1;59;69;0;0;0.34000000000000002;0.66000000000000003;0.0;0.0;64;18;5;24;0.14999999999999999;0.040000000000000001;0.51000000000000001;0.29999999999999999;0;6.724275398109285;40;97;24;1;
2019_03_21 12:09;42;0;1;practice;22;14;1;92;56;0;0;0.11;0.89000000000000001;0.0;0.0;97;31;51;4;0.58999999999999997;0.22;0.080000000000000002;0.11;1;4.753145938983607;40;97;24;1;
2019_03_21 12:09;42;0;1;practice;23;53;1;47;24;95;38;0.57999999999999996;0.28000000000000003;0.02;0.12;8;22;93;96;0.54000000000000004;0.34000000000000002;0.10000000000000001;0.0199999999999999;0;2.1313427120308006;40;97;24;1;
2019_03_21 12:09;42;0;1;practice;24;25;0;7;18;0;0;0.20999999999999999;0.79000000000000004;0.0;0.0;92;45;33;13;0.41999999999999998;0.17999999999999999;0.22;0.17999999999999999;1;2.681802174992299;40;97;24;1;
2019_03_21 12:09;42;0;1;practice;25;3;0;20;70;0;0;0.13;0.87;0.0;0.0;95;19;80;73;0.31;0.57999999999999996;0.029999999999999999;0.080000000000000002;1;6.924451280761787;40;97;24;1;
2019_03_21 12:09;42;0;1;practice;26;1;0;67;36;0;0;0.14999999999999999;0.84999999999999998;0.0;0.0;1;4;81;77;0.25;0.54000000000000004;0.14000000000000001;0.070000000000000007;0;10.436767235794377;40;97;24;1;
2019_03_21 12:09;42;0;1;practice;27;66;0;44;18;63;36;0.47999999999999998;0.10000000000000001;0.029999999999999999;0.39000000000000001;13;93;61;53;0.52000000000000002;0.45000000000000001;0.02;0.0099999999999999707;0;4.002726437689944;40;97;24;1;
2019_03_21 12:09;42;0;1;practice;28;61;1;51;48;56;88;0.91000000000000003;0.02;0.01;0.059999999999999998;78;21;14;82;0.55000000000000004;0.29999999999999999;0.070000000000000007;0.080000000000000002;0;11.37743666749202;40;97;24;1;
2019_03_21 12:09;42;0;1;practice;29;67;0;74;31;10;77;0.11;0.070000000000000007;0.77000000000000002;0.050000000000000003;2;23;8;97;0.56999999999999995;0.01;0.059999999999999998;0.35999999999999999;1;15.419955432798133;40;97;24;1;
2019_03_21 12:09;42;0;1;practice;30;65;1;35;15;77;1;0.62;0.33000000000000002;0.029999999999999999;0.02;68;3;25;96;0.38;0.28000000000000003;0.28000000000000003;0.059999999999999901;1;11.737569868774472;40;97;24;1;
2019_03_21 12:09;42;0;1;practice;31;48;1;20;25;24;35;0.32000000000000001;0.13;0.48999999999999999;0.059999999999999901;44;76;0;0;0.29999999999999999;0.69999999999999996;0.0;0.0;1;3.7923664234756416;40;97;24;1;
2019_03_21 12:09;42;0;1;practice;32;12;0;45;86;0;0;0.97999999999999998;0.02;0.0;0.0;6;23;95;81;0.14999999999999999;0.40999999999999998;0.050000000000000003;0.39000000000000001;0;8.585571528819173;40;97;24;1;
2019_03_21 12:09;42;0;1;practice;33;55;1;53;11;80;74;0.31;0.37;0.28000000000000003;0.039999999999999897;6;93;98;96;0.69999999999999996;0.22;0.050000000000000003;0.029999999999999999;1;7.8149482935789365;40;97;24;1;
2019_03_21 12:09;42;0;1;practice;34;43;0;11;17;21;44;0.16;0.46000000000000002;0.25;0.13;2;66;0;0;0.44;0.56000000000000005;0.0;0.0;1;6.454288470642041;40;97;24;1;
2019_03_21 12:09;42;0;1;practice;35;29;1;66;40;92;49;0.46999999999999997;0.10000000000000001;0.34000000000000002;0.089999999999999997;8;94;0;0;0.44;0.56000000000000005;0.0;0.0;1;15.560041924471761;40;97;24;1;
2019_03_21 12:09;42;0;1;practice;36;17;0;27;61;0;0;0.68999999999999995;0.31;0.0;0.0;3;91;69;43;0.29999999999999999;0.33000000000000002;0.27000000000000002;0.099999999999999895;1;11.367224954040921;40;97;24;1;
2019_03_21 12:09;42;0;1;practice;37;18;0;47;36;0;0;0.089999999999999997;0.91000000000000003;0.0;0.0;2;44;81;9;0.20000000000000001;0.25;0.51000000000000001;0.040000000000000001;0;9.666229632699014;40;97;24;1;
2019_03_21 12:09;42;0;1;practice;38;2;0;41;60;0;0;0.97999999999999998;0.02;0.0;0.0;10;14;97;6;0.54000000000000004;0.17000000000000001;0.12;0.17000000000000001;0;3.8023975717674148;40;97;24;1;
2019_03_21 12:09;42;0;1;practice;39;31;1;72;59;40;92;0.59999999999999998;0.34999999999999998;0.02;0.029999999999999999;97;29;0;0;0.38;0.62;0.0;0.0;0;5.643566299806025;40;97;24;1;
2019_03_21 12:09;42;0;1;practice;40;63;0;24;82;6;96;0.91000000000000003;0.070000000000000007;0.01;0.0099999999999999603;73;10;71;22;0.31;0.51000000000000001;0.050000000000000003;0.13;1;10.936935934327039;40;97;24;1;
2019_03_21 12:09;42;0;1;practice;41;57;0;39;68;59;91;0.73999999999999999;0.040000000000000001;0.14999999999999999;0.070000000000000007;9;22;40;84;0.29999999999999999;0.32000000000000001;0.040000000000000001;0.34000000000000002;0;4.172751145931215;40;97;24;1;
2019_03_21 12:09;42;0;1;practice;42;73;0;99;88;95;28;0.83999999999999997;0.14000000000000001;0.01;0.01;90;93;10;74;0.080000000000000002;0.46000000000000002;0.34999999999999998;0.11;0;2.6116027386890437;40;97;24;1;
2019_03_21 12:09;42;0;1;practice;43;24;1;19;38;0;0;0.89000000000000001;0.11;0.0;0.0;45;76;95;57;0.29999999999999999;0.22;0.40000000000000002;0.080000000000000002;1;7.834950615589378;40;97;24;1;
2019_03_21 12:09;42;0;1;practice;44;28;1;37;83;75;8;0.83999999999999997;0.070000000000000007;0.01;0.080000000000000002;94;2;0;0;0.19;0.81000000000000005;0.0;0.0;0;5.073669302126973;40;97;24;1;
2019_03_21 12:09;42;0;1;practice;45;9;0;57;44;0;0;0.14999999999999999;0.84999999999999998;0.0;0.0;38;35;64;95;0.34000000000000002;0.45000000000000001;0.089999999999999997;0.12;0;8.315719945041565;40;97;24;1;
2019_03_21 12:09;42;0;1;practice;46;7;1;13;31;0;0;0.51000000000000001;0.48999999999999999;0.0;0.0;8;79;42;18;0.85999999999999999;0.089999999999999997;0.02;0.029999999999999999;0;5.683549134890654;40;97;24;1;
2019_03_21 12:09;42;0;1;practice;47;35;1;84;95;4;35;0.89000000000000001;0.050000000000000003;0.01;0.050000000000000003;5;98;0;0;0.19;0.81000000000000005;0.0;0.0;0;7.91503174483023;40;97;24;1;
2019_03_21 12:09;42;0;1;practice;48;34;0;57;23;66;79;0.56000000000000005;0.23000000000000001;0.13;0.079999999999999905;85;9;0;0;0.56000000000000005;0.44;0.0;0.0;1;12.958366420909897;40;97;24;1;
2019_03_21 12:09;42;0;1;practice;49;72;0;86;85;97;43;0.51000000000000001;0.14999999999999999;0.33000000000000002;0.0099999999999999499;72;29;10;90;0.01;0.11;0.65000000000000002;0.23000000000000001;0;3.6923131198707324;40;97;24;1;
2019_03_21 12:09;42;0;1;practice;50;5;1;23;58;0;0;0.71999999999999997;0.28000000000000003;0.0;0.0;94;12;52;3;0.11;0.84999999999999998;0.029999999999999999;0.01;1;13.438535683908867;40;97;24;1;
2019_03_21 12:09;42;0;1;practice;51;13;0;15;25;0;0;0.29999999999999999;0.69999999999999996;0.0;0.0;3;43;35;73;0.44;0.40000000000000002;0.01;0.14999999999999999;1;13.668678006458094;40;97;24;1;
2019_03_21 12:09;42;0;1;practice;52;44;1;69;48;22;63;0.39000000000000001;0.40999999999999998;0.19;0.01;1;94;0;0;0.22;0.78000000000000003;0.0;0.0;1;3.202140611188952;40;97;24;1;
2019_03_21 12:09;42;0;1;practice;53;32;0;21;86;16;78;0.45000000000000001;0.41999999999999998;0.050000000000000003;0.080000000000000099;95;9;0;0;0.42999999999999999;0.56999999999999995;0.0;0.0;1;3.712436353186604;40;97;24;1;
2019_03_21 12:09;42;0;1;practice;54;69;1;38;74;27;73;0.22;0.19;0.45000000000000001;0.14000000000000001;1;97;79;84;0.28000000000000003;0.45000000000000001;0.17000000000000001;0.10000000000000001;1;6.253984941571389;40;97;24;1;
2019_03_21 12:09;42;0;1;practice;55;11;1;10;44;0;0;0.48999999999999999;0.51000000000000001;0.0;0.0;88;12;54;50;0.17000000000000001;0.75;0.02;0.059999999999999998;0;6.854343570276569;40;97;24;1;
2019_03_21 12:09;42;0;1;practice;56;58;0;44;50;85;42;0.38;0.57999999999999996;0.02;0.02;37;88;19;12;0.20000000000000001;0.29999999999999999;0.46000000000000002;0.040000000000000001;1;5.053327338014242;40;97;24;1;
2019_03_21 12:09;42;0;1;practice;57;20;0;32;11;0;0;0.40999999999999998;0.58999999999999997;0.0;0.0;1;86;42;65;0.45000000000000001;0.38;0.050000000000000003;0.12;1;7.794939877895786;40;97;24;1;
2019_03_21 12:09;42;0;1;practice;58;36;0;56;89;86;77;0.66000000000000003;0.080000000000000002;0.14999999999999999;0.11;29;91;0;0;0.40999999999999998;0.58999999999999997;0.0;0.0;1;5.233418794427735;40;97;24;1;
2019_03_21 12:09;42;0;1;practice;59;39;0;53;65;48;75;0.92000000000000004;0.029999999999999999;0.01;0.040000000000000001;16;83;0;0;0.31;0.68999999999999995;0.0;0.0;1;5.833698526100761;40;97;24;1;
2019_03_21 12:09;42;0;1;practice;60;15;0;24;59;0;0;0.56999999999999995;0.42999999999999999;0.0;0.0;9;8;80;22;0.31;0.10000000000000001;0.55000000000000004;0.039999999999999897;1;8.275240635948421;40;97;24;1;
2019_03_21 12:09;42;0;1;practice;61;50;1;17;12;21;14;0.55000000000000004;0.34000000000000002;0.059999999999999998;0.049999999999999899;13;93;0;0;0.28999999999999998;0.70999999999999996;0.0;0.0;1;5.753685068704499;40;97;24;1;
2019_03_21 12:09;42;0;1;practice;62;26;1;24;46;74;59;0.29999999999999999;0.11;0.25;0.34000000000000002;91;6;0;0;0.28999999999999998;0.70999999999999996;0.0;0.0;1;6.514119682307864;40;97;24;1;
2019_03_21 12:09;42;0;1;practice;63;19;1;25;73;0;0;0.69999999999999996;0.29999999999999999;0.0;0.0;87;84;1;86;0.040000000000000001;0.59999999999999998;0.28000000000000003;0.080000000000000002;1;8.49537105338436;40;97;24;1;
2019_03_21 12:09;42;0;1;practice;64;70;1;21;42;14;63;0.96999999999999997;0.01;0.01;0.01;70;2;6;76;0.23999999999999999;0.42999999999999999;0.01;0.32000000000000001;1;11.657599708529915;40;97;24;1;
2019_03_21 12:09;42;0;1;practice;65;27;0;68;43;98;36;0.54000000000000004;0.44;0.01;0.0099999999999999603;97;13;0;0;0.27000000000000002;0.72999999999999998;0.0;0.0;0;16.840727097089484;40;97;24;1;
2019_03_21 12:09;42;0;1;practice;66;4;1;40;59;0;0;0.19;0.81000000000000005;0.0;0.0;10;88;13;45;0.56000000000000005;0.28999999999999998;0.01;0.14000000000000001;0;5.753641450832902;40;97;24;1;
2019_03_21 12:09;42;0;1;practice;67;51;0;38;13;51;84;0.91000000000000003;0.070000000000000007;0.01;0.0099999999999999603;4;89;35;16;0.80000000000000004;0.089999999999999997;0.059999999999999998;0.050000000000000003;0;7.254570896360065;40;97;24;1;
2019_03_21 12:09;42;0;1;practice;68;38;0;51;89;10;60;0.57999999999999996;0.029999999999999999;0.080000000000000002;0.31;8;84;0;0;0.33000000000000002;0.67000000000000004;0.0;0.0;1;4.793017805071713;40;97;24;1;
2019_03_21 12:09;42;0;1;practice;69;75;0;21;86;27;62;0.88;0.040000000000000001;0.070000000000000007;0.0099999999999999794;13;3;49;87;0.28999999999999998;0.39000000000000001;0.070000000000000007;0.25;1;8.525476044166908;40;97;24;1;
2019_03_21 12:09;42;0;1;practice;70;56;1;47;52;64;10;0.77000000000000002;0.040000000000000001;0.11;0.080000000000000002;1;5;12;99;0.14000000000000001;0.28999999999999998;0.27000000000000002;0.29999999999999999;1;15.819956330813284;40;97;24;1;
2019_03_21 12:09;42;0;1;practice;71;8;1;20;44;0;0;0.26000000000000001;0.73999999999999999;0.0;0.0;99;3;69;24;0.20999999999999999;0.60999999999999999;0.12;0.060000000000000102;0;4.99315391848836;40;97;24;1;
2019_03_21 12:09;42;0;1;practice;72;71;0;94;87;26;75;0.71999999999999997;0.23999999999999999;0.02;0.02;90;27;12;83;0.16;0.73999999999999999;0.02;0.080000000000000002;0;4.012655917854545;40;97;24;1;
2019_03_21 12:09;42;0;1;practice;73;49;0;14;31;42;22;0.77000000000000002;0.089999999999999997;0.02;0.12;87;28;0;0;0.68000000000000005;0.32000000000000001;0.0;0.0;1;3.652436763707783;40;97;24;1;
2019_03_21 12:09;42;0;1;practice;74;68;1;39;58;40;8;0.48999999999999999;0.44;0.02;0.050000000000000003;92;83;51;2;0.57999999999999996;0.13;0.02;0.27000000000000002;1;2.6416528864126576;40;97;24;1;
2019_03_21 12:09;42;0;1;practice;75;59;0;13;27;48;51;0.56999999999999995;0.13;0.13;0.17000000000000001;8;37;97;1;0.65000000000000002;0.16;0.14999999999999999;0.040000000000000001;1;7.775109461614193;40;97;24;1;
2019_03_21 12:09;42;1;1;timed;1;120;1;64;40;48;51;0.19;0.02;0.070000000000000007;0.71999999999999997;97;9;79;94;0.23000000000000001;0.54000000000000004;0.01;0.22;NA;3.815132386654568;40;97;24;1;
2019_03_21 12:09;42;1;1;timed;2;102;1;40;56;53;17;0.28000000000000003;0.26000000000000001;0.14999999999999999;0.31;1;76;29;62;0.68000000000000005;0.23000000000000001;0.050000000000000003;0.039999999999999897;1;2.1016678062903793;40;97;24;1;
2019_03_21 12:09;42;1;1;timed;3;11;0;17;36;0;0;0.14000000000000001;0.85999999999999999;0.0;0.0;19;41;34;95;0.88;0.02;0.050000000000000003;0.050000000000000003;0;3.552220213804503;40;97;24;1;
2019_03_21 12:09;42;1;1;timed;4;103;0;38;49;89;50;0.89000000000000001;0.070000000000000007;0.01;0.029999999999999999;6;64;99;27;0.70999999999999996;0.17999999999999999;0.059999999999999998;0.050000000000000003;0;3.332077288302571;40;97;24;1;
2019_03_21 12:09;42;1;1;timed;5;143;0;88;44;56;73;0.95999999999999996;0.02;0.01;0.01;20;3;87;32;0.19;0.40000000000000002;0.28000000000000003;0.13;0;2.2114485366846566;40;97;24;1;
2019_03_21 12:09;42;1;1;timed;6;76;1;39;62;9;28;0.01;0.51000000000000001;0.26000000000000001;0.22;77;7;0;0;0.57999999999999996;0.41999999999999998;0.0;0.0;1;3.111907743070333;40;97;24;1;
2019_03_21 12:09;42;1;1;timed;7;121;1;42;51;47;70;0.41999999999999998;0.17000000000000001;0.23999999999999999;0.17000000000000001;21;76;48;9;0.14999999999999999;0.34000000000000002;0.40999999999999998;0.10000000000000001;1;2.891805228243129;40;97;24;1;
2019_03_21 12:09;42;1;1;timed;8;98;0;27;10;31;79;0.23000000000000001;0.67000000000000004;0.070000000000000007;0.029999999999999999;25;99;0;0;0.38;0.62;0.0;0.0;1;2.391477452767731;40;97;24;1;
2019_03_21 12:09;42;1;1;timed;9;36;0;70;17;0;0;0.33000000000000002;0.67000000000000004;0.0;0.0;84;1;12;88;0.22;0.27000000000000002;0.14000000000000001;0.37;1;3.712441484701003;40;97;24;1;
2019_03_21 12:09;42;1;1;timed;10;51;0;52;23;43;16;0.60999999999999999;0.20999999999999999;0.01;0.17000000000000001;92;7;0;0;0.14999999999999999;0.84999999999999998;0.0;0.0;0;3.5923839347681223;40;97;24;1;
2019_03_21 12:09;42;1;1;timed;11;40;0;45;49;0;0;0.68999999999999995;0.31;0.0;0.0;2;92;65;73;0.23999999999999999;0.59999999999999998;0.11;0.050000000000000003;1;3.3220605723947756;40;97;24;1;
2019_03_21 12:09;42;1;1;timed;12;57;1;52;35;23;47;0.22;0.68000000000000005;0.040000000000000001;0.059999999999999998;71;7;0;0;0.28999999999999998;0.70999999999999996;0.0;0.0;NA;3.8324178925638535;40;97;24;1;
2019_03_21 12:09;42;1;1;timed;13;72;1;63;82;51;61;0.01;0.96999999999999997;0.01;0.01;92;12;0;0;0.89000000000000001;0.11;0.0;0.0;1;1.3112199277225045;40;97;24;1;
2019_03_21 12:09;42;1;1;timed;14;92;1;90;86;65;94;0.16;0.34000000000000002;0.28000000000000003;0.22;79;22;0;0;0.35999999999999999;0.64000000000000001;0.0;0.0;1;1.8711643534227278;40;97;24;1;
2019_03_21 12:09;42;1;1;timed;15;149;1;14;89;73;53;0.93999999999999995;0.01;0.01;0.040000000000000001;97;45;6;13;0.34000000000000002;0.01;0.40999999999999998;0.23999999999999999;1;2.07128411013764;40;97;24;1;
2019_03_21 12:09;42;1;1;timed;16;137;0;71;22;28;17;0.25;0.46000000000000002;0.050000000000000003;0.23999999999999999;3;98;92;69;0.42999999999999999;0.23999999999999999;0.20000000000000001;0.13;0;2.7218513990430893;40;97;24;1;
2019_03_21 12:09;42;1;1;timed;17;148;0;37;63;55;10;0.72999999999999998;0.070000000000000007;0.029999999999999999;0.17000000000000001;80;14;23;70;0.46999999999999997;0.10000000000000001;0.23000000000000001;0.20000000000000001;1;2.331973054418313;40;97;24;1;
2019_03_21 12:09;42;1;1;timed;18;45;0;97;87;0;0;0.71999999999999997;0.28000000000000003;0.0;0.0;96;11;14;4;0.25;0.029999999999999999;0.14000000000000001;0.57999999999999996;0;1.9912193375985225;40;97;24;1;
2019_03_21 12:09;42;1;1;timed;19;82;0;78;66;30;27;0.28999999999999998;0.58999999999999997;0.080000000000000002;0.040000000000000001;90;6;0;0;0.82999999999999996;0.17000000000000001;0.0;0.0;1;3.0719021368909125;40;97;24;1;
2019_03_21 12:09;42;1;1;timed;20;52;0;71;51;10;54;0.22;0.12;0.19;0.46999999999999997;91;1;0;0;0.29999999999999999;0.69999999999999996;0.0;0.0;0;3.5622087063836716;40;97;24;1;
2019_03_21 12:09;42;1;1;timed;21;66;1;89;23;27;15;0.070000000000000007;0.54000000000000004;0.17000000000000001;0.22;9;73;0;0;0.72999999999999998;0.27000000000000002;0.0;0.0;1;3.4721701943688004;40;97;24;1;
2019_03_21 12:09;42;1;1;timed;22;1;0;22;51;0;0;0.26000000000000001;0.73999999999999999;0.0;0.0;14;11;92;31;0.29999999999999999;0.40999999999999998;0.14999999999999999;0.14000000000000001;0;3.232150668957047;40;97;24;1;
2019_03_21 12:09;42;1;1;timed;23;62;1;12;45;16;50;0.20999999999999999;0.76000000000000001;0.02;0.01;92;15;0;0;0.20999999999999999;0.79000000000000004;0.0;0.0;0;3.472056659615191;40;97;24;1;
2019_03_21 12:09;42;1;1;timed;24;83;0;17;12;7;41;0.65000000000000002;0.19;0.089999999999999997;0.070000000000000007;6;84;0;0;0.72999999999999998;0.27000000000000002;0.0;0.0;NA;3.822399893777856;40;97;24;1;
2019_03_21 12:09;42;1;1;timed;25;131;0;83;41;81;88;0.23999999999999999;0.58999999999999997;0.10000000000000001;0.070000000000000007;82;97;4;17;0.26000000000000001;0.46999999999999997;0.11;0.16;0;3.092331016027174;40;97;24;1;
2019_03_21 12:09;42;1;1;timed;26;139;1;44;31;16;8;0.79000000000000004;0.070000000000000007;0.13;0.0099999999999999499;92;58;2;88;0.55000000000000004;0.070000000000000007;0.34000000000000002;0.039999999999999897;1;1.6111152448308985;40;97;24;1;
2019_03_21 12:09;42;1;1;timed;27;38;0;40;70;0;0;0.53000000000000003;0.46999999999999997;0.0;0.0;97;90;6;96;0.56999999999999995;0.070000000000000007;0.27000000000000002;0.089999999999999997;1;2.471671796042756;40;97;24;1;
2019_03_21 12:09;42;1;1;timed;28;49;1;21;30;0;0;0.53000000000000003;0.46999999999999997;0.0;0.0;93;99;89;25;0.44;0.02;0.11;0.42999999999999999;1;2.2714057911705368;40;97;24;1;
2019_03_21 12:09;42;1;1;timed;29;32;1;19;81;0;0;0.93000000000000005;0.070000000000000007;0.0;0.0;1;65;41;68;0.45000000000000001;0.050000000000000003;0.059999999999999998;0.44;1;3.111939494314811;40;97;24;1;
2019_03_21 12:09;42;1;1;timed;30;89;1;26;41;13;56;0.059999999999999998;0.40999999999999998;0.050000000000000003;0.47999999999999998;5;97;0;0;0.37;0.63;0.0;0.0;1;2.1514508715235934;40;97;24;1;
2019_03_21 12:09;42;1;1;timed;31;116;0;53;65;43;99;0.56999999999999995;0.37;0.050000000000000003;0.010000000000000101;57;72;11;87;0.67000000000000004;0.13;0.14999999999999999;0.050000000000000003;1;3.4122616892689166;40;97;24;1;
2019_03_21 12:09;42;1;1;timed;32;61;1;43;18;39;70;0.75;0.089999999999999997;0.089999999999999997;0.070000000000000007;16;66;0;0;0.64000000000000001;0.35999999999999999;0.0;0.0;0;2.90233156766476;40;97;24;1;
2019_03_21 12:09;42;1;1;timed;33;65;0;75;64;59;52;0.59999999999999998;0.22;0.14000000000000001;0.040000000000000001;1;99;0;0;0.35999999999999999;0.64000000000000001;0.0;0.0;0;2.641643585543079;40;97;24;1;
2019_03_21 12:09;42;1;1;timed;34;91;0;74;81;86;48;0.93000000000000005;0.02;0.01;0.039999999999999897;7;64;0;0;0.13;0.87;0.0;0.0;0;2.501678967334101;40;97;24;1;
2019_03_21 12:09;42;1;1;timed;35;28;0;47;30;0;0;0.97999999999999998;0.02;0.0;0.0;55;48;77;13;0.070000000000000007;0.26000000000000001;0.42999999999999999;0.23999999999999999;1;3.7925213310634263;40;97;24;1;
2019_03_21 12:09;42;1;1;timed;36;70;0;66;55;69;50;0.22;0.29999999999999999;0.29999999999999999;0.17999999999999999;2;90;0;0;0.34000000000000002;0.66000000000000003;0.0;0.0;1;3.6823220615347054;40;97;24;1;
2019_03_21 12:09;42;1;1;timed;37;114;1;57;39;79;97;0.77000000000000002;0.02;0.13;0.080000000000000002;92;36;6;1;0.54000000000000004;0.12;0.13;0.20999999999999999;1;3.1721267047851143;40;97;24;1;
2019_03_21 12:09;42;1;1;timed;38;87;0;10;30;63;4;0.56999999999999995;0.12;0.16;0.14999999999999999;86;2;0;0;0.42999999999999999;0.56999999999999995;0.0;0.0;NA;3.8023892330566014;40;97;24;1;
2019_03_21 12:09;42;1;1;timed;39;123;1;26;24;51;92;0.72999999999999998;0.16;0.070000000000000007;0.040000000000000001;6;90;82;49;0.64000000000000001;0.25;0.050000000000000003;0.059999999999999998;1;2.732086845747972;40;97;24;1;
2019_03_21 12:09;42;1;1;timed;40;50;0;15;20;0;0;0.82999999999999996;0.17000000000000001;0.0;0.0;97;18;88;87;0.56999999999999995;0.39000000000000001;0.01;0.029999999999999999;1;2.291539287514979;40;97;24;1;
2019_03_21 12:09;42;1;1;timed;41;142;0;98;65;64;84;0.88;0.070000000000000007;0.01;0.040000000000000001;5;68;60;16;0.46000000000000002;0.080000000000000002;0.27000000000000002;0.19;0;1.490930689919196;40;97;24;1;
2019_03_21 12:09;42;1;1;timed;42;31;0;10;59;0;0;0.23999999999999999;0.76000000000000001;0.0;0.0;1;79;53;73;0.23000000000000001;0.58999999999999997;0.050000000000000003;0.13;1;2.801877685225236;40;97;24;1;
2019_03_21 12:09;42;1;1;timed;43;25;1;50;53;0;0;0.82999999999999996;0.17000000000000001;0.0;0.0;83;16;97;4;0.45000000000000001;0.29999999999999999;0.11;0.14000000000000001;1;3.071894760338864;40;97;24;1;
2019_03_21 12:09;42;1;1;timed;44;141;1;93;28;60;91;0.81999999999999995;0.10000000000000001;0.01;0.070000000000000007;14;85;7;89;0.45000000000000001;0.070000000000000007;0.23999999999999999;0.23999999999999999;0;3.332329373942457;40;97;24;1;
2019_03_21 12:09;42;1;1;timed;45;23;0;54;40;0;0;0.93000000000000005;0.070000000000000007;0.0;0.0;36;23;71;86;0.02;0.41999999999999998;0.19;0.37;0;2.5817921685395504;40;97;24;1;
2019_03_21 12:09;42;1;1;timed;46;150;1;25;21;78;38;0.84999999999999998;0.059999999999999998;0.050000000000000003;0.040000000000000001;31;43;64;95;0.059999999999999998;0.45000000000000001;0.13;0.35999999999999999;1;3.2520497192422226;40;97;24;1;
2019_03_21 12:09;42;1;1;timed;47;44;0;79;74;0;0;0.71999999999999997;0.28000000000000003;0.0;0.0;3;67;15;36;0.41999999999999998;0.53000000000000003;0.02;0.029999999999999999;0;2.821917210713991;40;97;24;1;
2019_03_21 12:09;42;1;1;timed;48;47;0;2;40;0;0;0.45000000000000001;0.55000000000000004;0.0;0.0;93;89;11;56;0.58999999999999997;0.070000000000000007;0.28000000000000003;0.059999999999999998;1;2.5516858948783465;40;97;24;1;
2019_03_21 12:09;42;1;1;timed;49;104;1;55;85;93;3;0.87;0.02;0.089999999999999997;0.02;1;2;90;8;0.35999999999999999;0.070000000000000007;0.40000000000000002;0.17000000000000001;0;2.8517800581655592;40;97;24;1;
2019_03_21 12:09;42;1;1;timed;50;99;0;8;24;15;73;0.56000000000000005;0.35999999999999999;0.070000000000000007;0.0099999999999999499;88;12;0;0;0.52000000000000002;0.47999999999999998;0.0;0.0;1;2.4716506285462856;40;97;24;1;
2019_03_21 12:09;42;1;1;timed;51;86;0;56;30;57;88;0.20000000000000001;0.35999999999999999;0.080000000000000002;0.35999999999999999;98;2;0;0;0.77000000000000002;0.23000000000000001;0.0;0.0;1;2.721719903989424;40;97;24;1;
2019_03_21 12:09;42;1;1;timed;52;79;1;52;46;29;22;0.17999999999999999;0.51000000000000001;0.23999999999999999;0.070000000000000104;93;14;0;0;0.45000000000000001;0.55000000000000004;0.0;0.0;1;3.7525125176875918;40;97;24;1;
2019_03_21 12:09;42;1;1;timed;53;59;0;56;47;83;90;0.31;0.12;0.54000000000000004;0.029999999999999898;10;98;0;0;0.46999999999999997;0.53000000000000003;0.0;0.0;1;3.242141406573637;40;97;24;1;
2019_03_21 12:09;42;1;1;timed;54;129;0;12;29;81;36;0.17999999999999999;0.79000000000000004;0.01;0.02;5;19;95;92;0.47999999999999998;0.26000000000000001;0.13;0.13;NA;3.802347218783325;40;97;24;1;
2019_03_21 12:09;42;1;1;timed;55;54;0;44;79;78;52;0.79000000000000004;0.19;0.01;0.0099999999999999603;96;1;0;0;0.28000000000000003;0.71999999999999997;0.0;0.0;0;2.7517469598985826;40;97;24;1;
2019_03_21 12:09;42;1;1;timed;56;13;0;52;56;0;0;0.46999999999999997;0.53000000000000003;0.0;0.0;94;71;27;2;0.089999999999999997;0.31;0.57999999999999996;0.020000000000000101;0;3.0819380959774207;40;97;24;1;
2019_03_21 12:09;42;1;1;timed;57;95;0;93;88;68;85;0.83999999999999997;0.14000000000000001;0.01;0.01;2;82;0;0;0.41999999999999998;0.57999999999999996;0.0;0.0;0;1.550939900987487;40;97;24;1;
2019_03_21 12:09;42;1;1;timed;58;97;0;17;33;32;74;0.94999999999999996;0.01;0.029999999999999999;0.01;76;23;0;0;0.33000000000000002;0.67000000000000004;0.0;0.0;1;2.3714709614021103;40;97;24;1;
2019_03_21 12:09;42;1;1;timed;59;105;1;49;74;63;58;0.84999999999999998;0.080000000000000002;0.02;0.050000000000000003;97;5;86;8;0.25;0.52000000000000002;0.070000000000000007;0.16;0;3.532209232364039;40;97;24;1;
2019_03_21 12:09;42;1;1;timed;60;56;1;28;84;37;41;0.68000000000000005;0.28000000000000003;0.02;0.0199999999999999;6;95;0;0;0.72999999999999998;0.27000000000000002;0.0;0.0;0;3.0319263576382127;40;97;24;1;
2019_03_21 12:09;42;1;1;timed;61;30;0;33;30;0;0;0.71999999999999997;0.28000000000000003;0.0;0.0;9;88;1;14;0.55000000000000004;0.39000000000000001;0.01;0.049999999999999899;1;3.1519441383352387;40;97;24;1;
2019_03_21 12:09;42;1;1;timed;62;93;0;87;81;73;98;0.80000000000000004;0.040000000000000001;0.14999999999999999;0.0099999999999999499;5;71;0;0;0.51000000000000001;0.48999999999999999;0.0;0.0;0;2.5517086659731376;40;97;24;1;
2019_03_21 12:09;42;1;1;timed;63;145;0;91;89;90;74;0.57999999999999996;0.29999999999999999;0.11;0.010000000000000101;2;75;84;39;0.32000000000000001;0.27000000000000002;0.39000000000000001;0.0199999999999999;0;2.9319410465980127;40;97;24;1;
2019_03_21 12:09;42;1;1;timed;64;33;1;27;70;0;0;0.88;0.12;0.0;0.0;93;3;77;16;0.080000000000000002;0.40000000000000002;0.5;0.02;0;2.591742174761521;40;97;24;1;
2019_03_21 12:09;42;1;1;timed;65;20;0;44;40;0;0;0.91000000000000003;0.089999999999999997;0.0;0.0;29;5;80;99;0.25;0.40000000000000002;0.26000000000000001;0.089999999999999997;0;3.3320872306117053;40;97;24;1;
2019_03_21 12:09;42;1;1;timed;66;78;0;74;36;34;3;0.14999999999999999;0.64000000000000001;0.13;0.080000000000000002;1;83;0;0;0.41999999999999998;0.57999999999999996;0.0;0.0;1;3.832834507380994;40;97;24;1;
2019_03_21 12:09;42;1;1;timed;67;85;0;31;22;82;50;0.11;0.69999999999999996;0.01;0.17999999999999999;3;99;0;0;0.62;0.38;0.0;0.0;1;3.0220251008022387;40;97;24;1;
2019_03_21 12:09;42;1;1;timed;68;5;0;70;5;0;0;0.98999999999999999;0.01;0.0;0.0;92;87;47;1;0.44;0.02;0.16;0.38;0;1.8212353607518708;40;97;24;1;
2019_03_21 12:09;42;1;1;timed;69;140;1;36;32;26;27;0.39000000000000001;0.14999999999999999;0.19;0.27000000000000002;44;3;99;25;0.29999999999999999;0.34000000000000002;0.34000000000000002;0.0199999999999999;1;3.6522744795681774;40;97;24;1;
2019_03_21 12:09;42;1;1;timed;70;41;0;99;40;0;0;0.89000000000000001;0.11;0.0;0.0;1;67;52;46;0.51000000000000001;0.38;0.029999999999999999;0.080000000000000002;0;1.4008469564346342;40;97;24;1;
2019_03_21 12:09;42;1;1;timed;71;96;0;51;54;39;7;0.17000000000000001;0.26000000000000001;0.10000000000000001;0.46999999999999997;24;96;0;0;0.28000000000000003;0.71999999999999997;0.0;0.0;1;2.751704624905642;40;97;24;1;
2019_03_21 12:09;42;1;1;timed;72;7;0;49;29;0;0;0.95999999999999996;0.040000000000000001;0.0;0.0;23;99;64;25;0.68999999999999995;0.12;0.059999999999999998;0.13;1;3.2320153252674118;40;97;24;1;
2019_03_21 12:09;42;1;1;timed;73;90;0;27;44;50;72;0.68000000000000005;0.28999999999999998;0.02;0.0099999999999999707;6;96;0;0;0.46999999999999997;0.53000000000000003;0.0;0.0;1;2.5915500636949673;40;97;24;1;
2019_03_21 12:09;42;1;1;timed;74;37;1;14;98;0;0;0.93000000000000005;0.070000000000000007;0.0;0.0;41;2;87;66;0.17999999999999999;0.48999999999999999;0.32000000000000001;0.010000000000000101;1;2.8017776206963845;40;97;24;1;
2019_03_21 12:09;42;1;1;timed;75;144;0;99;93;90;71;0.65000000000000002;0.32000000000000001;0.01;0.02;97;14;48;73;0.23000000000000001;0.46000000000000002;0.13;0.17999999999999999;0;1.2507508046855946;40;97;24;1;
2019_03_21 12:09;42;2;1;control;1;148;1;37;63;55;10;0.72999999999999998;0.070000000000000007;0.029999999999999999;0.17000000000000001;80;14;23;70;0.46999999999999997;0.10000000000000001;0.23000000000000001;0.20000000000000001;1;5.421270383336832;40;97;24;1;
2019_03_21 12:09;42;2;1;control;2;49;0;21;30;0;0;0.53000000000000003;0.46999999999999997;0.0;0.0;93;99;89;25;0.44;0.02;0.11;0.42999999999999999;1;2.3914684726178166;40;97;24;1;
2019_03_21 12:09;42;2;1;control;3;43;0;60;83;0;0;0.23000000000000001;0.77000000000000002;0.0;0.0;72;5;70;12;0.29999999999999999;0.40999999999999998;0.12;0.17000000000000001;0;2.4016628672079605;40;97;24;1;
2019_03_21 12:09;42;2;1;control;4;20;0;44;40;0;0;0.91000000000000003;0.089999999999999997;0.0;0.0;29;5;80;99;0.25;0.40000000000000002;0.26000000000000001;0.089999999999999997;1;3.3721072691746485;40;97;24;1;
2019_03_21 12:09;42;2;1;control;5;31;0;10;59;0;0;0.23999999999999999;0.76000000000000001;0.0;0.0;1;79;53;73;0.23000000000000001;0.58999999999999997;0.050000000000000003;0.13;1;2.551725343394537;40;97;24;1;
2019_03_21 12:09;42;2;1;control;6;139;1;44;31;16;8;0.79000000000000004;0.070000000000000007;0.13;0.0099999999999999499;92;58;2;88;0.55000000000000004;0.070000000000000007;0.34000000000000002;0.039999999999999897;1;1.7710674319469035;40;97;24;1;
2019_03_21 12:09;42;2;1;control;7;119;1;60;58;11;18;0.25;0.72999999999999998;0.01;0.01;96;23;42;85;0.44;0.48999999999999999;0.059999999999999998;0.010000000000000101;1;2.411562199726177;40;97;24;1;
2019_03_21 12:09;42;2;1;control;8;86;1;56;30;57;88;0.20000000000000001;0.35999999999999999;0.080000000000000002;0.35999999999999999;98;2;0;0;0.77000000000000002;0.23000000000000001;0.0;0.0;1;1.8811653540683437;40;97;24;1;
2019_03_21 12:09;42;2;1;control;9;75;0;67;80;36;81;0.81999999999999995;0.080000000000000002;0.059999999999999998;0.040000000000000001;3;97;0;0;0.32000000000000001;0.68000000000000005;0.0;0.0;0;8.235435158826931;40;97;24;1;
2019_03_21 12:09;42;2;1;control;10;95;1;93;88;68;85;0.83999999999999997;0.14000000000000001;0.01;0.01;2;82;0;0;0.41999999999999998;0.57999999999999996;0.0;0.0;0;3.2321416888071326;40;97;24;1;
2019_03_21 12:09;42;2;1;control;11;70;1;66;55;69;50;0.22;0.29999999999999999;0.29999999999999999;0.17999999999999999;2;90;0;0;0.34000000000000002;0.66000000000000003;0.0;0.0;1;5.233422643063022;40;97;24;1;
2019_03_21 12:09;42;2;1;control;12;26;1;76;41;0;0;0.57999999999999996;0.41999999999999998;0.0;0.0;61;79;84;2;0.13;0.029999999999999999;0.67000000000000004;0.17000000000000001;1;4.873068145226625;40;97;24;1;
2019_03_21 12:09;42;2;1;control;13;83;0;17;12;7;41;0.65000000000000002;0.19;0.089999999999999997;0.070000000000000007;6;84;0;0;0.72999999999999998;0.27000000000000002;0.0;0.0;0;4.032653108350587;40;97;24;1;
2019_03_21 12:09;42;2;1;control;14;6;0;9;51;0;0;0.14999999999999999;0.84999999999999998;0.0;0.0;6;40;50;73;0.42999999999999999;0.26000000000000001;0.059999999999999998;0.25;0;8.4153415600058;40;97;24;1;
2019_03_21 12:09;42;2;1;control;15;44;1;79;74;0;0;0.71999999999999997;0.28000000000000003;0.0;0.0;3;67;15;36;0.41999999999999998;0.53000000000000003;0.02;0.029999999999999999;0;3.6022685141829243;40;97;24;1;
2019_03_21 12:09;42;2;1;control;16;24;1;35;27;0;0;0.070000000000000007;0.93000000000000005;0.0;0.0;62;3;81;95;0.35999999999999999;0.55000000000000004;0.01;0.080000000000000002;1;4.392719599947213;40;97;24;1;
2019_03_21 12:09;42;2;1;control;17;73;0;65;68;70;47;0.25;0.23000000000000001;0.20999999999999999;0.31;27;95;0;0;0.45000000000000001;0.55000000000000004;0.0;0.0;1;2.721838890976869;40;97;24;1;
2019_03_21 12:09;42;2;1;control;18;68;1;84;27;55;62;0.01;0.050000000000000003;0.40999999999999998;0.53000000000000003;9;82;0;0;0.37;0.63;0.0;0.0;1;9.466020395203486;40;97;24;1;
2019_03_21 12:09;42;2;1;control;19;79;1;52;46;29;22;0.17999999999999999;0.51000000000000001;0.23999999999999999;0.070000000000000104;93;14;0;0;0.45000000000000001;0.55000000000000004;0.0;0.0;1;3.892569182434272;40;97;24;1;
2019_03_21 12:09;42;2;1;control;20;136;1;29;67;14;75;0.46000000000000002;0.29999999999999999;0.20999999999999999;0.0300000000000001;70;86;1;85;0.31;0.39000000000000001;0.27000000000000002;0.029999999999999898;1;3.5723691046919157;40;97;24;1;
2019_03_21 12:09;42;2;1;control;21;146;0;25;5;64;35;0.94999999999999996;0.02;0.01;0.02;47;97;12;79;0.20999999999999999;0.029999999999999999;0.02;0.73999999999999999;0;4.4528426664887775;40;97;24;1;
2019_03_21 12:09;42;2;1;control;22;42;0;70;48;0;0;0.79000000000000004;0.20999999999999999;0.0;0.0;51;8;12;67;0.19;0.26000000000000001;0.28999999999999998;0.26000000000000001;0;4.112713070095197;40;97;24;1;
2019_03_21 12:09;42;2;1;control;23;82;1;78;66;30;27;0.28999999999999998;0.58999999999999997;0.080000000000000002;0.040000000000000001;90;6;0;0;0.82999999999999996;0.17000000000000001;0.0;0.0;1;1.3109197341364052;40;97;24;1;
2019_03_21 12:09;42;2;1;control;24;130;1;37;79;23;95;0.94999999999999996;0.029999999999999999;0.01;0.01;94;4;58;49;0.46000000000000002;0.5;0.029999999999999999;0.01;1;3.6823127606648995;40;97;24;1;
2019_03_21 12:09;42;2;1;control;25;97;1;17;33;32;74;0.94999999999999996;0.01;0.029999999999999999;0.01;76;23;0;0;0.33000000000000002;0.67000000000000004;0.0;0.0;1;7.304602519317086;40;97;24;1;
2019_03_21 12:09;42;2;1;control;26;17;1;81;52;0;0;0.059999999999999998;0.93999999999999995;0.0;0.0;34;3;69;41;0.01;0.22;0.75;0.02;0;7.004435552670657;40;97;24;1;
2019_03_21 12:09;42;2;1;control;27;25;0;50;53;0;0;0.82999999999999996;0.17000000000000001;0.0;0.0;83;16;97;4;0.45000000000000001;0.29999999999999999;0.11;0.14000000000000001;1;5.993780604671883;40;97;24;1;
2019_03_21 12:09;42;2;1;control;28;15;1;77;81;0;0;0.28000000000000003;0.71999999999999997;0.0;0.0;98;14;87;18;0.55000000000000004;0.23000000000000001;0.16;0.059999999999999901;1;1.8715854583151668;40;97;24;1;
2019_03_21 12:09;42;2;1;control;29;50;1;15;20;0;0;0.82999999999999996;0.17000000000000001;0.0;0.0;97;18;88;87;0.56999999999999995;0.39000000000000001;0.01;0.029999999999999999;1;3.182135723421652;40;97;24;1;
2019_03_21 12:09;42;2;1;control;30;105;1;49;74;63;58;0.84999999999999998;0.080000000000000002;0.02;0.050000000000000003;97;5;86;8;0.25;0.52000000000000002;0.070000000000000007;0.16;0;3.1720426762385614;40;97;24;1;
2019_03_21 12:09;42;2;1;control;31;30;0;33;30;0;0;0.71999999999999997;0.28000000000000003;0.0;0.0;9;88;1;14;0.55000000000000004;0.39000000000000001;0.01;0.049999999999999899;0;5.193271109445959;40;97;24;1;
2019_03_21 12:09;42;2;1;control;32;133;1;59;88;60;36;0.67000000000000004;0.070000000000000007;0.12;0.14000000000000001;7;91;66;61;0.25;0.68999999999999995;0.01;0.0500000000000001;1;5.323565709682043;40;97;24;1;
2019_03_21 12:09;42;2;1;control;33;81;1;67;38;52;65;0.27000000000000002;0.35999999999999999;0.01;0.35999999999999999;2;77;0;0;0.14000000000000001;0.85999999999999999;0.0;0.0;0;7.224705162431746;40;97;24;1;
2019_03_21 12:09;42;2;1;control;34;101;0;30;96;61;45;0.65000000000000002;0.14000000000000001;0.11;0.10000000000000001;3;98;63;89;0.75;0.19;0.040000000000000001;0.02;0;5.933872420291209;40;97;24;1;
2019_03_21 12:09;42;2;1;control;35;87;1;10;30;63;4;0.56999999999999995;0.12;0.16;0.14999999999999999;86;2;0;0;0.42999999999999999;0.56999999999999995;0.0;0.0;1;6.804306495086166;40;97;24;1;
2019_03_21 12:09;42;2;1;control;36;84;0;43;10;5;45;0.78000000000000003;0.13;0.059999999999999998;0.029999999999999999;87;1;0;0;0.57999999999999996;0.41999999999999998;0.0;0.0;1;3.3921034975119255;40;97;24;1;
2019_03_21 12:09;42;2;1;control;37;39;0;14;33;0;0;0.78000000000000003;0.22;0.0;0.0;93;84;1;25;0.14000000000000001;0.23999999999999999;0.39000000000000001;0.23000000000000001;1;6.204098925332801;40;97;24;1;
2019_03_21 12:09;42;2;1;control;38;85;0;31;22;82;50;0.11;0.69999999999999996;0.01;0.17999999999999999;3;99;0;0;0.62;0.38;0.0;0.0;0;4.682957727867688;40;97;24;1;
2019_03_21 12:09;42;2;1;control;39;107;0;52;48;13;63;0.68000000000000005;0.19;0.050000000000000003;0.079999999999999905;54;91;33;3;0.19;0.17999999999999999;0.33000000000000002;0.29999999999999999;1;13.098312437379263;40;97;24;1;
2019_03_21 12:09;42;2;1;control;40;45;1;97;87;0;0;0.71999999999999997;0.28000000000000003;0.0;0.0;96;11;14;4;0.25;0.029999999999999999;0.14000000000000001;0.57999999999999996;0;2.5516846119994625;40;97;24;1;
2019_03_21 12:09;42;2;1;control;41;8;1;50;36;0;0;0.080000000000000002;0.92000000000000004;0.0;0.0;6;19;84;29;0.54000000000000004;0.070000000000000007;0.17000000000000001;0.22;1;8.715686846774588;40;97;24;1;
2019_03_21 12:09;42;2;1;control;42;23;0;54;40;0;0;0.93000000000000005;0.070000000000000007;0.0;0.0;36;23;71;86;0.02;0.41999999999999998;0.19;0.37;0;3.872578406331286;40;97;24;1;
2019_03_21 12:09;42;2;1;control;43;18;1;68;50;0;0;0.029999999999999999;0.96999999999999997;0.0;0.0;34;64;15;89;0.65000000000000002;0.029999999999999999;0.050000000000000003;0.27000000000000002;1;2.9918732849519074;40;97;24;1;
2019_03_21 12:09;42;2;1;control;44;92;0;90;86;65;94;0.16;0.34000000000000002;0.28000000000000003;0.22;79;22;0;0;0.35999999999999999;0.64000000000000001;0.0;0.0;0;4.963334368188953;40;97;24;1;
2019_03_21 12:09;42;2;1;control;45;12;0;53;68;0;0;0.31;0.68999999999999995;0.0;0.0;69;54;97;29;0.25;0.20999999999999999;0.20000000000000001;0.34000000000000002;1;5.073191429857616;40;97;24;1;
2019_03_21 12:09;42;2;1;control;46;100;0;27;14;59;52;0.02;0.95999999999999996;0.01;0.01;17;98;0;0;0.48999999999999999;0.51000000000000001;0.0;0.0;1;3.8325240507660965;40;97;24;1;
2019_03_21 12:09;42;2;1;control;47;54;1;44;79;78;52;0.79000000000000004;0.19;0.01;0.0099999999999999603;96;1;0;0;0.28000000000000003;0.71999999999999997;0.0;0.0;0;6.0738485844071874;40;97;24;1;
2019_03_21 12:09;42;2;1;control;48;134;1;57;48;50;55;0.02;0.62;0.17999999999999999;0.17999999999999999;80;96;15;18;0.23999999999999999;0.35999999999999999;0.33000000000000002;0.070000000000000007;1;5.933874344609194;40;97;24;1;
2019_03_21 12:09;42;2;1;control;49;145;0;91;89;90;74;0.57999999999999996;0.29999999999999999;0.11;0.010000000000000101;2;75;84;39;0.32000000000000001;0.27000000000000002;0.39000000000000001;0.0199999999999999;0;2.171335489424564;40;97;24;1;
2019_03_21 12:09;42;2;1;control;50;142;0;98;65;64;84;0.88;0.070000000000000007;0.01;0.040000000000000001;5;68;60;16;0.46000000000000002;0.080000000000000002;0.27000000000000002;0.19;0;1.400985186600792;40;97;24;1;
2019_03_21 12:09;42;2;1;control;51;52;1;71;51;10;54;0.22;0.12;0.19;0.46999999999999997;91;1;0;0;0.29999999999999999;0.69999999999999996;0.0;0.0;0;2.95196710186201;40;97;24;1;
2019_03_21 12:09;42;2;1;control;52;140;0;36;32;26;27;0.39000000000000001;0.14999999999999999;0.19;0.27000000000000002;44;3;99;25;0.29999999999999999;0.34000000000000002;0.34000000000000002;0.0199999999999999;0;6.934451960687511;40;97;24;1;
2019_03_21 12:09;42;2;1;control;53;53;0;26;70;50;80;0.29999999999999999;0.59999999999999998;0.040000000000000001;0.059999999999999998;89;1;0;0;0.40999999999999998;0.58999999999999997;0.0;0.0;0;10.56683989803696;40;97;24;1;
2019_03_21 12:09;42;2;1;control;54;80;1;47;39;45;10;0.13;0.76000000000000001;0.059999999999999998;0.050000000000000003;2;87;0;0;0.48999999999999999;0.51000000000000001;0.0;0.0;1;2.6417606482132214;40;97;24;1;
2019_03_21 12:09;42;2;1;control;55;89;1;26;41;13;56;0.059999999999999998;0.40999999999999998;0.050000000000000003;0.47999999999999998;5;97;0;0;0.37;0.63;0.0;0.0;1;3.161989398291553;40;97;24;1;
2019_03_21 12:09;42;2;1;control;56;88;0;77;13;12;7;0.12;0.19;0.66000000000000003;0.029999999999999898;94;2;0;0;0.40999999999999998;0.58999999999999997;0.0;0.0;1;5.373386940552791;40;97;24;1;
2019_03_21 12:09;42;2;1;control;57;147;1;39;43;76;28;0.14000000000000001;0.10000000000000001;0.10000000000000001;0.66000000000000003;6;31;68;85;0.27000000000000002;0.20000000000000001;0.22;0.31;0;7.544778235195281;40;97;24;1;
2019_03_21 12:09;42;2;1;control;58;138;1;8;20;43;51;0.38;0.5;0.02;0.10000000000000001;72;82;70;1;0.39000000000000001;0.050000000000000003;0.070000000000000007;0.48999999999999999;0;5.213510763992417;40;97;24;1;
2019_03_21 12:09;42;2;1;control;59;106;0;85;69;22;61;0.10000000000000001;0.58999999999999997;0.17999999999999999;0.13;20;79;91;84;0.55000000000000004;0.14999999999999999;0.26000000000000001;0.039999999999999897;1;6.414054832795955;40;97;24;1;
2019_03_21 12:09;42;2;1;control;60;56;0;28;84;37;41;0.68000000000000005;0.28000000000000003;0.02;0.0199999999999999;6;95;0;0;0.72999999999999998;0.27000000000000002;0.0;0.0;0;3.2320137216693183;40;97;24;1;
2019_03_21 12:09;42;2;1;control;61;1;1;22;51;0;0;0.26000000000000001;0.73999999999999999;0.0;0.0;14;11;92;31;0.29999999999999999;0.40999999999999998;0.14999999999999999;0.14000000000000001;0;6.394048662150453;40;97;24;1;
2019_03_21 12:09;42;2;1;control;62;57;1;52;35;23;47;0.22;0.68000000000000005;0.040000000000000001;0.059999999999999998;71;7;0;0;0.28999999999999998;0.70999999999999996;0.0;0.0;0;2.0313946044693694;40;97;24;1;
2019_03_21 12:09;42;2;1;control;63;21;0;64;28;0;0;0.080000000000000002;0.92000000000000004;0.0;0.0;50;1;88;13;0.57999999999999996;0.13;0.02;0.27000000000000002;1;7.554896298510357;40;97;24;1;
2019_03_21 12:09;42;2;1;control;64;137;0;71;22;28;17;0.25;0.46000000000000002;0.050000000000000003;0.23999999999999999;3;98;92;69;0.42999999999999999;0.23999999999999999;0.20000000000000001;0.13;0;11.177298629757388;40;97;24;1;
2019_03_21 12:09;42;2;1;control;65;37;0;14;98;0;0;0.93000000000000005;0.070000000000000007;0.0;0.0;41;2;87;66;0.17999999999999999;0.48999999999999999;0.32000000000000001;0.010000000000000101;1;2.0312499599099283;40;97;24;1;
2019_03_21 12:09;42;2;1;control;66;143;0;88;44;56;73;0.95999999999999996;0.02;0.01;0.01;20;3;87;32;0.19;0.40000000000000002;0.28000000000000003;0.13;0;3.322067948946824;40;97;24;1;
2019_03_21 12:09;42;2;1;control;67;62;0;12;45;16;50;0.20999999999999999;0.76000000000000001;0.02;0.01;92;15;0;0;0.20999999999999999;0.79000000000000004;0.0;0.0;0;2.8717756450632805;40;97;24;1;
2019_03_21 12:09;42;2;1;control;68;46;1;5;19;0;0;0.32000000000000001;0.68000000000000005;0.0;0.0;88;38;97;66;0.60999999999999999;0.20000000000000001;0.040000000000000001;0.14999999999999999;1;3.472066281204661;40;97;24;1;
2019_03_21 12:09;42;2;1;control;69;61;1;43;18;39;70;0.75;0.089999999999999997;0.089999999999999997;0.070000000000000007;16;66;0;0;0.64000000000000001;0.35999999999999999;0.0;0.0;0;6.904364609485128;40;97;24;1;
2019_03_21 12:09;42;2;1;control;70;9;1;61;69;0;0;0.93999999999999995;0.060000000000000102;0.0;0.0;18;93;72;16;0.40999999999999998;0.34999999999999998;0.089999999999999997;0.14999999999999999;0;3.9926439742553157;40;97;24;1;
2019_03_21 12:09;42;2;1;control;71;48;1;13;32;0;0;0.90000000000000002;0.10000000000000001;0.0;0.0;24;99;84;94;0.62;0.14999999999999999;0.20000000000000001;0.029999999999999999;1;3.362097288379573;40;97;24;1;
2019_03_21 12:09;42;2;1;control;72;96;0;51;54;39;7;0.17000000000000001;0.26000000000000001;0.10000000000000001;0.46999999999999997;24;96;0;0;0.28000000000000003;0.71999999999999997;0.0;0.0;1;3.4320959541860248;40;97;24;1;
2019_03_21 12:09;42;2;1;control;73;125;1;37;41;10;35;0.91000000000000003;0.040000000000000001;0.029999999999999999;0.02;7;13;91;93;0.26000000000000001;0.39000000000000001;0.16;0.19;1;9.095757263979067;40;97;24;1;
2019_03_21 12:09;42;2;1;control;74;112;1;70;44;98;64;0.02;0.75;0.12;0.11;33;2;63;85;0.23999999999999999;0.31;0.080000000000000002;0.37;0;5.493592662960964;40;97;24;1;
2019_03_21 12:09;42;2;1;control;75;72;0;63;82;51;61;0.01;0.96999999999999997;0.01;0.01;92;12;0;0;0.89000000000000001;0.11;0.0;0.0;1;2.7518467037075425;40;97;24;1;
2019_03_21 12:09;42;3;1;timed;1;46;0;5;19;0;0;0.32000000000000001;0.68000000000000005;0.0;0.0;88;38;97;66;0.60999999999999999;0.20000000000000001;0.040000000000000001;0.14999999999999999;1;2.965446627761139;40;97;24;1;
2019_03_21 12:09;42;3;1;timed;2;12;0;53;68;0;0;0.31;0.68999999999999995;0.0;0.0;69;54;97;29;0.25;0.20999999999999999;0.20000000000000001;0.34000000000000002;0;3.562300432201937;40;97;24;1;
2019_03_21 12:09;42;3;1;timed;3;2;1;59;32;0;0;0.080000000000000002;0.92000000000000004;0.0;0.0;33;38;85;1;0.28999999999999998;0.050000000000000003;0.070000000000000007;0.58999999999999997;1;2.9920028556875877;40;97;24;1;
2019_03_21 12:09;42;3;1;timed;4;117;0;65;85;92;41;0.23000000000000001;0.17999999999999999;0.54000000000000004;0.050000000000000003;99;93;10;13;0.64000000000000001;0.16;0.01;0.19;1;3.0920240873283547;40;97;24;1;
2019_03_21 12:09;42;3;1;timed;5;9;0;61;69;0;0;0.93999999999999995;0.060000000000000102;0.0;0.0;18;93;72;16;0.40999999999999998;0.34999999999999998;0.089999999999999997;0.14999999999999999;0;2.9618366074532787;40;97;24;1;
2019_03_21 12:09;42;3;1;timed;6;122;0;35;58;25;31;0.81999999999999995;0.070000000000000007;0.080000000000000002;0.029999999999999999;18;64;68;89;0.63;0.17000000000000001;0.11;0.089999999999999997;1;2.4516133480947246;40;97;24;1;
2019_03_21 12:09;42;3;1;timed;7;6;0;9;51;0;0;0.14999999999999999;0.84999999999999998;0.0;0.0;6;40;50;73;0.42999999999999999;0.26000000000000001;0.059999999999999998;0.25;0;3.182106217214823;40;97;24;1;
2019_03_21 12:09;42;3;1;timed;8;53;0;26;70;50;80;0.29999999999999999;0.59999999999999998;0.040000000000000001;0.059999999999999998;89;1;0;0;0.40999999999999998;0.58999999999999997;0.0;0.0;0;2.871790077447713;40;97;24;1;
2019_03_21 12:09;42;3;1;timed;9;17;1;81;52;0;0;0.059999999999999998;0.93999999999999995;0.0;0.0;34;3;69;41;0.01;0.22;0.75;0.02;NA;3.8023087324263543;40;97;24;1;
2019_03_21 12:09;42;3;1;timed;10;134;0;57;48;50;55;0.02;0.62;0.17999999999999999;0.17999999999999999;80;96;15;18;0.23999999999999999;0.35999999999999999;0.33000000000000002;0.070000000000000007;1;3.132347847393703;40;97;24;1;
2019_03_21 12:09;42;3;1;timed;11;118;1;62;52;65;68;0.40999999999999998;0.44;0.10000000000000001;0.0500000000000001;79;20;14;37;0.56999999999999995;0.23999999999999999;0.14000000000000001;0.050000000000000003;1;2.971986422012833;40;97;24;1;
2019_03_21 12:09;42;3;1;timed;12;100;1;27;14;59;52;0.02;0.95999999999999996;0.01;0.01;17;98;0;0;0.48999999999999999;0.51000000000000001;0.0;0.0;0;2.6216293969059734;40;97;24;1;
2019_03_21 12:09;42;3;1;timed;13;128;1;70;49;27;54;0.27000000000000002;0.53000000000000003;0.02;0.17999999999999999;72;97;6;20;0.29999999999999999;0.39000000000000001;0.22;0.0899999999999999;1;3.1719259342880832;40;97;24;1;
2019_03_21 12:09;42;3;1;timed;14;39;0;14;33;0;0;0.78000000000000003;0.22;0.0;0.0;93;84;1;25;0.14000000000000001;0.23999999999999999;0.39000000000000001;0.23000000000000001;1;2.1615240340888704;40;97;24;1;
2019_03_21 12:09;42;3;1;timed;15;58;1;37;58;76;34;0.20999999999999999;0.57999999999999996;0.19;0.020000000000000101;86;5;0;0;0.47999999999999998;0.52000000000000002;0.0;0.0;0;1.951179414417311;40;97;24;1;
2019_03_21 12:09;42;3;1;timed;16;138;0;8;20;43;51;0.38;0.5;0.02;0.10000000000000001;72;82;70;1;0.39000000000000001;0.050000000000000003;0.070000000000000007;0.48999999999999999;1;3.0619190965458074;40;97;24;1;
2019_03_21 12:09;42;3;1;timed;17;4;1;40;43;0;0;0.58999999999999997;0.40999999999999998;0.0;0.0;2;33;88;81;0.69999999999999996;0.14000000000000001;0.13;0.029999999999999999;1;1.911212294595316;40;97;24;1;
2019_03_21 12:09;42;3;1;timed;18;77;1;24;17;99;41;0.17999999999999999;0.13;0.10000000000000001;0.58999999999999997;12;97;0;0;0.59999999999999998;0.40000000000000002;0.0;0.0;1;3.7223404964997826;40;97;24;1;
2019_03_21 12:09;42;3;1;timed;19;101;1;30;96;61;45;0.65000000000000002;0.14000000000000001;0.11;0.10000000000000001;3;98;63;89;0.75;0.19;0.040000000000000001;0.02;0;2.7718650617002822;40;97;24;1;
2019_03_21 12:09;42;3;1;timed;20;67;1;44;42;8;89;0.88;0.070000000000000007;0.029999999999999999;0.02;10;63;0;0;0.39000000000000001;0.60999999999999999;0.0;0.0;1;2.6717864212432687;40;97;24;1;
2019_03_21 12:09;42;3;1;timed;21;60;1;64;59;57;96;0.83999999999999997;0.13;0.02;0.01;83;6;0;0;0.54000000000000004;0.46000000000000002;0.0;0.0;0;2.631617248046041;40;97;24;1;
2019_03_21 12:09;42;3;1;timed;22;21;1;64;28;0;0;0.080000000000000002;0.92000000000000004;0.0;0.0;50;1;88;13;0.57999999999999996;0.13;0.02;0.27000000000000002;1;2.5617728483880455;40;97;24;1;
2019_03_21 12:09;42;3;1;timed;23;16;0;64;53;0;0;0.65000000000000002;0.34999999999999998;0.0;0.0;29;17;81;46;0.10000000000000001;0.01;0.44;0.45000000000000001;0;2.741718698083332;40;97;24;1;
2019_03_21 12:09;42;3;1;timed;24;43;1;60;83;0;0;0.23000000000000001;0.77000000000000002;0.0;0.0;72;5;70;12;0.29999999999999999;0.40999999999999998;0.12;0.17000000000000001;0;3.242247244056216;40;97;24;1;
2019_03_21 12:09;42;3;1;timed;25;8;1;50;36;0;0;0.080000000000000002;0.92000000000000004;0.0;0.0;6;19;84;29;0.54000000000000004;0.070000000000000007;0.17000000000000001;0.22;1;3.272170386801008;40;97;24;1;
2019_03_21 12:09;42;3;1;timed;26;80;1;47;39;45;10;0.13;0.76000000000000001;0.059999999999999998;0.050000000000000003;2;87;0;0;0.48999999999999999;0.51000000000000001;0.0;0.0;1;2.7116127451417924;40;97;24;1;
2019_03_21 12:09;42;3;1;timed;27;55;1;74;55;47;48;0.60999999999999999;0.31;0.070000000000000007;0.01;97;6;0;0;0.42999999999999999;0.56999999999999995;0.0;0.0;0;3.191989193030622;40;97;24;1;
2019_03_21 12:09;42;3;1;timed;28;71;0;68;55;36;51;0.20000000000000001;0.75;0.02;0.029999999999999999;38;81;0;0;0.52000000000000002;0.47999999999999998;0.0;0.0;1;2.311412038789058;40;97;24;1;
2019_03_21 12:09;42;3;1;timed;29;84;1;43;10;5;45;0.78000000000000003;0.13;0.059999999999999998;0.029999999999999999;87;1;0;0;0.57999999999999996;0.41999999999999998;0.0;0.0;1;1.6709919986865316;40;97;24;1;
2019_03_21 12:09;42;3;1;timed;30;125;0;37;41;10;35;0.91000000000000003;0.040000000000000001;0.029999999999999999;0.02;7;13;91;93;0.26000000000000001;0.39000000000000001;0.16;0.19;0;3.051898211282605;40;97;24;1;
2019_03_21 12:09;42;3;1;timed;31;26;0;76;41;0;0;0.57999999999999996;0.41999999999999998;0.0;0.0;61;79;84;2;0.13;0.029999999999999999;0.67000000000000004;0.17000000000000001;1;2.731669910211167;40;97;24;1;
2019_03_21 12:09;42;3;1;timed;32;73;0;65;68;70;47;0.25;0.23000000000000001;0.20999999999999999;0.31;27;95;0;0;0.45000000000000001;0.55000000000000004;0.0;0.0;1;1.9813578499979485;40;97;24;1;
2019_03_21 12:09;42;3;1;timed;33;35;1;33;37;0;0;0.88;0.12;0.0;0.0;63;4;79;98;0.16;0.46000000000000002;0.17000000000000001;0.20999999999999999;1;2.4315032642848564;40;97;24;1;
2019_03_21 12:09;42;3;1;timed;34;74;1;66;47;52;44;0.41999999999999998;0.26000000000000001;0.17999999999999999;0.14000000000000001;17;99;0;0;0.47999999999999998;0.52000000000000002;0.0;0.0;1;1.6610253150429344;40;97;24;1;
2019_03_21 12:09;42;3;1;timed;35;10;0;45;62;0;0;0.059999999999999998;0.93999999999999995;0.0;0.0;17;99;28;67;0.58999999999999997;0.34000000000000002;0.01;0.059999999999999998;0;1.5211155398933442;40;97;24;1;
2019_03_21 12:09;42;3;1;timed;36;119;0;60;58;11;18;0.25;0.72999999999999998;0.01;0.01;96;23;42;85;0.44;0.48999999999999999;0.059999999999999998;0.010000000000000101;1;2.2614102427592115;40;97;24;1;
2019_03_21 12:09;42;3;1;timed;37;110;0;47;44;23;52;0.13;0.27000000000000002;0.040000000000000001;0.56000000000000005;99;2;30;22;0.28999999999999998;0.5;0.11;0.10000000000000001;1;2.3716104744471522;40;97;24;1;
2019_03_21 12:09;42;3;1;timed;38;146;1;25;5;64;35;0.94999999999999996;0.02;0.01;0.02;47;97;12;79;0.20999999999999999;0.029999999999999999;0.02;0.73999999999999999;1;1.6810176947442415;40;97;24;1;
2019_03_21 12:09;42;3;1;timed;39;69;0;54;34;64;49;0.34000000000000002;0.25;0.20999999999999999;0.20000000000000001;14;98;0;0;0.62;0.38;0.0;0.0;0;2.4416190825622834;40;97;24;1;
2019_03_21 12:09;42;3;1;timed;40;24;0;35;27;0;0;0.070000000000000007;0.93000000000000005;0.0;0.0;62;3;81;95;0.35999999999999999;0.55000000000000004;0.01;0.080000000000000002;1;2.2315063431929048;40;97;24;1;
2019_03_21 12:09;42;3;1;timed;41;147;1;39;43;76;28;0.14000000000000001;0.10000000000000001;0.10000000000000001;0.66000000000000003;6;31;68;85;0.27000000000000002;0.20000000000000001;0.22;0.31;0;2.131301980636181;40;97;24;1;
2019_03_21 12:09;42;3;1;timed;42;22;1;32;55;0;0;0.39000000000000001;0.60999999999999999;0.0;0.0;93;72;59;22;0.20000000000000001;0.11;0.14000000000000001;0.55000000000000004;1;2.8717567226044594;40;97;24;1;
2019_03_21 12:09;42;3;1;timed;43;132;0;27;70;21;19;0.64000000000000001;0.23000000000000001;0.029999999999999999;0.10000000000000001;11;85;55;6;0.39000000000000001;0.46999999999999997;0.029999999999999999;0.11;1;3.2521558774442383;40;97;24;1;
2019_03_21 12:09;42;3;1;timed;44;18;1;68;50;0;0;0.029999999999999999;0.96999999999999997;0.0;0.0;34;64;15;89;0.65000000000000002;0.029999999999999999;0.050000000000000003;0.27000000000000002;0;3.271998801791142;40;97;24;1;
2019_03_21 12:09;42;3;1;timed;45;109;1;75;28;16;56;0.19;0.070000000000000007;0.059999999999999998;0.68000000000000005;3;50;98;44;0.5;0.02;0.34999999999999998;0.13;1;2.5716083576976416;40;97;24;1;
2019_03_21 12:09;42;3;1;timed;46;42;0;70;48;0;0;0.79000000000000004;0.20999999999999999;0.0;0.0;51;8;12;67;0.19;0.26000000000000001;0.28999999999999998;0.26000000000000001;1;2.5515592106194163;40;97;24;1;
2019_03_21 12:09;42;3;1;timed;47;130;1;37;79;23;95;0.94999999999999996;0.029999999999999999;0.01;0.01;94;4;58;49;0.46000000000000002;0.5;0.029999999999999999;0.01;0;2.3313957590598875;40;97;24;1;
2019_03_21 12:09;42;3;1;timed;48;136;1;29;67;14;75;0.46000000000000002;0.29999999999999999;0.20999999999999999;0.0300000000000001;70;86;1;85;0.31;0.39000000000000001;0.27000000000000002;0.029999999999999898;1;3.332177994270751;40;97;24;1;
2019_03_21 12:09;42;3;1;timed;49;127;1;89;26;62;79;0.02;0.28999999999999998;0.53000000000000003;0.16;96;6;60;13;0.53000000000000003;0.25;0.17000000000000001;0.050000000000000003;0;2.1313388633952854;40;97;24;1;
2019_03_21 12:09;42;3;1;timed;50;81;0;67;38;52;65;0.27000000000000002;0.35999999999999999;0.01;0.35999999999999999;2;77;0;0;0.14000000000000001;0.85999999999999999;0.0;0.0;1;2.7216801347535693;40;97;24;1;
2019_03_21 12:09;42;3;1;timed;51;3;0;53;40;0;0;0.31;0.68999999999999995;0.0;0.0;96;24;7;88;0.11;0.27000000000000002;0.58999999999999997;0.029999999999999999;1;2.3515603652099344;40;97;24;1;
2019_03_21 12:09;42;3;1;timed;52;88;1;77;13;12;7;0.12;0.19;0.66000000000000003;0.029999999999999898;94;2;0;0;0.40999999999999998;0.58999999999999997;0.0;0.0;1;2.5116543104081757;40;97;24;1;
2019_03_21 12:09;42;3;1;timed;53;126;1;16;55;51;42;0.68999999999999995;0.23999999999999999;0.01;0.060000000000000102;66;4;1;5;0.46999999999999997;0.38;0.089999999999999997;0.059999999999999998;0;1.7710757706572622;40;97;24;1;
2019_03_21 12:09;42;3;1;timed;54;29;0;44;51;0;0;0.78000000000000003;0.22;0.0;0.0;74;1;68;82;0.69999999999999996;0.28000000000000003;0.01;0.01;1;2.4016173250183783;40;97;24;1;
2019_03_21 12:09;42;3;1;timed;55;106;1;85;69;22;61;0.10000000000000001;0.58999999999999997;0.17999999999999999;0.13;20;79;91;84;0.55000000000000004;0.14999999999999999;0.26000000000000001;0.039999999999999897;0;3.292216647402256;40;97;24;1;
2019_03_21 12:09;42;3;1;timed;56;15;0;77;81;0;0;0.28000000000000003;0.71999999999999997;0.0;0.0;98;14;87;18;0.55000000000000004;0.23000000000000001;0.16;0.059999999999999901;1;2.511690231008288;40;97;24;1;
2019_03_21 12:09;42;3;1;timed;57;108;1;48;72;39;70;0.14000000000000001;0.66000000000000003;0.02;0.17999999999999999;81;44;98;8;0.59999999999999998;0.029999999999999999;0.050000000000000003;0.32000000000000001;1;2.4116362859635956;40;97;24;1;
2019_03_21 12:09;42;3;1;timed;58;133;0;59;88;60;36;0.67000000000000004;0.070000000000000007;0.12;0.14000000000000001;7;91;66;61;0.25;0.68999999999999995;0.01;0.0500000000000001;NA;3.8024180978250115;40;97;24;1;
2019_03_21 12:09;42;3;1;timed;59;135;0;48;60;41;51;0.14000000000000001;0.40000000000000002;0.089999999999999997;0.37;94;1;85;65;0.64000000000000001;0.29999999999999999;0.01;0.050000000000000003;1;2.6622511055206814;40;97;24;1;
2019_03_21 12:09;42;3;1;timed;60;112;1;70;44;98;64;0.02;0.75;0.12;0.11;33;2;63;85;0.23999999999999999;0.31;0.080000000000000002;0.37;1;2.651648434823983;40;97;24;1;
2019_03_21 12:09;42;3;1;timed;61;124;0;37;65;15;41;0.17999999999999999;0.45000000000000001;0.02;0.34999999999999998;40;7;98;30;0.070000000000000007;0.45000000000000001;0.45000000000000001;0.029999999999999898;1;2.571575002854388;40;97;24;1;
2019_03_21 12:09;42;3;1;timed;62;94;0;84;86;93;39;0.78000000000000003;0.20000000000000001;0.01;0.0099999999999999603;9;83;0;0;0.46999999999999997;0.53000000000000003;0.0;0.0;0;1.470913294086131;40;97;24;1;
2019_03_21 12:09;42;3;1;timed;63;19;1;22;53;0;0;0.13;0.87;0.0;0.0;4;93;96;65;0.46999999999999997;0.059999999999999998;0.26000000000000001;0.20999999999999999;1;3.042030630008867;40;97;24;1;
2019_03_21 12:09;42;3;1;timed;64;63;1;56;78;42;36;0.93000000000000005;0.040000000000000001;0.01;0.0199999999999999;2;72;0;0;0.32000000000000001;0.68000000000000005;0.0;0.0;1;2.85189487579828;40;97;24;1;
2019_03_21 12:09;42;3;1;timed;65;115;1;50;28;61;79;0.83999999999999997;0.040000000000000001;0.059999999999999998;0.059999999999999998;1;26;97;55;0.45000000000000001;0.080000000000000002;0.40999999999999998;0.060000000000000102;1;2.1313180166184793;40;97;24;1;
2019_03_21 12:09;42;3;1;timed;66;48;0;13;32;0;0;0.90000000000000002;0.10000000000000001;0.0;0.0;24;99;84;94;0.62;0.14999999999999999;0.20000000000000001;0.029999999999999999;1;2.351534707638166;40;97;24;1;
2019_03_21 12:09;42;3;1;timed;67;111;0;51;36;48;27;0.93000000000000005;0.01;0.01;0.049999999999999899;31;78;30;53;0.55000000000000004;0.16;0.029999999999999999;0.26000000000000001;1;2.531555285010654;40;97;24;1;
2019_03_21 12:09;42;3;1;timed;68;27;0;44;26;0;0;0.35999999999999999;0.64000000000000001;0.0;0.0;63;10;3;5;0.58999999999999997;0.19;0.14999999999999999;0.070000000000000007;1;2.1513312430965925;40;97;24;1;
2019_03_21 12:09;42;3;1;timed;69;75;1;67;80;36;81;0.81999999999999995;0.080000000000000002;0.059999999999999998;0.040000000000000001;3;97;0;0;0.32000000000000001;0.68000000000000005;0.0;0.0;1;1.7910822620228828;40;97;24;1;
2019_03_21 12:09;42;3;1;timed;70;64;1;48;39;34;19;0.46000000000000002;0.5;0.02;0.02;13;92;0;0;0.68999999999999995;0.31;0.0;0.0;0;2.1514588895147426;40;97;24;1;
2019_03_21 12:09;42;3;1;timed;71;107;1;52;48;13;63;0.68000000000000005;0.19;0.050000000000000003;0.079999999999999905;54;91;33;3;0.19;0.17999999999999999;0.33000000000000002;0.29999999999999999;1;3.332099417958034;40;97;24;1;
2019_03_21 12:09;42;3;1;timed;72;14;0;36;40;0;0;0.54000000000000004;0.46000000000000002;0.0;0.0;99;70;1;11;0.16;0.089999999999999997;0.080000000000000002;0.67000000000000004;1;1.9213572983603626;40;97;24;1;
2019_03_21 12:09;42;3;1;timed;73;68;1;84;27;55;62;0.01;0.050000000000000003;0.40999999999999998;0.53000000000000003;9;82;0;0;0.37;0.63;0.0;0.0;1;1.2708945640588354;40;97;24;1;
2019_03_21 12:09;42;3;1;timed;74;113;0;85;65;39;64;0.44;0.34000000000000002;0.13;0.089999999999999997;87;2;4;35;0.67000000000000004;0.17000000000000001;0.11;0.049999999999999899;0;1.5709630697742796;40;97;24;1;
2019_03_21 12:09;42;3;1;timed;75;34;0;32;48;0;0;0.28000000000000003;0.71999999999999997;0.0;0.0;97;83;7;62;0.040000000000000001;0.54000000000000004;0.35999999999999999;0.059999999999999901;1;1.871126187785194;40;97;24;1;
2019_03_21 12:09;42;4;1;control;1;120;0;64;40;48;51;0.19;0.02;0.070000000000000007;0.71999999999999997;97;9;79;94;0.23000000000000001;0.54000000000000004;0.01;0.22;0;4.620768906102057;40;97;24;1;
2019_03_21 12:09;42;4;1;control;2;91;0;74;81;86;48;0.93000000000000005;0.02;0.01;0.039999999999999897;7;64;0;0;0.13;0.87;0.0;0.0;0;1.871317336692755;40;97;24;1;
2019_03_21 12:09;42;4;1;control;3;16;0;64;53;0;0;0.65000000000000002;0.34999999999999998;0.0;0.0;29;17;81;46;0.10000000000000001;0.01;0.44;0.45000000000000001;0;3.992539740371285;40;97;24;1;
2019_03_21 12:09;42;4;1;control;4;135;0;48;60;41;51;0.14000000000000001;0.40000000000000002;0.089999999999999997;0.37;94;1;85;65;0.64000000000000001;0.29999999999999999;0.01;0.050000000000000003;1;2.531699608850431;40;97;24;1;
2019_03_21 12:09;42;4;1;control;5;116;0;53;65;43;99;0.56999999999999995;0.37;0.050000000000000003;0.010000000000000101;57;72;11;87;0.67000000000000004;0.13;0.14999999999999999;0.050000000000000003;1;5.493596832316143;40;97;24;1;
2019_03_21 12:09;42;4;1;control;6;102;1;40;56;53;17;0.28000000000000003;0.26000000000000001;0.14999999999999999;0.31;1;76;29;62;0.68000000000000005;0.23000000000000001;0.050000000000000003;0.039999999999999897;0;3.5422605859930627;40;97;24;1;
2019_03_21 12:09;42;4;1;control;7;117;0;65;85;92;41;0.23000000000000001;0.17999999999999999;0.54000000000000004;0.050000000000000003;99;93;10;13;0.64000000000000001;0.16;0.01;0.19;0;2.771736773842804;40;97;24;1;
2019_03_21 12:09;42;4;1;control;8;108;0;48;72;39;70;0.14000000000000001;0.66000000000000003;0.02;0.17999999999999999;81;44;98;8;0.59999999999999998;0.029999999999999999;0.050000000000000003;0.32000000000000001;1;2.701676209145262;40;97;24;1;
2019_03_21 12:09;42;4;1;control;9;115;0;50;28;61;79;0.83999999999999997;0.040000000000000001;0.059999999999999998;0.059999999999999998;1;26;97;55;0.45000000000000001;0.080000000000000002;0.40999999999999998;0.060000000000000102;1;4.132492491953144;40;97;24;1;
2019_03_21 12:09;42;4;1;control;10;27;1;44;26;0;0;0.35999999999999999;0.64000000000000001;0.0;0.0;63;10;3;5;0.58999999999999997;0.19;0.14999999999999999;0.070000000000000007;1;5.0033704427341945;40;97;24;1;
2019_03_21 12:09;42;4;1;control;11;55;0;74;55;47;48;0.60999999999999999;0.31;0.070000000000000007;0.01;97;6;0;0;0.42999999999999999;0.56999999999999995;0.0;0.0;1;2.03138658647822;40;97;24;1;
2019_03_21 12:09;42;4;1;control;12;126;1;16;55;51;42;0.68999999999999995;0.23999999999999999;0.01;0.060000000000000102;66;4;1;5;0.46999999999999997;0.38;0.089999999999999997;0.059999999999999998;0;2.3313790816387154;40;97;24;1;
2019_03_21 12:09;42;4;1;control;13;38;0;40;70;0;0;0.53000000000000003;0.46999999999999997;0.0;0.0;97;90;6;96;0.56999999999999995;0.070000000000000007;0.27000000000000002;0.089999999999999997;1;3.1420326184706937;40;97;24;1;
2019_03_21 12:09;42;4;1;control;14;63;1;56;78;42;36;0.93000000000000005;0.040000000000000001;0.01;0.0199999999999999;2;72;0;0;0.32000000000000001;0.68000000000000005;0.0;0.0;1;3.272040816064873;40;97;24;1;
2019_03_21 12:09;42;4;1;control;15;36;0;70;17;0;0;0.33000000000000002;0.67000000000000004;0.0;0.0;84;1;12;88;0.22;0.27000000000000002;0.14000000000000001;0.37;1;8.485514697298186;40;97;24;1;
2019_03_21 12:09;42;4;1;control;16;71;0;68;55;36;51;0.20000000000000001;0.75;0.02;0.029999999999999999;38;81;0;0;0.52000000000000002;0.47999999999999998;0.0;0.0;1;5.953748378762157;40;97;24;1;
2019_03_21 12:09;42;4;1;control;17;32;0;19;81;0;0;0.93000000000000005;0.070000000000000007;0.0;0.0;1;65;41;68;0.45000000000000001;0.050000000000000003;0.059999999999999998;0.44;1;2.191348395183468;40;97;24;1;
2019_03_21 12:09;42;4;1;control;18;98;1;27;10;31;79;0.23000000000000001;0.67000000000000004;0.070000000000000007;0.029999999999999999;25;99;0;0;0.38;0.62;0.0;0.0;1;2.1513985942215186;40;97;24;1;
2019_03_21 12:09;42;4;1;control;19;127;1;89;26;62;79;0.02;0.28999999999999998;0.53000000000000003;0.16;96;6;60;13;0.53000000000000003;0.25;0.17000000000000001;0.050000000000000003;1;4.222652235992882;40;97;24;1;
2019_03_21 12:09;42;4;1;control;20;34;1;32;48;0;0;0.28000000000000003;0.71999999999999997;0.0;0.0;97;83;7;62;0.040000000000000001;0.54000000000000004;0.35999999999999999;0.059999999999999901;1;3.1919882308720844;40;97;24;1;
2019_03_21 12:09;42;4;1;control;21;132;0;27;70;21;19;0.64000000000000001;0.23000000000000001;0.029999999999999999;0.10000000000000001;11;85;55;6;0.39000000000000001;0.46999999999999997;0.029999999999999999;0.11;1;4.212796200626599;40;97;24;1;
2019_03_21 12:09;42;4;1;control;22;35;0;33;37;0;0;0.88;0.12;0.0;0.0;63;4;79;98;0.16;0.46000000000000002;0.17000000000000001;0.20999999999999999;1;2.1915571836707386;40;97;24;1;
2019_03_21 12:09;42;4;1;control;23;141;0;93;28;60;91;0.81999999999999995;0.10000000000000001;0.01;0.070000000000000007;14;85;7;89;0.45000000000000001;0.070000000000000007;0.23999999999999999;0.23999999999999999;0;1.9311896004733171;40;97;24;1;
2019_03_21 12:09;42;4;1;control;24;113;0;85;65;39;64;0.44;0.34000000000000002;0.13;0.089999999999999997;87;2;4;35;0.67000000000000004;0.17000000000000001;0.11;0.049999999999999899;1;2.7020222656406077;40;97;24;1;
2019_03_21 12:09;42;4;1;control;25;128;0;70;49;27;54;0.27000000000000002;0.53000000000000003;0.02;0.17999999999999999;72;97;6;20;0.29999999999999999;0.39000000000000001;0.22;0.0899999999999999;1;6.133878642252512;40;97;24;1;
2019_03_21 12:09;42;4;1;control;26;129;1;12;29;81;36;0.17999999999999999;0.79000000000000004;0.01;0.02;5;19;95;92;0.47999999999999998;0.26000000000000001;0.13;0.13;1;3.372136454662268;40;97;24;1;
2019_03_21 12:09;42;4;1;control;27;122;0;35;58;25;31;0.81999999999999995;0.070000000000000007;0.080000000000000002;0.029999999999999999;18;64;68;89;0.63;0.17000000000000001;0.11;0.089999999999999997;1;3.972476481628746;40;97;24;1;
2019_03_21 12:09;42;4;1;control;28;103;0;38;49;89;50;0.89000000000000001;0.070000000000000007;0.01;0.029999999999999999;6;64;99;27;0.70999999999999996;0.17999999999999999;0.059999999999999998;0.050000000000000003;1;2.9719691031523325;40;97;24;1;
2019_03_21 12:09;42;4;1;control;29;93;0;87;81;73;98;0.80000000000000004;0.040000000000000001;0.14999999999999999;0.0099999999999999499;5;71;0;0;0.51000000000000001;0.48999999999999999;0.0;0.0;0;4.062629811275656;40;97;24;1;
2019_03_21 12:09;42;4;1;control;30;111;1;51;36;48;27;0.93000000000000005;0.01;0.01;0.049999999999999899;31;78;30;53;0.55000000000000004;0.16;0.029999999999999999;0.26000000000000001;1;4.132595122238854;40;97;24;1;
2019_03_21 12:09;42;4;1;control;31;22;0;32;55;0;0;0.39000000000000001;0.60999999999999999;0.0;0.0;93;72;59;22;0.20000000000000001;0.11;0.14000000000000001;0.55000000000000004;1;2.201356130940894;40;97;24;1;
2019_03_21 12:09;42;4;1;control;32;74;0;66;47;52;44;0.41999999999999998;0.26000000000000001;0.17999999999999999;0.14000000000000001;17;99;0;0;0.47999999999999998;0.52000000000000002;0.0;0.0;1;8.075268410269928;40;97;24;1;
2019_03_21 12:09;42;4;1;control;33;28;0;47;30;0;0;0.97999999999999998;0.02;0.0;0.0;55;48;77;13;0.070000000000000007;0.26000000000000001;0.42999999999999999;0.23999999999999999;1;3.1921190844864213;40;97;24;1;
2019_03_21 12:09;42;4;1;control;34;58;0;37;58;76;34;0.20999999999999999;0.57999999999999996;0.19;0.020000000000000101;86;5;0;0;0.47999999999999998;0.52000000000000002;0.0;0.0;0;4.152587181220952;40;97;24;1;
2019_03_21 12:09;42;4;1;control;35;78;1;74;36;34;3;0.14999999999999999;0.64000000000000001;0.13;0.080000000000000002;1;83;0;0;0.41999999999999998;0.57999999999999996;0.0;0.0;0;4.432852531824665;40;97;24;1;
2019_03_21 12:09;42;4;1;control;36;51;1;52;23;43;16;0.60999999999999999;0.20999999999999999;0.01;0.17000000000000001;92;7;0;0;0.14999999999999999;0.84999999999999998;0.0;0.0;0;1.671018297696719;40;97;24;1;
2019_03_21 12:09;42;4;1;control;37;47;1;2;40;0;0;0.45000000000000001;0.55000000000000004;0.0;0.0;93;89;11;56;0.58999999999999997;0.070000000000000007;0.28000000000000003;0.059999999999999998;1;1.7210528071309454;40;97;24;1;
2019_03_21 12:09;42;4;1;control;38;7;0;49;29;0;0;0.95999999999999996;0.040000000000000001;0.0;0.0;23;99;64;25;0.68999999999999995;0.12;0.059999999999999998;0.13;1;2.471522340688807;40;97;24;1;
2019_03_21 12:09;42;4;1;control;39;14;1;36;40;0;0;0.54000000000000004;0.46000000000000002;0.0;0.0;99;70;1;11;0.16;0.089999999999999997;0.080000000000000002;0.67000000000000004;0;5.033309300741621;40;97;24;1;
2019_03_21 12:09;42;4;1;control;40;123;0;26;24;51;92;0.72999999999999998;0.16;0.070000000000000007;0.040000000000000001;6;90;82;49;0.64000000000000001;0.25;0.050000000000000003;0.059999999999999998;1;8.925684768511019;40;97;24;1;
2019_03_21 12:09;42;4;1;control;41;40;1;45;49;0;0;0.68999999999999995;0.31;0.0;0.0;2;92;65;73;0.23999999999999999;0.59999999999999998;0.11;0.050000000000000003;1;2.4016192493363633;40;97;24;1;
2019_03_21 12:09;42;4;1;control;42;124;1;37;65;15;41;0.17999999999999999;0.45000000000000001;0.02;0.34999999999999998;40;7;98;30;0.070000000000000007;0.45000000000000001;0.45000000000000001;0.029999999999999898;0;4.452799048617635;40;97;24;1;
2019_03_21 12:09;42;4;1;control;43;13;0;52;56;0;0;0.46999999999999997;0.53000000000000003;0.0;0.0;94;71;27;2;0.089999999999999997;0.31;0.57999999999999996;0.020000000000000101;0;5.513475677263614;40;97;24;1;
2019_03_21 12:09;42;4;1;control;44;149;0;14;89;73;53;0.93999999999999995;0.01;0.01;0.040000000000000001;97;45;6;13;0.34000000000000002;0.01;0.40999999999999998;0.23999999999999999;1;2.6116226233070847;40;97;24;1;
2019_03_21 12:09;42;4;1;control;45;66;0;89;23;27;15;0.070000000000000007;0.54000000000000004;0.17000000000000001;0.22;9;73;0;0;0.72999999999999998;0.27000000000000002;0.0;0.0;1;2.5115183252787574;40;97;24;1;
2019_03_21 12:09;42;4;1;control;46;29;1;44;51;0;0;0.78000000000000003;0.22;0.0;0.0;74;1;68;82;0.69999999999999996;0.28000000000000003;0.01;0.01;1;2.4815380944378376;40;97;24;1;
2019_03_21 12:09;42;4;1;control;47;67;0;44;42;8;89;0.88;0.070000000000000007;0.029999999999999999;0.02;10;63;0;0;0.39000000000000001;0.60999999999999999;0.0;0.0;0;2.3916102306998255;40;97;24;1;
2019_03_21 12:09;42;4;1;control;48;110;0;47;44;23;52;0.13;0.27000000000000002;0.040000000000000001;0.56000000000000005;99;2;30;22;0.28999999999999998;0.5;0.11;0.10000000000000001;0;3.452277558476908;40;97;24;1;
2019_03_21 12:09;42;4;1;control;49;114;1;57;39;79;97;0.77000000000000002;0.02;0.13;0.080000000000000002;92;36;6;1;0.54000000000000004;0.12;0.13;0.20999999999999999;0;2.6115806090338083;40;97;24;1;
2019_03_21 12:09;42;4;1;control;50;65;1;75;64;59;52;0.59999999999999998;0.22;0.14000000000000001;0.040000000000000001;1;99;0;0;0.35999999999999999;0.64000000000000001;0.0;0.0;1;4.63305310989017;40;97;24;1;
2019_03_21 12:09;42;4;1;control;51;59;1;56;47;83;90;0.31;0.12;0.54000000000000004;0.029999999999999898;10;98;0;0;0.46999999999999997;0.53000000000000003;0.0;0.0;1;3.3921987512458145;40;97;24;1;
2019_03_21 12:09;42;4;1;control;52;5;0;70;5;0;0;0.98999999999999999;0.01;0.0;0.0;92;87;47;1;0.44;0.02;0.16;0.38;0;2.751742790543176;40;97;24;1;
2019_03_21 12:09;42;4;1;control;53;104;0;55;85;93;3;0.87;0.02;0.089999999999999997;0.02;1;2;90;8;0.35999999999999999;0.070000000000000007;0.40000000000000002;0.17000000000000001;0;2.011386830225092;40;97;24;1;
2019_03_21 12:09;42;4;1;control;54;144;0;99;93;90;71;0.65000000000000002;0.32000000000000001;0.01;0.02;97;14;48;73;0.23000000000000001;0.46000000000000002;0.13;0.17999999999999999;0;2.971831835145167;40;97;24;1;
2019_03_21 12:09;42;4;1;control;55;118;1;62;52;65;68;0.40999999999999998;0.44;0.10000000000000001;0.0500000000000001;79;20;14;37;0.56999999999999995;0.23999999999999999;0.14000000000000001;0.050000000000000003;0;5.973819014056517;40;97;24;1;
2019_03_21 12:09;42;4;1;control;56;90;0;27;44;50;72;0.68000000000000005;0.28999999999999998;0.02;0.0099999999999999707;6;96;0;0;0.46999999999999997;0.53000000000000003;0.0;0.0;1;4.762972147423625;40;97;24;1;
2019_03_21 12:09;42;4;1;control;57;94;1;84;86;93;39;0.78000000000000003;0.20000000000000001;0.01;0.0099999999999999603;9;83;0;0;0.46999999999999997;0.53000000000000003;0.0;0.0;0;4.392944103697573;40;97;24;1;
2019_03_21 12:09;42;4;1;control;58;3;1;53;40;0;0;0.31;0.68999999999999995;0.0;0.0;96;24;7;88;0.11;0.27000000000000002;0.58999999999999997;0.029999999999999999;1;3.3621203801935735;40;97;24;1;
2019_03_21 12:09;42;4;1;control;59;2;0;59;32;0;0;0.080000000000000002;0.92000000000000004;0.0;0.0;33;38;85;1;0.28999999999999998;0.050000000000000003;0.070000000000000007;0.58999999999999997;0;4.2427148532965475;40;97;24;1;
2019_03_21 12:09;42;4;1;control;60;77;0;24;17;99;41;0.17999999999999999;0.13;0.10000000000000001;0.58999999999999997;12;97;0;0;0.59999999999999998;0.40000000000000002;0.0;0.0;1;2.67166005770423;40;97;24;1;
2019_03_21 12:09;42;4;1;control;61;41;1;99;40;0;0;0.89000000000000001;0.11;0.0;0.0;1;67;52;46;0.51000000000000001;0.38;0.029999999999999999;0.080000000000000002;0;2.63161179581175;40;97;24;1;
2019_03_21 12:09;42;4;1;control;62;33;0;27;70;0;0;0.88;0.12;0.0;0.0;93;3;77;16;0.080000000000000002;0.40000000000000002;0.5;0.02;1;6.474174692141332;40;97;24;1;
2019_03_21 12:09;42;4;1;control;63;60;1;64;59;57;96;0.83999999999999997;0.13;0.02;0.01;83;6;0;0;0.54000000000000004;0.46000000000000002;0.0;0.0;0;5.303362617175026;40;97;24;1;
2019_03_21 12:09;42;4;1;control;64;10;0;45;62;0;0;0.059999999999999998;0.93999999999999995;0.0;0.0;17;99;28;67;0.58999999999999997;0.34000000000000002;0.01;0.059999999999999998;0;3.402133683644479;40;97;24;1;
2019_03_21 12:09;42;4;1;control;65;19;0;22;53;0;0;0.13;0.87;0.0;0.0;4;93;96;65;0.46999999999999997;0.059999999999999998;0.26000000000000001;0.20999999999999999;1;2.791835953185;40;97;24;1;
2019_03_21 12:09;42;4;1;control;66;11;1;17;36;0;0;0.14000000000000001;0.85999999999999999;0.0;0.0;19;41;34;95;0.88;0.02;0.050000000000000003;0.050000000000000003;0;6.754274230690044;40;97;24;1;
2019_03_21 12:09;42;4;1;control;67;109;0;75;28;16;56;0.19;0.070000000000000007;0.059999999999999998;0.68000000000000005;3;50;98;44;0.5;0.02;0.34999999999999998;0.13;1;8.135347858939895;40;97;24;1;
2019_03_21 12:09;42;4;1;control;68;131;1;83;41;81;88;0.23999999999999999;0.58999999999999997;0.10000000000000001;0.070000000000000007;82;97;4;17;0.26000000000000001;0.46999999999999997;0.11;0.16;0;3.5823739539728194;40;97;24;1;
2019_03_21 12:09;42;4;1;control;69;69;1;54;34;64;49;0.34000000000000002;0.25;0.20999999999999999;0.20000000000000001;14;98;0;0;0.62;0.38;0.0;0.0;0;3.6324094255655837;40;97;24;1;
2019_03_21 12:09;42;4;1;control;70;121;1;42;51;47;70;0.41999999999999998;0.17000000000000001;0.23999999999999999;0.17000000000000001;21;76;48;9;0.14999999999999999;0.34000000000000002;0.40999999999999998;0.10000000000000001;0;4.092707861608233;40;97;24;1;
2019_03_21 12:09;42;4;1;control;71;99;0;8;24;15;73;0.56000000000000005;0.35999999999999999;0.070000000000000007;0.0099999999999999499;88;12;0;0;0.52000000000000002;0.47999999999999998;0.0;0.0;1;10.436624194833257;40;97;24;1;
2019_03_21 12:09;42;4;1;control;72;76;1;39;62;9;28;0.01;0.51000000000000001;0.26000000000000001;0.22;77;7;0;0;0.57999999999999996;0.41999999999999998;0.0;0.0;1;5.233521424713672;40;97;24;1;
2019_03_21 12:09;42;4;1;control;73;4;0;40;43;0;0;0.58999999999999997;0.40999999999999998;0.0;0.0;2;33;88;81;0.69999999999999996;0.14000000000000001;0.13;0.029999999999999999;1;6.924539478663974;40;97;24;1;
2019_03_21 12:09;42;4;1;control;74;64;1;48;39;34;19;0.46000000000000002;0.5;0.02;0.02;13;92;0;0;0.68999999999999995;0.31;0.0;0.0;0;5.673713304861849;40;97;24;1;
2019_03_21 12:09;42;4;1;control;75;150;1;25;21;78;38;0.84999999999999998;0.059999999999999998;0.050000000000000003;0.040000000000000001;31;43;64;95;0.059999999999999998;0.45000000000000001;0.13;0.35999999999999999;1;4.732987105787288;40;97;24;1;
