date;id;block;order;cond;trial;gameid;leftright;oa1;oa2;oa3;oa4;pa1;pa2;pa3;pa4;ob1;ob2;ob3;ob4;pb1;pb2;pb3;pb4;choice;rt;paytrial;payout;alter;geschlecht;comment
2019_03_04 09:21;18;0;1;practice;1;34;1;57;23;66;79;0.56000000000000005;0.23000000000000001;0.13;0.079999999999999905;85;9;0;0;0.56000000000000005;0.44;0.0;0.0;0;12.358593669318225;54;28;22;2;
2019_03_04 09:21;18;0;1;practice;2;2;1;41;60;0;0;0.97999999999999998;0.02;0.0;0.0;10;14;97;6;0.54000000000000004;0.17000000000000001;0.12;0.17000000000000001;0;17.69968229206438;54;28;22;2;
2019_03_04 09:21;18;0;1;practice;3;9;0;57;44;0;0;0.14999999999999999;0.84999999999999998;0.0;0.0;38;35;64;95;0.34000000000000002;0.45000000000000001;0.089999999999999997;0.12;0;10.149991436702976;54;28;22;2;
2019_03_04 09:21;18;0;1;practice;4;1;0;67;36;0;0;0.14999999999999999;0.84999999999999998;0.0;0.0;1;4;81;77;0.25;0.54000000000000004;0.14000000000000001;0.070000000000000007;0;14.366396211879646;54;28;22;2;
2019_03_04 09:21;18;0;1;practice;5;18;0;47;36;0;0;0.089999999999999997;0.91000000000000003;0.0;0.0;2;44;81;9;0.20000000000000001;0.25;0.51000000000000001;0.040000000000000001;0;3.333137264838115;54;28;22;2;
2019_03_04 09:21;18;0;1;practice;6;26;1;24;46;74;59;0.29999999999999999;0.11;0.25;0.34000000000000002;91;6;0;0;0.28999999999999998;0.70999999999999996;0.0;0.0;1;9.516424531696657;54;28;22;2;
2019_03_04 09:21;18;0;1;practice;7;10;0;34;59;0;0;0.16;0.83999999999999997;0.0;0.0;21;61;96;7;0.19;0.01;0.5;0.29999999999999999;0;9.866630660194915;54;28;22;2;
2019_03_04 09:21;18;0;1;practice;8;39;1;53;65;48;75;0.92000000000000004;0.029999999999999999;0.01;0.040000000000000001;16;83;0;0;0.31;0.68999999999999995;0.0;0.0;0;6.433304746247359;54;28;22;2;
2019_03_04 09:21;18;0;1;practice;9;7;1;13;31;0;0;0.51000000000000001;0.48999999999999999;0.0;0.0;8;79;42;18;0.85999999999999999;0.089999999999999997;0.02;0.029999999999999999;0;5.433298652515532;54;28;22;2;
2019_03_04 09:21;18;0;1;practice;10;16;0;50;42;0;0;0.32000000000000001;0.68000000000000005;0.0;0.0;97;2;56;31;0.35999999999999999;0.16;0.16;0.32000000000000001;1;15.199757661905778;54;28;22;2;
2019_03_04 09:21;18;0;1;practice;11;13;1;15;25;0;0;0.29999999999999999;0.69999999999999996;0.0;0.0;3;43;35;73;0.44;0.40000000000000002;0.01;0.14999999999999999;0;16.749695794491117;54;28;22;2;
2019_03_04 09:21;18;0;1;practice;12;36;1;56;89;86;77;0.66000000000000003;0.080000000000000002;0.14999999999999999;0.11;29;91;0;0;0.40999999999999998;0.58999999999999997;0.0;0.0;0;5.86651327567597;54;28;22;2;
2019_03_04 09:21;18;0;1;practice;13;70;0;21;42;14;63;0.96999999999999997;0.01;0.01;0.01;70;2;6;76;0.23999999999999999;0.42999999999999999;0.01;0.32000000000000001;1;12.799800702895936;54;28;22;2;
2019_03_04 09:21;18;0;1;practice;14;24;0;19;38;0;0;0.89000000000000001;0.11;0.0;0.0;45;76;95;57;0.29999999999999999;0.22;0.40000000000000002;0.080000000000000002;1;4.133363246073259;54;28;22;2;
2019_03_04 09:21;18;0;1;practice;15;21;1;59;69;0;0;0.34000000000000002;0.66000000000000003;0.0;0.0;64;18;5;24;0.14999999999999999;0.040000000000000001;0.51000000000000001;0.29999999999999999;0;20.382897075586015;54;28;22;2;
2019_03_04 09:21;18;0;1;practice;16;58;0;44;50;85;42;0.38;0.57999999999999996;0.02;0.02;37;88;19;12;0.20000000000000001;0.29999999999999999;0.46000000000000002;0.040000000000000001;0;12.616535886628526;54;28;22;2;
2019_03_04 09:21;18;0;1;practice;17;64;0;44;60;96;45;0.53000000000000003;0.10000000000000001;0.029999999999999999;0.34000000000000002;88;20;43;31;0.47999999999999998;0.38;0.050000000000000003;0.089999999999999997;0;37.34945371297499;54;28;22;2;
2019_03_04 09:21;18;0;1;practice;18;29;1;66;40;92;49;0.46999999999999997;0.10000000000000001;0.34000000000000002;0.089999999999999997;8;94;0;0;0.44;0.56000000000000005;0.0;0.0;0;6.199853558001678;54;28;22;2;
2019_03_04 09:21;18;0;1;practice;19;43;1;11;17;21;44;0.16;0.46000000000000002;0.25;0.13;2;66;0;0;0.44;0.56000000000000005;0.0;0.0;0;8.283175078047861;54;28;22;2;
2019_03_04 09:21;18;0;1;practice;20;22;0;84;87;0;0;0.17000000000000001;0.82999999999999996;0.0;0.0;3;24;41;83;0.68000000000000005;0.11;0.10000000000000001;0.11;0;13.866429246320877;54;28;22;2;
2019_03_04 09:21;18;0;1;practice;21;50;0;17;12;21;14;0.55000000000000004;0.34000000000000002;0.059999999999999998;0.049999999999999899;13;93;0;0;0.28999999999999998;0.70999999999999996;0.0;0.0;1;7.399866835922694;54;28;22;2;
2019_03_04 09:21;18;0;1;practice;22;75;1;21;86;27;62;0.88;0.040000000000000001;0.070000000000000007;0.0099999999999999794;13;3;49;87;0.28999999999999998;0.39000000000000001;0.070000000000000007;0.25;0;13.766793202474219;54;28;22;2;
2019_03_04 09:21;18;0;1;practice;23;51;1;38;13;51;84;0.91000000000000003;0.070000000000000007;0.01;0.0099999999999999603;4;89;35;16;0.80000000000000004;0.089999999999999997;0.059999999999999998;0.050000000000000003;0;21.233324823490193;54;28;22;2;
2019_03_04 09:21;18;0;1;practice;24;47;1;91;99;90;78;0.93000000000000005;0.040000000000000001;0.02;0.0099999999999999499;10;87;0;0;0.23000000000000001;0.77000000000000002;0.0;0.0;0;6.916514590639281;54;28;22;2;
2019_03_04 09:21;18;0;1;practice;25;40;1;29;65;30;41;0.70999999999999996;0.01;0.14999999999999999;0.13;2;59;0;0;0.32000000000000001;0.68000000000000005;0.0;0.0;0;8.249863532478685;54;28;22;2;
2019_03_04 09:21;18;0;1;practice;26;15;0;24;59;0;0;0.56999999999999995;0.42999999999999999;0.0;0.0;9;8;80;22;0.31;0.10000000000000001;0.55000000000000004;0.039999999999999897;0;3.5167131821531257;54;28;22;2;
2019_03_04 09:21;18;0;1;practice;27;49;0;14;31;42;22;0.77000000000000002;0.089999999999999997;0.02;0.12;87;28;0;0;0.68000000000000005;0.32000000000000001;0.0;0.0;1;4.199865745465331;54;28;22;2;
2019_03_04 09:21;18;0;1;practice;28;8;0;20;44;0;0;0.26000000000000001;0.73999999999999999;0.0;0.0;99;3;69;24;0.20999999999999999;0.60999999999999999;0.12;0.060000000000000102;0;9.183147752471314;54;28;22;2;
2019_03_04 09:21;18;0;1;practice;29;11;1;10;44;0;0;0.48999999999999999;0.51000000000000001;0.0;0.0;88;12;54;50;0.17000000000000001;0.75;0.02;0.059999999999999998;1;6.066771265039279;54;28;22;2;
2019_03_04 09:21;18;0;1;practice;30;27;0;68;43;98;36;0.54000000000000004;0.44;0.01;0.0099999999999999603;97;13;0;0;0.27000000000000002;0.72999999999999998;0.0;0.0;0;13.416558208930383;54;28;22;2;
2019_03_04 09:21;18;0;1;practice;31;66;0;44;18;63;36;0.47999999999999998;0.10000000000000001;0.029999999999999999;0.39000000000000001;13;93;61;53;0.52000000000000002;0.45000000000000001;0.02;0.0099999999999999707;0;8.932998456040877;54;28;22;2;
2019_03_04 09:21;18;0;1;practice;32;72;0;86;85;97;43;0.51000000000000001;0.14999999999999999;0.33000000000000002;0.0099999999999999499;72;29;10;90;0.01;0.11;0.65000000000000002;0.23000000000000001;0;11.499796020344093;54;28;22;2;
2019_03_04 09:21;18;0;1;practice;33;48;0;20;25;24;35;0.32000000000000001;0.13;0.48999999999999999;0.059999999999999901;44;76;0;0;0.29999999999999999;0.69999999999999996;0.0;0.0;1;4.599932391648508;54;28;22;2;
2019_03_04 09:21;18;0;1;practice;34;42;1;23;45;91;22;0.72999999999999998;0.02;0.20000000000000001;0.050000000000000003;2;86;0;0;0.40999999999999998;0.58999999999999997;0.0;0.0;0;23.383005800591263;54;28;22;2;
2019_03_04 09:21;18;0;1;practice;35;6;1;42;59;0;0;0.35999999999999999;0.64000000000000001;0.0;0.0;77;19;6;7;0.44;0.14999999999999999;0.17999999999999999;0.23000000000000001;0;6.933274277588225;54;28;22;2;
2019_03_04 09:21;18;0;1;practice;36;52;1;17;61;57;59;0.070000000000000007;0.050000000000000003;0.33000000000000002;0.55000000000000004;12;93;94;62;0.71999999999999997;0.16;0.080000000000000002;0.040000000000000001;0;4.783218375616343;54;28;22;2;
2019_03_04 09:21;18;0;1;practice;37;46;0;79;57;98;81;0.67000000000000004;0.070000000000000007;0.20999999999999999;0.050000000000000003;1;76;0;0;0.56000000000000005;0.44;0.0;0.0;1;1.5666432966704633;54;28;22;2;
2019_03_04 09:21;18;0;1;practice;38;31;1;72;59;40;92;0.59999999999999998;0.34999999999999998;0.02;0.029999999999999999;97;29;0;0;0.38;0.62;0.0;0.0;0;6.366711482322671;54;28;22;2;
2019_03_04 09:21;18;0;1;practice;39;68;0;39;58;40;8;0.48999999999999999;0.44;0.02;0.050000000000000003;92;83;51;2;0.57999999999999996;0.13;0.02;0.27000000000000002;0;10.816479567717124;54;28;22;2;
2019_03_04 09:21;18;0;1;practice;40;25;1;7;18;0;0;0.20999999999999999;0.79000000000000004;0.0;0.0;92;45;33;13;0.41999999999999998;0.17999999999999999;0.22;0.17999999999999999;1;4.633203846876768;54;28;22;2;
2019_03_04 09:21;18;0;1;practice;41;53;1;47;24;95;38;0.57999999999999996;0.28000000000000003;0.02;0.12;8;22;93;96;0.54000000000000004;0.34000000000000002;0.10000000000000001;0.0199999999999999;0;4.449896053763268;54;28;22;2;
2019_03_04 09:21;18;0;1;practice;42;30;0;54;78;85;25;0.20999999999999999;0.60999999999999999;0.089999999999999997;0.090000000000000094;87;20;0;0;0.58999999999999997;0.40999999999999998;0.0;0.0;0;13.749716320745847;54;28;22;2;
2019_03_04 09:21;18;0;1;practice;43;23;1;99;93;0;0;0.57999999999999996;0.41999999999999998;0.0;0.0;64;10;80;81;0.13;0.55000000000000004;0.02;0.29999999999999999;0;5.066570813333556;54;28;22;2;
2019_03_04 09:21;18;0;1;practice;44;59;0;13;27;48;51;0.56999999999999995;0.13;0.13;0.17000000000000001;8;37;97;1;0.65000000000000002;0.16;0.14999999999999999;0.040000000000000001;0;4.39989858747299;54;28;22;2;
2019_03_04 09:21;18;0;1;practice;45;28;0;37;83;75;8;0.83999999999999997;0.070000000000000007;0.01;0.080000000000000002;94;2;0;0;0.19;0.81000000000000005;0.0;0.0;0;7.749829535869367;54;28;22;2;
2019_03_04 09:21;18;0;1;practice;46;65;1;35;15;77;1;0.62;0.33000000000000002;0.029999999999999999;0.02;68;3;25;96;0.38;0.28000000000000003;0.28000000000000003;0.059999999999999901;0;15.783064428706211;54;28;22;2;
2019_03_04 09:21;18;0;1;practice;47;55;0;53;11;80;74;0.31;0.37;0.28000000000000003;0.039999999999999897;6;93;98;96;0.69999999999999996;0.22;0.050000000000000003;0.029999999999999999;0;6.083302276682389;54;28;22;2;
2019_03_04 09:21;18;0;1;practice;48;71;1;94;87;26;75;0.71999999999999997;0.23999999999999999;0.02;0.02;90;27;12;83;0.16;0.73999999999999999;0.02;0.080000000000000002;0;5.79988184574654;54;28;22;2;
2019_03_04 09:21;18;0;1;practice;49;61;0;51;48;56;88;0.91000000000000003;0.02;0.01;0.059999999999999998;78;21;14;82;0.55000000000000004;0.29999999999999999;0.070000000000000007;0.080000000000000002;0;12.21652408403179;54;28;22;2;
2019_03_04 09:21;18;0;1;practice;50;20;1;32;11;0;0;0.40999999999999998;0.58999999999999997;0.0;0.0;1;86;42;65;0.45000000000000001;0.38;0.050000000000000003;0.12;1;0.933417319925411;54;28;22;2;
2019_03_04 09:21;18;0;1;practice;51;37;0;50;66;99;12;0.26000000000000001;0.71999999999999997;0.01;0.01;22;90;0;0;0.37;0.63;0.0;0.0;0;5.883133448237459;54;28;22;2;
2019_03_04 09:21;18;0;1;practice;52;44;0;69;48;22;63;0.39000000000000001;0.40999999999999998;0.19;0.01;1;94;0;0;0.22;0.78000000000000003;0.0;0.0;0;9.53367075502615;54;28;22;2;
2019_03_04 09:21;18;0;1;practice;53;33;1;54;82;55;71;0.56000000000000005;0.20999999999999999;0.02;0.20999999999999999;13;99;0;0;0.5;0.5;0.0;0.0;0;5.466496341515949;54;28;22;2;
2019_03_04 09:21;18;0;1;practice;54;73;0;99;88;95;28;0.83999999999999997;0.14000000000000001;0.01;0.01;90;93;10;74;0.080000000000000002;0.46000000000000002;0.34999999999999998;0.11;0;11.64979162644272;54;28;22;2;
2019_03_04 09:21;18;0;1;practice;55;63;0;24;82;6;96;0.91000000000000003;0.070000000000000007;0.01;0.0099999999999999603;73;10;71;22;0.31;0.51000000000000001;0.050000000000000003;0.13;0;8.29995689486509;54;28;22;2;
2019_03_04 09:21;18;0;1;practice;56;12;0;45;86;0;0;0.97999999999999998;0.02;0.0;0.0;6;23;95;81;0.14999999999999999;0.40999999999999998;0.050000000000000003;0.39000000000000001;0;16.083020040680594;54;28;22;2;
2019_03_04 09:21;18;0;1;practice;57;32;1;21;86;16;78;0.45000000000000001;0.41999999999999998;0.050000000000000003;0.080000000000000099;95;9;0;0;0.42999999999999999;0.56999999999999995;0.0;0.0;0;4.783112216392965;54;28;22;2;
2019_03_04 09:21;18;0;1;practice;58;4;0;40;59;0;0;0.19;0.81000000000000005;0.0;0.0;10;88;13;45;0.56000000000000005;0.28999999999999998;0.01;0.14000000000000001;0;3.7497974635962237;54;28;22;2;
2019_03_04 09:21;18;0;1;practice;59;35;1;84;95;4;35;0.89000000000000001;0.050000000000000003;0.01;0.050000000000000003;5;98;0;0;0.19;0.81000000000000005;0.0;0.0;1;9.94976872683992;54;28;22;2;
2019_03_04 09:21;18;0;1;practice;60;19;0;25;73;0;0;0.69999999999999996;0.29999999999999999;0.0;0.0;87;84;1;86;0.040000000000000001;0.59999999999999998;0.28000000000000003;0.080000000000000002;0;5.650019660303315;54;28;22;2;
2019_03_04 09:21;18;0;1;practice;61;41;1;19;54;51;8;0.76000000000000001;0.070000000000000007;0.16;0.0099999999999999794;2;77;0;0;0.54000000000000004;0.46000000000000002;0.0;0.0;0;7.999976266517933;54;28;22;2;
2019_03_04 09:21;18;0;1;practice;62;62;0;65;52;74;55;0.16;0.12;0.14999999999999999;0.56999999999999995;72;86;2;68;0.12;0.53000000000000003;0.22;0.13;0;13.11636109274059;54;28;22;2;
2019_03_04 09:21;18;0;1;practice;63;60;1;39;93;27;78;0.85999999999999999;0.02;0.11;0.01;22;5;62;95;0.059999999999999998;0.56999999999999995;0.14000000000000001;0.23000000000000001;0;16.09973097777447;54;28;22;2;
2019_03_04 09:21;18;0;1;practice;64;17;0;27;61;0;0;0.68999999999999995;0.31;0.0;0.0;3;91;69;43;0.29999999999999999;0.33000000000000002;0.27000000000000002;0.099999999999999895;0;6.2499898972341725;54;28;22;2;
2019_03_04 09:21;18;0;1;practice;65;69;1;38;74;27;73;0.22;0.19;0.45000000000000001;0.14000000000000001;1;97;79;84;0.28000000000000003;0.45000000000000001;0.17000000000000001;0.10000000000000001;0;3.483380789606599;54;28;22;2;
2019_03_04 09:21;18;0;1;practice;66;57;1;39;68;59;91;0.73999999999999999;0.040000000000000001;0.14999999999999999;0.070000000000000007;9;22;40;84;0.29999999999999999;0.32000000000000001;0.040000000000000001;0.34000000000000002;0;3.3498898958869177;54;28;22;2;
2019_03_04 09:21;18;0;1;practice;67;38;0;51;89;10;60;0.57999999999999996;0.029999999999999999;0.080000000000000002;0.31;8;84;0;0;0.33000000000000002;0.67000000000000004;0.0;0.0;0;10.866489862916751;54;28;22;2;
2019_03_04 09:21;18;0;1;practice;68;54;0;69;80;22;55;0.27000000000000002;0.31;0.059999999999999998;0.35999999999999999;52;2;49;90;0.059999999999999998;0.33000000000000002;0.20000000000000001;0.40999999999999998;0;7.666666452851587;54;28;22;2;
2019_03_04 09:21;18;0;1;practice;69;5;1;23;58;0;0;0.71999999999999997;0.28000000000000003;0.0;0.0;94;12;52;3;0.11;0.84999999999999998;0.029999999999999999;0.01;0;6.0000910852554625;54;28;22;2;
2019_03_04 09:21;18;0;1;practice;70;45;0;37;40;75;23;0.54000000000000004;0.38;0.059999999999999998;0.02;1;90;0;0;0.28000000000000003;0.71999999999999997;0.0;0.0;0;9.716421452758368;54;28;22;2;
2019_03_04 09:21;18;0;1;practice;71;56;1;47;52;64;10;0.77000000000000002;0.040000000000000001;0.11;0.080000000000000002;1;5;12;99;0.14000000000000001;0.28999999999999998;0.27000000000000002;0.29999999999999999;0;4.2332391905215445;54;28;22;2;
2019_03_04 09:21;18;0;1;practice;72;14;0;92;56;0;0;0.11;0.89000000000000001;0.0;0.0;97;31;51;4;0.58999999999999997;0.22;0.080000000000000002;0.11;0;6.233059585792944;54;28;22;2;
2019_03_04 09:21;18;0;1;practice;73;3;0;20;70;0;0;0.13;0.87;0.0;0.0;95;19;80;73;0.31;0.57999999999999996;0.029999999999999999;0.080000000000000002;1;22.88274088361686;54;28;22;2;
2019_03_04 09:21;18;0;1;practice;74;67;1;74;31;10;77;0.11;0.070000000000000007;0.77000000000000002;0.050000000000000003;2;23;8;97;0.56999999999999995;0.01;0.059999999999999998;0.35999999999999999;0;12.63356113199734;54;28;22;2;
2019_03_04 09:21;18;0;1;practice;75;74;0;36;46;10;12;0.11;0.19;0.65000000000000002;0.049999999999999899;92;24;79;19;0.51000000000000001;0.40999999999999998;0.02;0.059999999999999998;1;11.716446789854217;54;28;22;2;
2019_03_04 09:21;18;1;1;timed;1;141;0;93;28;60;91;0.81999999999999995;0.10000000000000001;0.01;0.070000000000000007;14;85;7;89;0.45000000000000001;0.070000000000000007;0.23999999999999999;0.23999999999999999;NA;5.612381565113992;54;28;22;2;
2019_03_04 09:21;18;1;1;timed;2;59;0;56;47;83;90;0.31;0.12;0.54000000000000004;0.029999999999999898;10;98;0;0;0.46999999999999997;0.53000000000000003;0.0;0.0;1;2.4999313653356694;54;28;22;2;
2019_03_04 09:21;18;1;1;timed;3;135;0;48;60;41;51;0.14000000000000001;0.40000000000000002;0.089999999999999997;0.37;94;1;85;65;0.64000000000000001;0.29999999999999999;0.01;0.050000000000000003;0;2.983233257150914;54;28;22;2;
2019_03_04 09:21;18;1;1;timed;4;83;0;17;12;7;41;0.65000000000000002;0.19;0.089999999999999997;0.070000000000000007;6;84;0;0;0.72999999999999998;0.27000000000000002;0.0;0.0;0;5.6165464704786245;54;28;22;2;
2019_03_04 09:21;18;1;1;timed;5;106;1;85;69;22;61;0.10000000000000001;0.58999999999999997;0.17999999999999999;0.13;20;79;91;84;0.55000000000000004;0.14999999999999999;0.26000000000000001;0.039999999999999897;NA;5.616575976969671;54;28;22;2;
2019_03_04 09:21;18;1;1;timed;6;114;1;57;39;79;97;0.77000000000000002;0.02;0.13;0.080000000000000002;92;36;6;1;0.54000000000000004;0.12;0.13;0.20999999999999999;1;2.9999384212355835;54;28;22;2;
2019_03_04 09:21;18;1;1;timed;7;137;1;71;22;28;17;0.25;0.46000000000000002;0.050000000000000003;0.23999999999999999;3;98;92;69;0.42999999999999999;0.23999999999999999;0.20000000000000001;0.13;0;2.7335567060235917;54;28;22;2;
2019_03_04 09:21;18;1;1;timed;8;16;1;64;53;0;0;0.65000000000000002;0.34999999999999998;0.0;0.0;29;17;81;46;0.10000000000000001;0.01;0.44;0.45000000000000001;0;3.0499362082491643;54;28;22;2;
2019_03_04 09:21;18;1;1;timed;9;39;0;14;33;0;0;0.78000000000000003;0.22;0.0;0.0;93;84;1;25;0.14000000000000001;0.23999999999999999;0.39000000000000001;0.23000000000000001;0;2.816702149291359;54;28;22;2;
2019_03_04 09:21;18;1;1;timed;10;72;1;63;82;51;61;0.01;0.96999999999999997;0.01;0.01;92;12;0;0;0.89000000000000001;0.11;0.0;0.0;0;3.5499368496944044;54;28;22;2;
2019_03_04 09:21;18;1;1;timed;11;46;1;5;19;0;0;0.32000000000000001;0.68000000000000005;0.0;0.0;88;38;97;66;0.60999999999999999;0.20000000000000001;0.040000000000000001;0.14999999999999999;1;2.1499093316847393;54;28;22;2;
2019_03_04 09:21;18;1;1;timed;12;1;0;22;51;0;0;0.26000000000000001;0.73999999999999999;0.0;0.0;14;11;92;31;0.29999999999999999;0.40999999999999998;0.14999999999999999;0.14000000000000001;0;4.683368409709146;54;28;22;2;
2019_03_04 09:21;18;1;1;timed;13;128;0;70;49;27;54;0.27000000000000002;0.53000000000000003;0.02;0.17999999999999999;72;97;6;20;0.29999999999999999;0.39000000000000001;0.22;0.0899999999999999;0;2.8165600691222608;54;28;22;2;
2019_03_04 09:21;18;1;1;timed;14;34;1;32;48;0;0;0.28000000000000003;0.71999999999999997;0.0;0.0;97;83;7;62;0.040000000000000001;0.54000000000000004;0.35999999999999999;0.059999999999999901;0;3.6000690195314746;54;28;22;2;
2019_03_04 09:21;18;1;1;timed;15;42;1;70;48;0;0;0.79000000000000004;0.20999999999999999;0.0;0.0;51;8;12;67;0.19;0.26000000000000001;0.28999999999999998;0.26000000000000001;0;2.8500788015744547;54;28;22;2;
2019_03_04 09:21;18;1;1;timed;16;104;0;55;85;93;3;0.87;0.02;0.089999999999999997;0.02;1;2;90;8;0.35999999999999999;0.070000000000000007;0.40000000000000002;0.17000000000000001;0;3.250069436470767;54;28;22;2;
2019_03_04 09:21;18;1;1;timed;17;35;1;33;37;0;0;0.88;0.12;0.0;0.0;63;4;79;98;0.16;0.46000000000000002;0.17000000000000001;0.20999999999999999;0;2.1332914041818185;54;28;22;2;
2019_03_04 09:21;18;1;1;timed;18;20;1;44;40;0;0;0.91000000000000003;0.089999999999999997;0.0;0.0;29;5;80;99;0.25;0.40000000000000002;0.26000000000000001;0.089999999999999997;0;2.0166034949797904;54;28;22;2;
2019_03_04 09:21;18;1;1;timed;19;75;0;67;80;36;81;0.81999999999999995;0.080000000000000002;0.059999999999999998;0.040000000000000001;3;97;0;0;0.32000000000000001;0.68000000000000005;0.0;0.0;0;3.316489189398908;54;28;22;2;
2019_03_04 09:21;18;1;1;timed;20;27;1;44;26;0;0;0.35999999999999999;0.64000000000000001;0.0;0.0;63;10;3;5;0.58999999999999997;0.19;0.14999999999999999;0.070000000000000007;0;2.1666080813147346;54;28;22;2;
2019_03_04 09:21;18;1;1;timed;21;142;0;98;65;64;84;0.88;0.070000000000000007;0.01;0.040000000000000001;5;68;60;16;0.46000000000000002;0.080000000000000002;0.27000000000000002;0.19;0;3.1834627021917186;54;28;22;2;
2019_03_04 09:21;18;1;1;timed;22;57;0;52;35;23;47;0.22;0.68000000000000005;0.040000000000000001;0.059999999999999998;71;7;0;0;0.28999999999999998;0.70999999999999996;0.0;0.0;0;2.1333314945231905;54;28;22;2;
2019_03_04 09:21;18;1;1;timed;23;11;0;17;36;0;0;0.14000000000000001;0.85999999999999999;0.0;0.0;19;41;34;95;0.88;0.02;0.050000000000000003;0.050000000000000003;1;1.7500328740798068;54;28;22;2;
2019_03_04 09:21;18;1;1;timed;24;124;1;37;65;15;41;0.17999999999999999;0.45000000000000001;0.02;0.34999999999999998;40;7;98;30;0.070000000000000007;0.45000000000000001;0.45000000000000001;0.029999999999999898;0;1.8333527905124356;54;28;22;2;
2019_03_04 09:21;18;1;1;timed;25;3;1;53;40;0;0;0.31;0.68999999999999995;0.0;0.0;96;24;7;88;0.11;0.27000000000000002;0.58999999999999997;0.029999999999999999;0;2.950042944773486;54;28;22;2;
2019_03_04 09:21;18;1;1;timed;26;113;0;85;65;39;64;0.44;0.34000000000000002;0.13;0.089999999999999997;87;2;4;35;0.67000000000000004;0.17000000000000001;0.11;0.049999999999999899;0;1.8167287692781429;54;28;22;2;
2019_03_04 09:21;18;1;1;timed;27;93;1;87;81;73;98;0.80000000000000004;0.040000000000000001;0.14999999999999999;0.0099999999999999499;5;71;0;0;0.51000000000000001;0.48999999999999999;0.0;0.0;0;1.6165583372194305;54;28;22;2;
2019_03_04 09:21;18;1;1;timed;28;28;1;47;30;0;0;0.97999999999999998;0.02;0.0;0.0;55;48;77;13;0.070000000000000007;0.26000000000000001;0.42999999999999999;0.23999999999999999;1;1.2334008347770578;54;28;22;2;
2019_03_04 09:21;18;1;1;timed;29;17;1;81;52;0;0;0.059999999999999998;0.93999999999999995;0.0;0.0;34;3;69;41;0.01;0.22;0.75;0.02;0;1.200171394226345;54;28;22;2;
2019_03_04 09:21;18;1;1;timed;30;67;0;44;42;8;89;0.88;0.070000000000000007;0.029999999999999999;0.02;10;63;0;0;0.39000000000000001;0.60999999999999999;0.0;0.0;1;1.8498898958869177;54;28;22;2;
2019_03_04 09:21;18;1;1;timed;31;37;1;14;98;0;0;0.93000000000000005;0.070000000000000007;0.0;0.0;41;2;87;66;0.17999999999999999;0.48999999999999999;0.32000000000000001;0.010000000000000101;0;1.7665853741455066;54;28;22;2;
2019_03_04 09:21;18;1;1;timed;32;49;0;21;30;0;0;0.53000000000000003;0.46999999999999997;0.0;0.0;93;99;89;25;0.44;0.02;0.11;0.42999999999999999;1;1.6497245953923994;54;28;22;2;
2019_03_04 09:21;18;1;1;timed;33;145;1;91;89;90;74;0.57999999999999996;0.29999999999999999;0.11;0.010000000000000101;2;75;84;39;0.32000000000000001;0.27000000000000002;0.39000000000000001;0.0199999999999999;0;1.8665876833492803;54;28;22;2;
2019_03_04 09:21;18;1;1;timed;34;62;0;12;45;16;50;0.20999999999999999;0.76000000000000001;0.02;0.01;92;15;0;0;0.20999999999999999;0.79000000000000004;0.0;0.0;1;3.8332559322479938;54;28;22;2;
2019_03_04 09:21;18;1;1;timed;35;117;1;65;85;92;41;0.23000000000000001;0.17999999999999999;0.54000000000000004;0.050000000000000003;99;93;10;13;0.64000000000000001;0.16;0.01;0.19;1;3.2333334830041167;54;28;22;2;
2019_03_04 09:21;18;1;1;timed;36;144;0;99;93;90;71;0.65000000000000002;0.32000000000000001;0.01;0.02;97;14;48;73;0.23000000000000001;0.46000000000000002;0.13;0.17999999999999999;0;1.866623283572153;54;28;22;2;
2019_03_04 09:21;18;1;1;timed;37;24;1;35;27;0;0;0.070000000000000007;0.93000000000000005;0.0;0.0;62;3;81;95;0.35999999999999999;0.55000000000000004;0.01;0.080000000000000002;0;1.799803910123046;54;28;22;2;
2019_03_04 09:21;18;1;1;timed;38;2;0;59;32;0;0;0.080000000000000002;0.92000000000000004;0.0;0.0;33;38;85;1;0.28999999999999998;0.050000000000000003;0.070000000000000007;0.58999999999999997;0;1.2166735408241038;54;28;22;2;
2019_03_04 09:21;18;1;1;timed;39;112;0;70;44;98;64;0.02;0.75;0.12;0.11;33;2;63;85;0.23999999999999999;0.31;0.080000000000000002;0.37;0;1.6166179916472174;54;28;22;2;
2019_03_04 09:21;18;1;1;timed;40;81;0;67;38;52;65;0.27000000000000002;0.35999999999999999;0.01;0.35999999999999999;2;77;0;0;0.14000000000000001;0.85999999999999999;0.0;0.0;0;1.9500512835643349;54;28;22;2;
2019_03_04 09:21;18;1;1;timed;41;55;1;74;55;47;48;0.60999999999999999;0.31;0.070000000000000007;0.01;97;6;0;0;0.42999999999999999;0.56999999999999995;0.0;0.0;0;2.3500579545975597;54;28;22;2;
2019_03_04 09:21;18;1;1;timed;42;45;0;97;87;0;0;0.71999999999999997;0.28000000000000003;0.0;0.0;96;11;14;4;0.25;0.029999999999999999;0.14000000000000001;0.57999999999999996;0;1.7834217138270105;54;28;22;2;
2019_03_04 09:21;18;1;1;timed;43;138;0;8;20;43;51;0.38;0.5;0.02;0.10000000000000001;72;82;70;1;0.39000000000000001;0.050000000000000003;0.070000000000000007;0.48999999999999999;0;2.3165668042997822;54;28;22;2;
2019_03_04 09:21;18;1;1;timed;44;68;1;84;27;55;62;0.01;0.050000000000000003;0.40999999999999998;0.53000000000000003;9;82;0;0;0.37;0.63;0.0;0.0;0;3.199897497015627;54;28;22;2;
2019_03_04 09:21;18;1;1;timed;45;108;1;48;72;39;70;0.14000000000000001;0.66000000000000003;0.02;0.17999999999999999;81;44;98;8;0.59999999999999998;0.029999999999999999;0.050000000000000003;0.32000000000000001;1;4.716680276001171;54;28;22;2;
2019_03_04 09:21;18;1;1;timed;46;105;1;49;74;63;58;0.84999999999999998;0.080000000000000002;0.02;0.050000000000000003;97;5;86;8;0.25;0.52000000000000002;0.070000000000000007;0.16;0;3.833269402602582;54;28;22;2;
2019_03_04 09:21;18;1;1;timed;47;80;0;47;39;45;10;0.13;0.76000000000000001;0.059999999999999998;0.050000000000000003;2;87;0;0;0.48999999999999999;0.51000000000000001;0.0;0.0;0;1.6332686328678392;54;28;22;2;
2019_03_04 09:21;18;1;1;timed;48;118;0;62;52;65;68;0.40999999999999998;0.44;0.10000000000000001;0.0500000000000001;79;20;14;37;0.56999999999999995;0.23999999999999999;0.14000000000000001;0.050000000000000003;0;2.749899774147252;54;28;22;2;
2019_03_04 09:21;18;1;1;timed;49;78;1;74;36;34;3;0.14999999999999999;0.64000000000000001;0.13;0.080000000000000002;1;83;0;0;0.41999999999999998;0.57999999999999996;0.0;0.0;0;4.316522544562758;54;28;22;2;
2019_03_04 09:21;18;1;1;timed;50;48;0;13;32;0;0;0.90000000000000002;0.10000000000000001;0.0;0.0;24;99;84;94;0.62;0.14999999999999999;0.20000000000000001;0.029999999999999999;0;4.000035279500025;54;28;22;2;
2019_03_04 09:21;18;1;1;timed;51;79;1;52;46;29;22;0.17999999999999999;0.51000000000000001;0.23999999999999999;0.070000000000000104;93;14;0;0;0.45000000000000001;0.55000000000000004;0.0;0.0;0;4.066698460979751;54;28;22;2;
2019_03_04 09:21;18;1;1;timed;52;58;1;37;58;76;34;0.20999999999999999;0.57999999999999996;0.19;0.020000000000000101;86;5;0;0;0.47999999999999998;0.52000000000000002;0.0;0.0;0;2.0501071534640687;54;28;22;2;
2019_03_04 09:21;18;1;1;timed;53;89;0;26;41;13;56;0.059999999999999998;0.40999999999999998;0.050000000000000003;0.47999999999999998;5;97;0;0;0.37;0.63;0.0;0.0;0;2.683314849013641;54;28;22;2;
2019_03_04 09:21;18;1;1;timed;54;7;0;49;29;0;0;0.95999999999999996;0.040000000000000001;0.0;0.0;23;99;64;25;0.68999999999999995;0.12;0.059999999999999998;0.13;0;4.3664982017076;54;28;22;2;
2019_03_04 09:21;18;1;1;timed;55;41;0;99;40;0;0;0.89000000000000001;0.11;0.0;0.0;1;67;52;46;0.51000000000000001;0.38;0.029999999999999999;0.080000000000000002;0;2.5499208135579465;54;28;22;2;
2019_03_04 09:21;18;1;1;timed;56;22;1;32;55;0;0;0.39000000000000001;0.60999999999999999;0.0;0.0;93;72;59;22;0.20000000000000001;0.11;0.14000000000000001;0.55000000000000004;1;2.016578478606789;54;28;22;2;
2019_03_04 09:21;18;1;1;timed;57;96;0;51;54;39;7;0.17000000000000001;0.26000000000000001;0.10000000000000001;0.46999999999999997;24;96;0;0;0.28000000000000003;0.71999999999999997;0.0;0.0;0;3.549879761048942;54;28;22;2;
2019_03_04 09:21;18;1;1;timed;58;85;1;31;22;82;50;0.11;0.69999999999999996;0.01;0.17999999999999999;3;99;0;0;0.62;0.38;0.0;0.0;0;4.73344092511843;54;28;22;2;
2019_03_04 09:21;18;1;1;timed;59;19;0;22;53;0;0;0.13;0.87;0.0;0.0;4;93;96;65;0.46999999999999997;0.059999999999999998;0.26000000000000001;0.20999999999999999;0;2.6166025969559996;54;28;22;2;
2019_03_04 09:21;18;1;1;timed;60;73;0;65;68;70;47;0.25;0.23000000000000001;0.20999999999999999;0.31;27;95;0;0;0.45000000000000001;0.55000000000000004;0.0;0.0;0;2.549883930444139;54;28;22;2;
2019_03_04 09:21;18;1;1;timed;61;139;1;44;31;16;8;0.79000000000000004;0.070000000000000007;0.13;0.0099999999999999499;92;58;2;88;0.55000000000000004;0.070000000000000007;0.34000000000000002;0.039999999999999897;0;2.9499476901228263;54;28;22;2;
2019_03_04 09:21;18;1;1;timed;62;127;0;89;26;62;79;0.02;0.28999999999999998;0.53000000000000003;0.16;96;6;60;13;0.53000000000000003;0.25;0.17000000000000001;0.050000000000000003;0;2.616589447324259;54;28;22;2;
2019_03_04 09:21;18;1;1;timed;63;120;1;64;40;48;51;0.19;0.02;0.070000000000000007;0.71999999999999997;97;9;79;94;0.23000000000000001;0.54000000000000004;0.01;0.22;0;2.3332774206705835;54;28;22;2;
2019_03_04 09:21;18;1;1;timed;64;87;0;10;30;63;4;0.56999999999999995;0.12;0.16;0.14999999999999999;86;2;0;0;0.42999999999999999;0.56999999999999995;0.0;0.0;0;3.2665629235543747;54;28;22;2;
2019_03_04 09:21;18;1;1;timed;65;8;0;50;36;0;0;0.080000000000000002;0.92000000000000004;0.0;0.0;6;19;84;29;0.54000000000000004;0.070000000000000007;0.17000000000000001;0.22;0;2.666629249014477;54;28;22;2;
2019_03_04 09:21;18;1;1;timed;66;77;1;24;17;99;41;0.17999999999999999;0.13;0.10000000000000001;0.58999999999999997;12;97;0;0;0.59999999999999998;0.40000000000000002;0.0;0.0;0;4.083298428009584;54;28;22;2;
2019_03_04 09:21;18;1;1;timed;67;84;1;43;10;5;45;0.78000000000000003;0.13;0.059999999999999998;0.029999999999999999;87;1;0;0;0.57999999999999996;0.41999999999999998;0.0;0.0;0;1.5665865287469387;54;28;22;2;
2019_03_04 09:21;18;1;1;timed;68;60;0;64;59;57;96;0.83999999999999997;0.13;0.02;0.01;83;6;0;0;0.54000000000000004;0.46000000000000002;0.0;0.0;0;4.466555033775421;54;28;22;2;
2019_03_04 09:21;18;1;1;timed;69;50;0;15;20;0;0;0.82999999999999996;0.17000000000000001;0.0;0.0;97;18;88;87;0.56999999999999995;0.39000000000000001;0.01;0.029999999999999999;1;2.7832180548934957;54;28;22;2;
2019_03_04 09:21;18;1;1;timed;70;23;0;54;40;0;0;0.93000000000000005;0.070000000000000007;0.0;0.0;36;23;71;86;0.02;0.41999999999999998;0.19;0.37;0;3.716540761613942;54;28;22;2;
2019_03_04 09:21;18;1;1;timed;71;53;0;26;70;50;80;0.29999999999999999;0.59999999999999998;0.040000000000000001;0.059999999999999998;89;1;0;0;0.40999999999999998;0.58999999999999997;0.0;0.0;0;1.850116326133957;54;28;22;2;
2019_03_04 09:21;18;1;1;timed;72;146;0;25;5;64;35;0.94999999999999996;0.02;0.01;0.02;47;97;12;79;0.20999999999999999;0.029999999999999999;0.02;0.73999999999999999;NA;5.616744677125553;54;28;22;2;
2019_03_04 09:21;18;1;1;timed;73;14;0;36;40;0;0;0.54000000000000004;0.46000000000000002;0.0;0.0;99;70;1;11;0.16;0.089999999999999997;0.080000000000000002;0.67000000000000004;0;4.033249966805215;54;28;22;2;
2019_03_04 09:21;18;1;1;timed;74;71;1;68;55;36;51;0.20000000000000001;0.75;0.02;0.029999999999999999;38;81;0;0;0.52000000000000002;0.47999999999999998;0.0;0.0;0;2.733404042004622;54;28;22;2;
2019_03_04 09:21;18;1;1;timed;75;70;1;66;55;69;50;0.22;0.29999999999999999;0.29999999999999999;0.17999999999999999;2;90;0;0;0.34000000000000002;0.66000000000000003;0.0;0.0;0;4.683114397307236;54;28;22;2;
2019_03_04 09:21;18;2;1;control;1;31;1;10;59;0;0;0.23999999999999999;0.76000000000000001;0.0;0.0;1;79;53;73;0.23000000000000001;0.58999999999999997;0.050000000000000003;0.13;0;8.926473672833254;54;28;22;2;
2019_03_04 09:21;18;2;1;control;2;68;1;84;27;55;62;0.01;0.050000000000000003;0.40999999999999998;0.53000000000000003;9;82;0;0;0.37;0.63;0.0;0.0;0;3.6665615765191433;54;28;22;2;
2019_03_04 09:21;18;2;1;control;3;109;1;75;28;16;56;0.19;0.070000000000000007;0.059999999999999998;0.68000000000000005;3;50;98;44;0.5;0.02;0.34999999999999998;0.13;0;5.233240473412025;54;28;22;2;
2019_03_04 09:21;18;2;1;control;4;132;1;27;70;21;19;0.64000000000000001;0.23000000000000001;0.029999999999999999;0.10000000000000001;11;85;55;6;0.39000000000000001;0.46999999999999997;0.029999999999999999;0.11;0;6.5498682150305285;54;28;22;2;
2019_03_04 09:21;18;2;1;control;5;1;0;22;51;0;0;0.26000000000000001;0.73999999999999999;0.0;0.0;14;11;92;31;0.29999999999999999;0.40999999999999998;0.14999999999999999;0.14000000000000001;0;2.5500484612043692;54;28;22;2;
2019_03_04 09:21;18;2;1;control;6;127;0;89;26;62;79;0.02;0.28999999999999998;0.53000000000000003;0.16;96;6;60;13;0.53000000000000003;0.25;0.17000000000000001;0.050000000000000003;0;3.6335239281606846;54;28;22;2;
2019_03_04 09:21;18;2;1;control;7;34;0;32;48;0;0;0.28000000000000003;0.71999999999999997;0.0;0.0;97;83;7;62;0.040000000000000001;0.54000000000000004;0.35999999999999999;0.059999999999999901;0;3.266580242582222;54;28;22;2;
2019_03_04 09:21;18;2;1;control;8;66;0;89;23;27;15;0.070000000000000007;0.54000000000000004;0.17000000000000001;0.22;9;73;0;0;0.72999999999999998;0.27000000000000002;0.0;0.0;0;4.666507374377488;54;28;22;2;
2019_03_04 09:21;18;2;1;control;9;118;0;62;52;65;68;0.40999999999999998;0.44;0.10000000000000001;0.0500000000000001;79;20;14;37;0.56999999999999995;0.23999999999999999;0.14000000000000001;0.050000000000000003;0;2.6333388711454973;54;28;22;2;
2019_03_04 09:21;18;2;1;control;10;122;0;35;58;25;31;0.81999999999999995;0.070000000000000007;0.080000000000000002;0.029999999999999999;18;64;68;89;0.63;0.17000000000000001;0.11;0.089999999999999997;0;3.0832795053684094;54;28;22;2;
2019_03_04 09:21;18;2;1;control;11;147;1;39;43;76;28;0.14000000000000001;0.10000000000000001;0.10000000000000001;0.66000000000000003;6;31;68;85;0.27000000000000002;0.20000000000000001;0.22;0.31;0;2.7332026281305843;54;28;22;2;
2019_03_04 09:21;18;2;1;control;12;58;1;37;58;76;34;0.20999999999999999;0.57999999999999996;0.19;0.020000000000000101;86;5;0;0;0.47999999999999998;0.52000000000000002;0.0;0.0;0;1.6831641093303915;54;28;22;2;
2019_03_04 09:21;18;2;1;control;13;81;0;67;38;52;65;0.27000000000000002;0.35999999999999999;0.01;0.35999999999999999;2;77;0;0;0.14000000000000001;0.85999999999999999;0.0;0.0;0;3.3997456027309454;54;28;22;2;
2019_03_04 09:21;18;2;1;control;14;29;0;44;51;0;0;0.78000000000000003;0.22;0.0;0.0;74;1;68;82;0.69999999999999996;0.28000000000000003;0.01;0.01;0;7.7665177016492635;54;28;22;2;
2019_03_04 09:21;18;2;1;control;15;114;1;57;39;79;97;0.77000000000000002;0.02;0.13;0.080000000000000002;92;36;6;1;0.54000000000000004;0.12;0.13;0.20999999999999999;0;3.7831237624113783;54;28;22;2;
2019_03_04 09:21;18;2;1;control;16;115;1;50;28;61;79;0.83999999999999997;0.040000000000000001;0.059999999999999998;0.059999999999999998;1;26;97;55;0.45000000000000001;0.080000000000000002;0.40999999999999998;0.060000000000000102;0;6.2498304980376815;54;28;22;2;
2019_03_04 09:21;18;2;1;control;17;32;0;19;81;0;0;0.93000000000000005;0.070000000000000007;0.0;0.0;1;65;41;68;0.45000000000000001;0.050000000000000003;0.059999999999999998;0.44;0;8.133340154036887;54;28;22;2;
2019_03_04 09:21;18;2;1;control;18;24;0;35;27;0;0;0.070000000000000007;0.93000000000000005;0.0;0.0;62;3;81;95;0.35999999999999999;0.55000000000000004;0.01;0.080000000000000002;0;1.883185726042484;54;28;22;2;
2019_03_04 09:21;18;2;1;control;19;40;1;45;49;0;0;0.68999999999999995;0.31;0.0;0.0;2;92;65;73;0.23999999999999999;0.59999999999999998;0.11;0.050000000000000003;0;2.8998321978679087;54;28;22;2;
2019_03_04 09:21;18;2;1;control;20;47;1;2;40;0;0;0.45000000000000001;0.55000000000000004;0.0;0.0;93;89;11;56;0.58999999999999997;0.070000000000000007;0.28000000000000003;0.059999999999999998;1;3.9831498692410605;54;28;22;2;
2019_03_04 09:21;18;2;1;control;21;57;1;52;35;23;47;0.22;0.68000000000000005;0.040000000000000001;0.059999999999999998;71;7;0;0;0.28999999999999998;0.70999999999999996;0.0;0.0;0;4.483206957886978;54;28;22;2;
2019_03_04 09:21;18;2;1;control;22;125;1;37;41;10;35;0.91000000000000003;0.040000000000000001;0.029999999999999999;0.02;7;13;91;93;0.26000000000000001;0.39000000000000001;0.16;0.19;0;5.666580178437471;54;28;22;2;
2019_03_04 09:21;18;2;1;control;23;41;0;99;40;0;0;0.89000000000000001;0.11;0.0;0.0;1;67;52;46;0.51000000000000001;0.38;0.029999999999999999;0.080000000000000002;0;2.516671808920819;54;28;22;2;
2019_03_04 09:21;18;2;1;control;24;105;1;49;74;63;58;0.84999999999999998;0.080000000000000002;0.02;0.050000000000000003;97;5;86;8;0.25;0.52000000000000002;0.070000000000000007;0.16;0;5.849957247659859;54;28;22;2;
2019_03_04 09:21;18;2;1;control;25;39;0;14;33;0;0;0.78000000000000003;0.22;0.0;0.0;93;84;1;25;0.14000000000000001;0.23999999999999999;0.39000000000000001;0.23000000000000001;0;7.2830474304018935;54;28;22;2;
2019_03_04 09:21;18;2;1;control;26;16;1;64;53;0;0;0.65000000000000002;0.34999999999999998;0.0;0.0;29;17;81;46;0.10000000000000001;0.01;0.44;0.45000000000000001;0;6.666663887069717;54;28;22;2;
2019_03_04 09:21;18;2;1;control;27;145;0;91;89;90;74;0.57999999999999996;0.29999999999999999;0.11;0.010000000000000101;2;75;84;39;0.32000000000000001;0.27000000000000002;0.39000000000000001;0.0199999999999999;0;5.016629473520879;54;28;22;2;
2019_03_04 09:21;18;2;1;control;28;131;1;83;41;81;88;0.23999999999999999;0.58999999999999997;0.10000000000000001;0.070000000000000007;82;97;4;17;0.26000000000000001;0.46999999999999997;0.11;0.16;0;4.80003354759765;54;28;22;2;
2019_03_04 09:21;18;2;1;control;29;137;0;71;22;28;17;0.25;0.46000000000000002;0.050000000000000003;0.23999999999999999;3;98;92;69;0.42999999999999999;0.23999999999999999;0.20000000000000001;0.13;0;9.383204648683659;54;28;22;2;
2019_03_04 09:21;18;2;1;control;30;18;1;68;50;0;0;0.029999999999999999;0.96999999999999997;0.0;0.0;34;64;15;89;0.65000000000000002;0.029999999999999999;0.050000000000000003;0.27000000000000002;0;5.9666563821579075;54;28;22;2;
2019_03_04 09:21;18;2;1;control;31;12;1;53;68;0;0;0.31;0.68999999999999995;0.0;0.0;69;54;97;29;0.25;0.20999999999999999;0.20000000000000001;0.34000000000000002;0;3.6833331302086663;54;28;22;2;
2019_03_04 09:21;18;2;1;control;32;51;1;52;23;43;16;0.60999999999999999;0.20999999999999999;0.01;0.17000000000000001;92;7;0;0;0.14999999999999999;0.84999999999999998;0.0;0.0;0;3.083263148509559;54;28;22;2;
2019_03_04 09:21;18;2;1;control;33;139;1;44;31;16;8;0.79000000000000004;0.070000000000000007;0.13;0.0099999999999999499;92;58;2;88;0.55000000000000004;0.070000000000000007;0.34000000000000002;0.039999999999999897;0;5.133210261330987;54;28;22;2;
2019_03_04 09:21;18;2;1;control;34;59;1;56;47;83;90;0.31;0.12;0.54000000000000004;0.029999999999999898;10;98;0;0;0.46999999999999997;0.53000000000000003;0.0;0.0;0;2.4999967927728903;54;28;22;2;
2019_03_04 09:21;18;2;1;control;35;54;1;44;79;78;52;0.79000000000000004;0.19;0.01;0.0099999999999999603;96;1;0;0;0.28000000000000003;0.71999999999999997;0.0;0.0;0;2.116758147479686;54;28;22;2;
2019_03_04 09:21;18;2;1;control;36;89;1;26;41;13;56;0.059999999999999998;0.40999999999999998;0.050000000000000003;0.47999999999999998;5;97;0;0;0.37;0.63;0.0;0.0;0;2.7498731541604684;54;28;22;2;
2019_03_04 09:21;18;2;1;control;37;45;0;97;87;0;0;0.71999999999999997;0.28000000000000003;0.0;0.0;96;11;14;4;0.25;0.029999999999999999;0.14000000000000001;0.57999999999999996;0;2.383249549865468;54;28;22;2;
2019_03_04 09:21;18;2;1;control;38;71;0;68;55;36;51;0.20000000000000001;0.75;0.02;0.029999999999999999;38;81;0;0;0.52000000000000002;0.47999999999999998;0.0;0.0;0;6.76654015224085;54;28;22;2;
2019_03_04 09:21;18;2;1;control;39;36;0;70;17;0;0;0.33000000000000002;0.67000000000000004;0.0;0.0;84;1;12;88;0.22;0.27000000000000002;0.14000000000000001;0.37;0;8.133312251159168;54;28;22;2;
2019_03_04 09:21;18;2;1;control;40;9;1;61;69;0;0;0.93999999999999995;0.060000000000000102;0.0;0.0;18;93;72;16;0.40999999999999998;0.34999999999999998;0.089999999999999997;0.14999999999999999;0;4.950037171764507;54;28;22;2;
2019_03_04 09:21;18;2;1;control;41;77;0;24;17;99;41;0.17999999999999999;0.13;0.10000000000000001;0.58999999999999997;12;97;0;0;0.59999999999999998;0.40000000000000002;0.0;0.0;0;5.566550287078826;54;28;22;2;
2019_03_04 09:21;18;2;1;control;42;73;1;65;68;70;47;0.25;0.23000000000000001;0.20999999999999999;0.31;27;95;0;0;0.45000000000000001;0.55000000000000004;0.0;0.0;0;10.083123954844723;54;28;22;2;
2019_03_04 09:21;18;2;1;control;43;83;1;17;12;7;41;0.65000000000000002;0.19;0.089999999999999997;0.070000000000000007;6;84;0;0;0.72999999999999998;0.27000000000000002;0.0;0.0;0;1.399932904805155;54;28;22;2;
2019_03_04 09:21;18;2;1;control;44;30;0;33;30;0;0;0.71999999999999997;0.28000000000000003;0.0;0.0;9;88;1;14;0.55000000000000004;0.39000000000000001;0.01;0.049999999999999899;1;5.749709906291173;54;28;22;2;
2019_03_04 09:21;18;2;1;control;45;104;1;55;85;93;3;0.87;0.02;0.089999999999999997;0.02;1;2;90;8;0.35999999999999999;0.070000000000000007;0.40000000000000002;0.17000000000000001;0;0.416602789389799;54;28;22;2;
2019_03_04 09:21;18;2;1;control;46;53;0;26;70;50;80;0.29999999999999999;0.59999999999999998;0.040000000000000001;0.059999999999999998;89;1;0;0;0.40999999999999998;0.58999999999999997;0.0;0.0;0;3.166442588386417;54;28;22;2;
2019_03_04 09:21;18;2;1;control;47;14;1;36;40;0;0;0.54000000000000004;0.46000000000000002;0.0;0.0;99;70;1;11;0.16;0.089999999999999997;0.080000000000000002;0.67000000000000004;0;5.416458784884526;54;28;22;2;
2019_03_04 09:21;18;2;1;control;48;56;1;28;84;37;41;0.68000000000000005;0.28000000000000003;0.02;0.0199999999999999;6;95;0;0;0.72999999999999998;0.27000000000000002;0.0;0.0;0;3.9169305680193247;54;28;22;2;
2019_03_04 09:21;18;2;1;control;49;52;0;71;51;10;54;0.22;0.12;0.19;0.46999999999999997;91;1;0;0;0.29999999999999999;0.69999999999999996;0.0;0.0;0;2.533328543874177;54;28;22;2;
2019_03_04 09:21;18;2;1;control;50;150;1;25;21;78;38;0.84999999999999998;0.059999999999999998;0.050000000000000003;0.040000000000000001;31;43;64;95;0.059999999999999998;0.45000000000000001;0.13;0.35999999999999999;1;13.883313373688907;54;28;22;2;
2019_03_04 09:21;18;2;1;control;51;26;1;76;41;0;0;0.57999999999999996;0.41999999999999998;0.0;0.0;61;79;84;2;0.13;0.029999999999999999;0.67000000000000004;0.17000000000000001;0;5.133256124681793;54;28;22;2;
2019_03_04 09:21;18;2;1;control;52;13;1;52;56;0;0;0.46999999999999997;0.53000000000000003;0.0;0.0;94;71;27;2;0.089999999999999997;0.31;0.57999999999999996;0.020000000000000101;0;6.5998624740936975;54;28;22;2;
2019_03_04 09:21;18;2;1;control;53;86;1;56;30;57;88;0.20000000000000001;0.35999999999999999;0.080000000000000002;0.35999999999999999;98;2;0;0;0.77000000000000002;0.23000000000000001;0.0;0.0;0;5.033107886636117;54;28;22;2;
2019_03_04 09:21;18;2;1;control;54;101;0;30;96;61;45;0.65000000000000002;0.14000000000000001;0.11;0.10000000000000001;3;98;63;89;0.75;0.19;0.040000000000000001;0.02;0;11.233116674438861;54;28;22;2;
2019_03_04 09:21;18;2;1;control;55;7;0;49;29;0;0;0.95999999999999996;0.040000000000000001;0.0;0.0;23;99;64;25;0.68999999999999995;0.12;0.059999999999999998;0.13;0;5.0498682150305285;54;28;22;2;
2019_03_04 09:21;18;2;1;control;56;140;0;36;32;26;27;0.39000000000000001;0.14999999999999999;0.19;0.27000000000000002;44;3;99;25;0.29999999999999999;0.34000000000000002;0.34000000000000002;0.0199999999999999;0;2.3167185061502096;54;28;22;2;
2019_03_04 09:21;18;2;1;control;57;120;0;64;40;48;51;0.19;0.02;0.070000000000000007;0.71999999999999997;97;9;79;94;0.23000000000000001;0.54000000000000004;0.01;0.22;0;2.5334292508109684;54;28;22;2;
2019_03_04 09:21;18;2;1;control;58;98;0;27;10;31;79;0.23000000000000001;0.67000000000000004;0.070000000000000007;0.029999999999999999;25;99;0;0;0.38;0.62;0.0;0.0;1;2.333490701285882;54;28;22;2;
2019_03_04 09:21;18;2;1;control;59;2;0;59;32;0;0;0.080000000000000002;0.92000000000000004;0.0;0.0;33;38;85;1;0.28999999999999998;0.050000000000000003;0.070000000000000007;0.58999999999999997;0;1.9166197876943443;54;28;22;2;
2019_03_04 09:21;18;2;1;control;60;94;1;84;86;93;39;0.78000000000000003;0.20000000000000001;0.01;0.0099999999999999603;9;83;0;0;0.46999999999999997;0.53000000000000003;0.0;0.0;0;4.033111735308921;54;28;22;2;
2019_03_04 09:21;18;2;1;control;61;144;0;99;93;90;71;0.65000000000000002;0.32000000000000001;0.01;0.02;97;14;48;73;0.23000000000000001;0.46000000000000002;0.13;0.17999999999999999;0;2.5667318161436015;54;28;22;2;
2019_03_04 09:21;18;2;1;control;62;44;0;79;74;0;0;0.71999999999999997;0.28000000000000003;0.0;0.0;3;67;15;36;0.41999999999999998;0.53000000000000003;0.02;0.029999999999999999;0;2.3833755938981085;54;28;22;2;
2019_03_04 09:21;18;2;1;control;63;6;0;9;51;0;0;0.14999999999999999;0.84999999999999998;0.0;0.0;6;40;50;73;0.42999999999999999;0.26000000000000001;0.059999999999999998;0.25;0;6.583371873514352;54;28;22;2;
2019_03_04 09:21;18;2;1;control;64;60;0;64;59;57;96;0.83999999999999997;0.13;0.02;0.01;83;6;0;0;0.54000000000000004;0.46000000000000002;0.0;0.0;0;3.833233160934469;54;28;22;2;
2019_03_04 09:21;18;2;1;control;65;111;0;51;36;48;27;0.93000000000000005;0.01;0.01;0.049999999999999899;31;78;30;53;0.55000000000000004;0.16;0.029999999999999999;0.26000000000000001;1;5.233147784543235;54;28;22;2;
2019_03_04 09:21;18;2;1;control;66;50;0;15;20;0;0;0.82999999999999996;0.17000000000000001;0.0;0.0;97;18;88;87;0.56999999999999995;0.39000000000000001;0.01;0.029999999999999999;1;5.799860998768963;54;28;22;2;
2019_03_04 09:21;18;2;1;control;67;123;0;26;24;51;92;0.72999999999999998;0.16;0.070000000000000007;0.040000000000000001;6;90;82;49;0.64000000000000001;0.25;0.050000000000000003;0.059999999999999998;1;3.4165190807575527;54;28;22;2;
2019_03_04 09:21;18;2;1;control;68;3;1;53;40;0;0;0.31;0.68999999999999995;0.0;0.0;96;24;7;88;0.11;0.27000000000000002;0.58999999999999997;0.029999999999999999;0;5.1165548092694735;54;28;22;2;
2019_03_04 09:21;18;2;1;control;69;100;0;27;14;59;52;0.02;0.95999999999999996;0.01;0.01;17;98;0;0;0.48999999999999999;0.51000000000000001;0.0;0.0;0;9.21648174863185;54;28;22;2;
2019_03_04 09:21;18;2;1;control;70;70;0;66;55;69;50;0.22;0.29999999999999999;0.29999999999999999;0.17999999999999999;2;90;0;0;0.34000000000000002;0.66000000000000003;0.0;0.0;0;2.116588805878564;54;28;22;2;
2019_03_04 09:21;18;2;1;control;71;23;0;54;40;0;0;0.93000000000000005;0.070000000000000007;0.0;0.0;36;23;71;86;0.02;0.41999999999999998;0.19;0.37;0;2.366733612191183;54;28;22;2;
2019_03_04 09:21;18;2;1;control;72;142;0;98;65;64;84;0.88;0.070000000000000007;0.01;0.040000000000000001;5;68;60;16;0.46000000000000002;0.080000000000000002;0.27000000000000002;0.19;0;2.7500530796119165;54;28;22;2;
2019_03_04 09:21;18;2;1;control;73;17;1;81;52;0;0;0.059999999999999998;0.93999999999999995;0.0;0.0;34;3;69;41;0.01;0.22;0.75;0.02;0;2.867503988187309;54;28;22;2;
2019_03_04 09:21;18;2;1;control;74;96;1;51;54;39;7;0.17000000000000001;0.26000000000000001;0.10000000000000001;0.46999999999999997;24;96;0;0;0.28000000000000003;0.71999999999999997;0.0;0.0;1;10.983124852868514;54;28;22;2;
2019_03_04 09:21;18;2;1;control;75;82;1;78;66;30;27;0.28999999999999998;0.58999999999999997;0.080000000000000002;0.040000000000000001;90;6;0;0;0.82999999999999996;0.17000000000000001;0.0;0.0;0;2.149841659188496;54;28;22;2;
2019_03_04 09:21;18;3;1;timed;1;116;0;53;65;43;99;0.56999999999999995;0.37;0.050000000000000003;0.010000000000000101;57;72;11;87;0.67000000000000004;0.13;0.14999999999999999;0.050000000000000003;0;2.122908005816498;54;28;22;2;
2019_03_04 09:21;18;3;1;timed;2;149;1;14;89;73;53;0.93999999999999995;0.01;0.01;0.040000000000000001;97;45;6;13;0.34000000000000002;0.01;0.40999999999999998;0.23999999999999999;0;2.6998853095519735;54;28;22;2;
2019_03_04 09:21;18;3;1;timed;3;74;0;66;47;52;44;0.41999999999999998;0.26000000000000001;0.17999999999999999;0.14000000000000001;17;99;0;0;0.47999999999999998;0.52000000000000002;0.0;0.0;0;2.2999469524606866;54;28;22;2;
2019_03_04 09:21;18;3;1;timed;4;102;0;40;56;53;17;0.28000000000000003;0.26000000000000001;0.14999999999999999;0.31;1;76;29;62;0.68000000000000005;0.23000000000000001;0.050000000000000003;0.039999999999999897;0;1.7665808840274622;54;28;22;2;
2019_03_04 09:21;18;3;1;timed;5;6;1;9;51;0;0;0.14999999999999999;0.84999999999999998;0.0;0.0;6;40;50;73;0.42999999999999999;0.26000000000000001;0.059999999999999998;0.25;1;2.133196149531159;54;28;22;2;
2019_03_04 09:21;18;3;1;timed;6;125;0;37;41;10;35;0.91000000000000003;0.040000000000000001;0.029999999999999999;0.02;7;13;91;93;0.26000000000000001;0.39000000000000001;0.16;0.19;0;3.849928703337355;54;28;22;2;
2019_03_04 09:21;18;3;1;timed;7;10;0;45;62;0;0;0.059999999999999998;0.93999999999999995;0.0;0.0;17;99;28;67;0.58999999999999997;0.34000000000000002;0.01;0.059999999999999998;0;2.4499371062725004;54;28;22;2;
2019_03_04 09:21;18;3;1;timed;8;140;0;36;32;26;27;0.39000000000000001;0.14999999999999999;0.19;0.27000000000000002;44;3;99;25;0.29999999999999999;0.34000000000000002;0.34000000000000002;0.0199999999999999;0;2.000079218514202;54;28;22;2;
2019_03_04 09:21;18;3;1;timed;9;86;0;56;30;57;88;0.20000000000000001;0.35999999999999999;0.080000000000000002;0.35999999999999999;98;2;0;0;0.77000000000000002;0.23000000000000001;0.0;0.0;0;2.6666067984237998;54;28;22;2;
2019_03_04 09:21;18;3;1;timed;10;33;0;27;70;0;0;0.88;0.12;0.0;0.0;93;3;77;16;0.080000000000000002;0.40000000000000002;0.5;0.02;0;2.14996160948931;54;28;22;2;
2019_03_04 09:21;18;3;1;timed;11;43;1;60;83;0;0;0.23000000000000001;0.77000000000000002;0.0;0.0;72;5;70;12;0.29999999999999999;0.40999999999999998;0.12;0.17000000000000001;0;1.7333989104404282;54;28;22;2;
2019_03_04 09:21;18;3;1;timed;12;126;1;16;55;51;42;0.68999999999999995;0.23999999999999999;0.01;0.060000000000000102;66;4;1;5;0.46999999999999997;0.38;0.089999999999999997;0.059999999999999998;0;1.5499291523492502;54;28;22;2;
2019_03_04 09:21;18;3;1;timed;13;15;1;77;81;0;0;0.28000000000000003;0.71999999999999997;0.0;0.0;98;14;87;18;0.55000000000000004;0.23000000000000001;0.16;0.059999999999999901;0;2.6167648826572076;54;28;22;2;
2019_03_04 09:21;18;3;1;timed;14;54;0;44;79;78;52;0.79000000000000004;0.19;0.01;0.0099999999999999603;96;1;0;0;0.28000000000000003;0.71999999999999997;0.0;0.0;0;2.466556316666356;54;28;22;2;
2019_03_04 09:21;18;3;1;timed;15;98;1;27;10;31;79;0.23000000000000001;0.67000000000000004;0.070000000000000007;0.029999999999999999;25;99;0;0;0.38;0.62;0.0;0.0;1;4.083147367603942;54;28;22;2;
2019_03_04 09:21;18;3;1;timed;16;18;0;68;50;0;0;0.029999999999999999;0.96999999999999997;0.0;0.0;34;64;15;89;0.65000000000000002;0.029999999999999999;0.050000000000000003;0.27000000000000002;1;3.5832641106776464;54;28;22;2;
2019_03_04 09:21;18;3;1;timed;17;4;0;40;43;0;0;0.58999999999999997;0.40999999999999998;0.0;0.0;2;33;88;81;0.69999999999999996;0.14000000000000001;0.13;0.029999999999999999;0;1.216684124673975;54;28;22;2;
2019_03_04 09:21;18;3;1;timed;18;109;1;75;28;16;56;0.19;0.070000000000000007;0.059999999999999998;0.68000000000000005;3;50;98;44;0.5;0.02;0.34999999999999998;0.13;0;2.04991407838088;54;28;22;2;
2019_03_04 09:21;18;3;1;timed;19;25;0;50;53;0;0;0.82999999999999996;0.17000000000000001;0.0;0.0;83;16;97;4;0.45000000000000001;0.29999999999999999;0.11;0.14000000000000001;0;1.799906541396922;54;28;22;2;
2019_03_04 09:21;18;3;1;timed;20;110;0;47;44;23;52;0.13;0.27000000000000002;0.040000000000000001;0.56000000000000005;99;2;30;22;0.28999999999999998;0.5;0.11;0.10000000000000001;0;2.2166081133873377;54;28;22;2;
2019_03_04 09:21;18;3;1;timed;21;76;1;39;62;9;28;0.01;0.51000000000000001;0.26000000000000001;0.22;77;7;0;0;0.57999999999999996;0.41999999999999998;0.0;0.0;1;3.066624053306896;54;28;22;2;
2019_03_04 09:21;18;3;1;timed;22;5;0;70;5;0;0;0.98999999999999999;0.01;0.0;0.0;92;87;47;1;0.44;0.02;0.16;0.38;0;3.266554584763526;54;28;22;2;
2019_03_04 09:21;18;3;1;timed;23;26;1;76;41;0;0;0.57999999999999996;0.41999999999999998;0.0;0.0;61;79;84;2;0.13;0.029999999999999999;0.67000000000000004;0.17000000000000001;NA;5.63318524495844;54;28;22;2;
2019_03_04 09:21;18;3;1;timed;24;69;0;54;34;64;49;0.34000000000000002;0.25;0.20999999999999999;0.20000000000000001;14;98;0;0;0.62;0.38;0.0;0.0;0;1.4331722877600441;54;28;22;2;
2019_03_04 09:21;18;3;1;timed;25;90;0;27;44;50;72;0.68000000000000005;0.28999999999999998;0.02;0.0099999999999999707;6;96;0;0;0.46999999999999997;0.53000000000000003;0.0;0.0;0;1.5833086911370629;54;28;22;2;
2019_03_04 09:21;18;3;1;timed;26;51;1;52;23;43;16;0.60999999999999999;0.20999999999999999;0.01;0.17000000000000001;92;7;0;0;0.14999999999999999;0.84999999999999998;0.0;0.0;0;2.33341404855355;54;28;22;2;
2019_03_04 09:21;18;3;1;timed;27;123;1;26;24;51;92;0.72999999999999998;0.16;0.070000000000000007;0.040000000000000001;6;90;82;49;0.64000000000000001;0.25;0.050000000000000003;0.059999999999999998;0;1.7002525370771764;54;28;22;2;
2019_03_04 09:21;18;3;1;timed;28;121;0;42;51;47;70;0.41999999999999998;0.17000000000000001;0.23999999999999999;0.17000000000000001;21;76;48;9;0.14999999999999999;0.34000000000000002;0.40999999999999998;0.10000000000000001;1;2.4166152975763;54;28;22;2;
2019_03_04 09:21;18;3;1;timed;29;94;1;84;86;93;39;0.78000000000000003;0.20000000000000001;0.01;0.0099999999999999603;9;83;0;0;0.46999999999999997;0.53000000000000003;0.0;0.0;0;1.7665180223721109;54;28;22;2;
2019_03_04 09:21;18;3;1;timed;30;44;1;79;74;0;0;0.71999999999999997;0.28000000000000003;0.0;0.0;3;67;15;36;0.41999999999999998;0.53000000000000003;0.02;0.029999999999999999;0;1.6665695945871448;54;28;22;2;
2019_03_04 09:21;18;3;1;timed;31;147;0;39;43;76;28;0.14000000000000001;0.10000000000000001;0.10000000000000001;0.66000000000000003;6;31;68;85;0.27000000000000002;0.20000000000000001;0.22;0.31;0;2.1332359191496835;54;28;22;2;
2019_03_04 09:21;18;3;1;timed;32;101;0;30;96;61;45;0.65000000000000002;0.14000000000000001;0.11;0.10000000000000001;3;98;63;89;0.75;0.19;0.040000000000000001;0.02;0;1.516707729866539;54;28;22;2;
2019_03_04 09:21;18;3;1;timed;33;136;1;29;67;14;75;0.46000000000000002;0.29999999999999999;0.20999999999999999;0.0300000000000001;70;86;1;85;0.31;0.39000000000000001;0.27000000000000002;0.029999999999999898;1;2.3167425603551237;54;28;22;2;
2019_03_04 09:21;18;3;1;timed;34;132;1;27;70;21;19;0.64000000000000001;0.23000000000000001;0.029999999999999999;0.10000000000000001;11;85;55;6;0.39000000000000001;0.46999999999999997;0.029999999999999999;0.11;NA;5.616516643264731;54;28;22;2;
2019_03_04 09:21;18;3;1;timed;35;64;0;48;39;34;19;0.46000000000000002;0.5;0.02;0.02;13;92;0;0;0.68999999999999995;0.31;0.0;0.0;0;2.4333101985339454;54;28;22;2;
2019_03_04 09:21;18;3;1;timed;36;107;0;52;48;13;63;0.68000000000000005;0.19;0.050000000000000003;0.079999999999999905;54;91;33;3;0.19;0.17999999999999999;0.33000000000000002;0.29999999999999999;0;1.8499367214053564;54;28;22;2;
2019_03_04 09:21;18;3;1;timed;37;91;1;74;81;86;48;0.93000000000000005;0.02;0.01;0.039999999999999897;7;64;0;0;0.13;0.87;0.0;0.0;0;1.1832324232718747;54;28;22;2;
2019_03_04 09:21;18;3;1;timed;38;122;0;35;58;25;31;0.81999999999999995;0.070000000000000007;0.080000000000000002;0.029999999999999999;18;64;68;89;0.63;0.17000000000000001;0.11;0.089999999999999997;0;1.566485821810602;54;28;22;2;
2019_03_04 09:21;18;3;1;timed;39;111;0;51;36;48;27;0.93000000000000005;0.01;0.01;0.049999999999999899;31;78;30;53;0.55000000000000004;0.16;0.029999999999999999;0.26000000000000001;1;3.183404651377259;54;28;22;2;
2019_03_04 09:21;18;3;1;timed;40;61;0;43;18;39;70;0.75;0.089999999999999997;0.089999999999999997;0.070000000000000007;16;66;0;0;0.64000000000000001;0.35999999999999999;0.0;0.0;0;2.0333513151877014;54;28;22;2;
2019_03_04 09:21;18;3;1;timed;41;13;0;52;56;0;0;0.46999999999999997;0.53000000000000003;0.0;0.0;94;71;27;2;0.089999999999999997;0.31;0.57999999999999996;0.020000000000000101;0;1.566734381925471;54;28;22;2;
2019_03_04 09:21;18;3;1;timed;42;131;1;83;41;81;88;0.23999999999999999;0.58999999999999997;0.10000000000000001;0.070000000000000007;82;97;4;17;0.26000000000000001;0.46999999999999997;0.11;0.16;0;2.7999309163242287;54;28;22;2;
2019_03_04 09:21;18;3;1;timed;43;31;0;10;59;0;0;0.23999999999999999;0.76000000000000001;0.0;0.0;1;79;53;73;0.23000000000000001;0.58999999999999997;0.050000000000000003;0.13;0;3.1000260426853856;54;28;22;2;
2019_03_04 09:21;18;3;1;timed;44;32;1;19;81;0;0;0.93000000000000005;0.070000000000000007;0.0;0.0;1;65;41;68;0.45000000000000001;0.050000000000000003;0.059999999999999998;0.44;0;1.6667168063199824;54;28;22;2;
2019_03_04 09:21;18;3;1;timed;45;66;0;89;23;27;15;0.070000000000000007;0.54000000000000004;0.17000000000000001;0.22;9;73;0;0;0.72999999999999998;0.27000000000000002;0.0;0.0;0;2.383277773466034;54;28;22;2;
2019_03_04 09:21;18;3;1;timed;46;21;1;64;28;0;0;0.080000000000000002;0.92000000000000004;0.0;0.0;50;1;88;13;0.57999999999999996;0.13;0.02;0.27000000000000002;0;3.53330545183735;54;28;22;2;
2019_03_04 09:21;18;3;1;timed;47;47;0;2;40;0;0;0.45000000000000001;0.55000000000000004;0.0;0.0;93;89;11;56;0.58999999999999997;0.070000000000000007;0.28000000000000003;0.059999999999999998;1;2.9332470161562014;54;28;22;2;
2019_03_04 09:21;18;3;1;timed;48;150;1;25;21;78;38;0.84999999999999998;0.059999999999999998;0.050000000000000003;0.040000000000000001;31;43;64;95;0.059999999999999998;0.45000000000000001;0.13;0.35999999999999999;1;4.283443522972448;54;28;22;2;
2019_03_04 09:21;18;3;1;timed;49;92;0;90;86;65;94;0.16;0.34000000000000002;0.28000000000000003;0.22;79;22;0;0;0.35999999999999999;0.64000000000000001;0.0;0.0;0;3.7831330633703146;54;28;22;2;
2019_03_04 09:21;18;3;1;timed;50;40;0;45;49;0;0;0.68999999999999995;0.31;0.0;0.0;2;92;65;73;0.23999999999999999;0.59999999999999998;0.11;0.050000000000000003;0;3.516549613560983;54;28;22;2;
2019_03_04 09:21;18;3;1;timed;51;103;0;38;49;89;50;0.89000000000000001;0.070000000000000007;0.01;0.029999999999999999;6;64;99;27;0.70999999999999996;0.17999999999999999;0.059999999999999998;0.050000000000000003;0;1.6499407625119602;54;28;22;2;
2019_03_04 09:21;18;3;1;timed;52;119;1;60;58;11;18;0.25;0.72999999999999998;0.01;0.01;96;23;42;85;0.44;0.48999999999999999;0.059999999999999998;0.010000000000000101;1;4.76658184619555;54;28;22;2;
2019_03_04 09:21;18;3;1;timed;53;38;0;40;70;0;0;0.53000000000000003;0.46999999999999997;0.0;0.0;97;90;6;96;0.56999999999999995;0.070000000000000007;0.27000000000000002;0.089999999999999997;0;2.0165711019840273;54;28;22;2;
2019_03_04 09:21;18;3;1;timed;54;56;0;28;84;37;41;0.68000000000000005;0.28000000000000003;0.02;0.0199999999999999;6;95;0;0;0.72999999999999998;0.27000000000000002;0.0;0.0;0;3.2165741167777924;54;28;22;2;
2019_03_04 09:21;18;3;1;timed;55;133;0;59;88;60;36;0.67000000000000004;0.070000000000000007;0.12;0.14000000000000001;7;91;66;61;0.25;0.68999999999999995;0.01;0.0500000000000001;0;1.9666769084124098;54;28;22;2;
2019_03_04 09:21;18;3;1;timed;56;12;1;53;68;0;0;0.31;0.68999999999999995;0.0;0.0;69;54;97;29;0.25;0.20999999999999999;0.20000000000000001;0.34000000000000002;1;2.1998756878701897;54;28;22;2;
2019_03_04 09:21;18;3;1;timed;57;63;0;56;78;42;36;0.93000000000000005;0.040000000000000001;0.01;0.0199999999999999;2;72;0;0;0.32000000000000001;0.68000000000000005;0.0;0.0;0;2.2331891577755414;54;28;22;2;
2019_03_04 09:21;18;3;1;timed;58;115;0;50;28;61;79;0.83999999999999997;0.040000000000000001;0.059999999999999998;0.059999999999999998;1;26;97;55;0.45000000000000001;0.080000000000000002;0.40999999999999998;0.060000000000000102;0;1.9500663575327053;54;28;22;2;
2019_03_04 09:21;18;3;1;timed;59;143;1;88;44;56;73;0.95999999999999996;0.02;0.01;0.01;20;3;87;32;0.19;0.40000000000000002;0.28000000000000003;0.13;0;2.1331890936312448;54;28;22;2;
2019_03_04 09:21;18;3;1;timed;60;82;0;78;66;30;27;0.28999999999999998;0.58999999999999997;0.080000000000000002;0.040000000000000001;90;6;0;0;0.82999999999999996;0.17000000000000001;0.0;0.0;0;2.4999166120901464;54;28;22;2;
2019_03_04 09:21;18;3;1;timed;61;29;0;44;51;0;0;0.78000000000000003;0.22;0.0;0.0;74;1;68;82;0.69999999999999996;0.28000000000000003;0.01;0.01;1;4.233471393777563;54;28;22;2;
2019_03_04 09:21;18;3;1;timed;62;97;0;17;33;32;74;0.94999999999999996;0.01;0.029999999999999999;0.01;76;23;0;0;0.33000000000000002;0.67000000000000004;0.0;0.0;1;4.100032136417667;54;28;22;2;
2019_03_04 09:21;18;3;1;timed;63;9;1;61;69;0;0;0.93999999999999995;0.060000000000000102;0.0;0.0;18;93;72;16;0.40999999999999998;0.34999999999999998;0.089999999999999997;0.14999999999999999;0;3.0499217757264887;54;28;22;2;
2019_03_04 09:21;18;3;1;timed;64;36;0;70;17;0;0;0.33000000000000002;0.67000000000000004;0.0;0.0;84;1;12;88;0.22;0.27000000000000002;0.14000000000000001;0.37;0;3.3832399281836842;54;28;22;2;
2019_03_04 09:21;18;3;1;timed;65;99;0;8;24;15;73;0.56000000000000005;0.35999999999999999;0.070000000000000007;0.0099999999999999499;88;12;0;0;0.52000000000000002;0.47999999999999998;0.0;0.0;1;2.700075177407598;54;28;22;2;
2019_03_04 09:21;18;3;1;timed;66;148;0;37;63;55;10;0.72999999999999998;0.070000000000000007;0.029999999999999999;0.17000000000000001;80;14;23;70;0.46999999999999997;0.10000000000000001;0.23000000000000001;0.20000000000000001;0;4.549958338117449;54;28;22;2;
2019_03_04 09:21;18;3;1;timed;67;30;0;33;30;0;0;0.71999999999999997;0.28000000000000003;0.0;0.0;9;88;1;14;0.55000000000000004;0.39000000000000001;0.01;0.049999999999999899;0;3.350175980561744;54;28;22;2;
2019_03_04 09:21;18;3;1;timed;68;130;1;37;79;23;95;0.94999999999999996;0.029999999999999999;0.01;0.01;94;4;58;49;0.46000000000000002;0.5;0.029999999999999999;0.01;0;2.666703977411089;54;28;22;2;
2019_03_04 09:21;18;3;1;timed;69;95;0;93;88;68;85;0.83999999999999997;0.14000000000000001;0.01;0.01;2;82;0;0;0.41999999999999998;0.57999999999999996;0.0;0.0;0;1.4999467600268872;54;28;22;2;
2019_03_04 09:21;18;3;1;timed;70;52;0;71;51;10;54;0.22;0.12;0.19;0.46999999999999997;91;1;0;0;0.29999999999999999;0.69999999999999996;0.0;0.0;0;2.150076748949232;54;28;22;2;
2019_03_04 09:21;18;3;1;timed;71;134;1;57;48;50;55;0.02;0.62;0.17999999999999999;0.17999999999999999;80;96;15;18;0.23999999999999999;0.35999999999999999;0.33000000000000002;0.070000000000000007;0;2.1667408605248966;54;28;22;2;
2019_03_04 09:21;18;3;1;timed;72;88;0;77;13;12;7;0.12;0.19;0.66000000000000003;0.029999999999999898;94;2;0;0;0.40999999999999998;0.58999999999999997;0.0;0.0;0;3.033173955518123;54;28;22;2;
2019_03_04 09:21;18;3;1;timed;73;65;0;75;64;59;52;0.59999999999999998;0.22;0.14000000000000001;0.040000000000000001;1;99;0;0;0.35999999999999999;0.64000000000000001;0.0;0.0;0;2.4332033978648724;54;28;22;2;
2019_03_04 09:21;18;3;1;timed;74;129;0;12;29;81;36;0.17999999999999999;0.79000000000000004;0.01;0.02;5;19;95;92;0.47999999999999998;0.26000000000000001;0.13;0.13;0;2.6332304668635516;54;28;22;2;
2019_03_04 09:21;18;3;1;timed;75;100;1;27;14;59;52;0.02;0.95999999999999996;0.01;0.01;17;98;0;0;0.48999999999999999;0.51000000000000001;0.0;0.0;1;3.6165750148011284;54;28;22;2;
2019_03_04 09:21;18;4;1;control;1;103;0;38;49;89;50;0.89000000000000001;0.070000000000000007;0.01;0.029999999999999999;6;64;99;27;0.70999999999999996;0.17999999999999999;0.059999999999999998;0.050000000000000003;0;4.823811610034227;54;28;22;2;
2019_03_04 09:21;18;4;1;control;2;130;1;37;79;23;95;0.94999999999999996;0.029999999999999999;0.01;0.01;94;4;58;49;0.46000000000000002;0.5;0.029999999999999999;0.01;0;3.883323316093538;54;28;22;2;
2019_03_04 09:21;18;4;1;control;3;63;0;56;78;42;36;0.93000000000000005;0.040000000000000001;0.01;0.0199999999999999;2;72;0;0;0.32000000000000001;0.68000000000000005;0.0;0.0;0;7.849821261223042;54;28;22;2;
2019_03_04 09:21;18;4;1;control;4;46;1;5;19;0;0;0.32000000000000001;0.68000000000000005;0.0;0.0;88;38;97;66;0.60999999999999999;0.20000000000000001;0.040000000000000001;0.14999999999999999;1;7.899703267331006;54;28;22;2;
2019_03_04 09:21;18;4;1;control;5;11;1;17;36;0;0;0.14000000000000001;0.85999999999999999;0.0;0.0;19;41;34;95;0.88;0.02;0.050000000000000003;0.050000000000000003;0;6.249839478274225;54;28;22;2;
2019_03_04 09:21;18;4;1;control;6;76;1;39;62;9;28;0.01;0.51000000000000001;0.26000000000000001;0.22;77;7;0;0;0.57999999999999996;0.41999999999999998;0.0;0.0;0;10.233176970311888;54;28;22;2;
2019_03_04 09:21;18;4;1;control;7;25;1;50;53;0;0;0.82999999999999996;0.17000000000000001;0.0;0.0;83;16;97;4;0.45000000000000001;0.29999999999999999;0.11;0.14000000000000001;0;4.3999871069459005;54;28;22;2;
2019_03_04 09:21;18;4;1;control;8;85;1;31;22;82;50;0.11;0.69999999999999996;0.01;0.17999999999999999;3;99;0;0;0.62;0.38;0.0;0.0;0;2.783218375616343;54;28;22;2;
2019_03_04 09:21;18;4;1;control;9;136;1;29;67;14;75;0.46000000000000002;0.29999999999999999;0.20999999999999999;0.0300000000000001;70;86;1;85;0.31;0.39000000000000001;0.27000000000000002;0.029999999999999898;0;2.333218086966099;54;28;22;2;
2019_03_04 09:21;18;4;1;control;10;117;0;65;85;92;41;0.23000000000000001;0.17999999999999999;0.54000000000000004;0.050000000000000003;99;93;10;13;0.64000000000000001;0.16;0.01;0.19;0;2.616468855578205;54;28;22;2;
2019_03_04 09:21;18;4;1;control;11;143;0;88;44;56;73;0.95999999999999996;0.02;0.01;0.01;20;3;87;32;0.19;0.40000000000000002;0.28000000000000003;0.13;0;1.816605932472612;54;28;22;2;
2019_03_04 09:21;18;4;1;control;12;5;1;70;5;0;0;0.98999999999999999;0.01;0.0;0.0;92;87;47;1;0.44;0.02;0.16;0.38;0;4.466587106048337;54;28;22;2;
2019_03_04 09:21;18;4;1;control;13;38;1;40;70;0;0;0.53000000000000003;0.46999999999999997;0.0;0.0;97;90;6;96;0.56999999999999995;0.070000000000000007;0.27000000000000002;0.089999999999999997;0;5.916452691152699;54;28;22;2;
2019_03_04 09:21;18;4;1;control;14;133;0;59;88;60;36;0.67000000000000004;0.070000000000000007;0.12;0.14000000000000001;7;91;66;61;0.25;0.68999999999999995;0.01;0.0500000000000001;0;2.166741181247289;54;28;22;2;
2019_03_04 09:21;18;4;1;control;15;135;1;48;60;41;51;0.14000000000000001;0.40000000000000002;0.089999999999999997;0.37;94;1;85;65;0.64000000000000001;0.29999999999999999;0.01;0.050000000000000003;0;6.266515456590696;54;28;22;2;
2019_03_04 09:21;18;4;1;control;16;107;0;52;48;13;63;0.68000000000000005;0.19;0.050000000000000003;0.079999999999999905;54;91;33;3;0.19;0.17999999999999999;0.33000000000000002;0.29999999999999999;0;2.433083768286906;54;28;22;2;
2019_03_04 09:21;18;4;1;control;17;37;0;14;98;0;0;0.93000000000000005;0.070000000000000007;0.0;0.0;41;2;87;66;0.17999999999999999;0.48999999999999999;0.32000000000000001;0.010000000000000101;0;1.733290185435635;54;28;22;2;
2019_03_04 09:21;18;4;1;control;18;72;1;63;82;51;61;0.01;0.96999999999999997;0.01;0.01;92;12;0;0;0.89000000000000001;0.11;0.0;0.0;0;4.733214815594238;54;28;22;2;
2019_03_04 09:21;18;4;1;control;19;80;1;47;39;45;10;0.13;0.76000000000000001;0.059999999999999998;0.050000000000000003;2;87;0;0;0.48999999999999999;0.51000000000000001;0.0;0.0;0;2.4000907003878638;54;28;22;2;
2019_03_04 09:21;18;4;1;control;20;93;0;87;81;73;98;0.80000000000000004;0.040000000000000001;0.14999999999999999;0.0099999999999999499;5;71;0;0;0.51000000000000001;0.48999999999999999;0.0;0.0;0;1.9998867848767077;54;28;22;2;
2019_03_04 09:21;18;4;1;control;21;112;0;70;44;98;64;0.02;0.75;0.12;0.11;33;2;63;85;0.23999999999999999;0.31;0.080000000000000002;0.37;0;2.300050545902195;54;28;22;2;
2019_03_04 09:21;18;4;1;control;22;19;1;22;53;0;0;0.13;0.87;0.0;0.0;4;93;96;65;0.46999999999999997;0.059999999999999998;0.26000000000000001;0.20999999999999999;1;3.583359365328306;54;28;22;2;
2019_03_04 09:21;18;4;1;control;23;4;1;40;43;0;0;0.58999999999999997;0.40999999999999998;0.0;0.0;2;33;88;81;0.69999999999999996;0.14000000000000001;0.13;0.029999999999999999;0;8.36670442642253;54;28;22;2;
2019_03_04 09:21;18;4;1;control;24;27;1;44;26;0;0;0.35999999999999999;0.64000000000000001;0.0;0.0;63;10;3;5;0.58999999999999997;0.19;0.14999999999999999;0.070000000000000007;0;2.33335663918524;54;28;22;2;
2019_03_04 09:21;18;4;1;control;25;61;1;43;18;39;70;0.75;0.089999999999999997;0.089999999999999997;0.070000000000000007;16;66;0;0;0.64000000000000001;0.35999999999999999;0.0;0.0;0;2.8668160379324945;54;28;22;2;
2019_03_04 09:21;18;4;1;control;26;28;0;47;30;0;0;0.97999999999999998;0.02;0.0;0.0;55;48;77;13;0.070000000000000007;0.26000000000000001;0.42999999999999999;0.23999999999999999;1;6.533216932364212;54;28;22;2;
2019_03_04 09:21;18;4;1;control;27;146;0;25;5;64;35;0.94999999999999996;0.02;0.01;0.02;47;97;12;79;0.20999999999999999;0.029999999999999999;0.02;0.73999999999999999;1;5.549869818643856;54;28;22;2;
2019_03_04 09:21;18;4;1;control;28;20;1;44;40;0;0;0.91000000000000003;0.089999999999999997;0.0;0.0;29;5;80;99;0.25;0.40000000000000002;0.26000000000000001;0.089999999999999997;0;4.799860036600876;54;28;22;2;
2019_03_04 09:21;18;4;1;control;29;102;0;40;56;53;17;0.28000000000000003;0.26000000000000001;0.14999999999999999;0.31;1;76;29;62;0.68000000000000005;0.23000000000000001;0.050000000000000003;0.039999999999999897;0;3.149889126152175;54;28;22;2;
2019_03_04 09:21;18;4;1;control;30;106;0;85;69;22;61;0.10000000000000001;0.58999999999999997;0.17999999999999999;0.13;20;79;91;84;0.55000000000000004;0.14999999999999999;0.26000000000000001;0.039999999999999897;0;5.9667173194761745;54;28;22;2;
2019_03_04 09:21;18;4;1;control;31;113;1;85;65;39;64;0.44;0.34000000000000002;0.13;0.089999999999999997;87;2;4;35;0.67000000000000004;0.17000000000000001;0.11;0.049999999999999899;0;2.1666241174511924;54;28;22;2;
2019_03_04 09:21;18;4;1;control;32;64;1;48;39;34;19;0.46000000000000002;0.5;0.02;0.02;13;92;0;0;0.68999999999999995;0.31;0.0;0.0;0;2.9498845077450824;54;28;22;2;
2019_03_04 09:21;18;4;1;control;33;88;1;77;13;12;7;0.12;0.19;0.66000000000000003;0.029999999999999898;94;2;0;0;0.40999999999999998;0.58999999999999997;0.0;0.0;1;2.2332391905215445;54;28;22;2;
2019_03_04 09:21;18;4;1;control;34;15;1;77;81;0;0;0.28000000000000003;0.71999999999999997;0.0;0.0;98;14;87;18;0.55000000000000004;0.23000000000000001;0.16;0.059999999999999901;0;7.899812313058646;54;28;22;2;
2019_03_04 09:21;18;4;1;control;35;67;0;44;42;8;89;0.88;0.070000000000000007;0.029999999999999999;0.02;10;63;0;0;0.39000000000000001;0.60999999999999999;0.0;0.0;0;12.066408206909728;54;28;22;2;
2019_03_04 09:21;18;4;1;control;36;79;0;52;46;29;22;0.17999999999999999;0.51000000000000001;0.23999999999999999;0.070000000000000104;93;14;0;0;0.45000000000000001;0.55000000000000004;0.0;0.0;0;3.5332243089869735;54;28;22;2;
2019_03_04 09:21;18;4;1;control;37;55;1;74;55;47;48;0.60999999999999999;0.31;0.070000000000000007;0.01;97;6;0;0;0.42999999999999999;0.56999999999999995;0.0;0.0;0;2.7000408600761148;54;28;22;2;
2019_03_04 09:21;18;4;1;control;38;78;1;74;36;34;3;0.14999999999999999;0.64000000000000001;0.13;0.080000000000000002;1;83;0;0;0.41999999999999998;0.57999999999999996;0.0;0.0;0;4.983191563196215;54;28;22;2;
2019_03_04 09:21;18;4;1;control;39;97;1;17;33;32;74;0.94999999999999996;0.01;0.029999999999999999;0.01;76;23;0;0;0.33000000000000002;0.67000000000000004;0.0;0.0;0;5.566517894083518;54;28;22;2;
2019_03_04 09:21;18;4;1;control;40;48;0;13;32;0;0;0.90000000000000002;0.10000000000000001;0.0;0.0;24;99;84;94;0.62;0.14999999999999999;0.20000000000000001;0.029999999999999999;1;3.6831570534304774;54;28;22;2;
2019_03_04 09:21;18;4;1;control;41;42;1;70;48;0;0;0.79000000000000004;0.20999999999999999;0.0;0.0;51;8;12;67;0.19;0.26000000000000001;0.28999999999999998;0.26000000000000001;0;2.9999271959404723;54;28;22;2;
2019_03_04 09:21;18;4;1;control;42;92;0;90;86;65;94;0.16;0.34000000000000002;0.28000000000000003;0.22;79;22;0;0;0.35999999999999999;0.64000000000000001;0.0;0.0;0;3.650138006990801;54;28;22;2;
2019_03_04 09:21;18;4;1;control;43;95;1;93;88;68;85;0.83999999999999997;0.14000000000000001;0.01;0.01;2;82;0;0;0.41999999999999998;0.57999999999999996;0.0;0.0;0;2.1999940345572213;54;28;22;2;
2019_03_04 09:21;18;4;1;control;44;35;0;33;37;0;0;0.88;0.12;0.0;0.0;63;4;79;98;0.16;0.46000000000000002;0.17000000000000001;0.20999999999999999;0;11.21647982429522;54;28;22;2;
2019_03_04 09:21;18;4;1;control;45;75;1;67;80;36;81;0.81999999999999995;0.080000000000000002;0.059999999999999998;0.040000000000000001;3;97;0;0;0.32000000000000001;0.68000000000000005;0.0;0.0;0;1.4168167114503376;54;28;22;2;
2019_03_04 09:21;18;4;1;control;46;8;1;50;36;0;0;0.080000000000000002;0.92000000000000004;0.0;0.0;6;19;84;29;0.54000000000000004;0.070000000000000007;0.17000000000000001;0.22;0;2.4165931677075605;54;28;22;2;
2019_03_04 09:21;18;4;1;control;47;141;1;93;28;60;91;0.81999999999999995;0.10000000000000001;0.01;0.070000000000000007;14;85;7;89;0.45000000000000001;0.070000000000000007;0.23999999999999999;0.23999999999999999;0;2.116587202264782;54;28;22;2;
2019_03_04 09:21;18;4;1;control;48;90;1;27;44;50;72;0.68000000000000005;0.28999999999999998;0.02;0.0099999999999999707;6;96;0;0;0.46999999999999997;0.53000000000000003;0.0;0.0;0;1.5166099094344645;54;28;22;2;
2019_03_04 09:21;18;4;1;control;49;134;0;57;48;50;55;0.02;0.62;0.17999999999999999;0.17999999999999999;80;96;15;18;0.23999999999999999;0.35999999999999999;0.33000000000000002;0.070000000000000007;0;5.533318601469546;54;28;22;2;
2019_03_04 09:21;18;4;1;control;50;110;1;47;44;23;52;0.13;0.27000000000000002;0.040000000000000001;0.56000000000000005;99;2;30;22;0.28999999999999998;0.5;0.11;0.10000000000000001;0;3.099863436261785;54;28;22;2;
2019_03_04 09:21;18;4;1;control;51;43;1;60;83;0;0;0.23000000000000001;0.77000000000000002;0.0;0.0;72;5;70;12;0.29999999999999999;0.40999999999999998;0.12;0.17000000000000001;0;2.449868150885777;54;28;22;2;
2019_03_04 09:21;18;4;1;control;52;99;0;8;24;15;73;0.56000000000000005;0.35999999999999999;0.070000000000000007;0.0099999999999999499;88;12;0;0;0.52000000000000002;0.47999999999999998;0.0;0.0;1;3.4334388083484555;54;28;22;2;
2019_03_04 09:21;18;4;1;control;53;121;1;42;51;47;70;0.41999999999999998;0.17000000000000001;0.23999999999999999;0.17000000000000001;21;76;48;9;0.14999999999999999;0.34000000000000002;0.40999999999999998;0.10000000000000001;0;5.116761033984403;54;28;22;2;
2019_03_04 09:21;18;4;1;control;54;22;0;32;55;0;0;0.39000000000000001;0.60999999999999999;0.0;0.0;93;72;59;22;0.20000000000000001;0.11;0.14000000000000001;0.55000000000000004;0;10.69981378838338;54;28;22;2;
2019_03_04 09:21;18;4;1;control;55;149;1;14;89;73;53;0.93999999999999995;0.01;0.01;0.040000000000000001;97;45;6;13;0.34000000000000002;0.01;0.40999999999999998;0.23999999999999999;0;4.266739321055411;54;28;22;2;
2019_03_04 09:21;18;4;1;control;56;124;1;37;65;15;41;0.17999999999999999;0.45000000000000001;0.02;0.34999999999999998;40;7;98;30;0.070000000000000007;0.45000000000000001;0.45000000000000001;0.029999999999999898;0;5.8666454134404376;54;28;22;2;
2019_03_04 09:21;18;4;1;control;57;108;1;48;72;39;70;0.14000000000000001;0.66000000000000003;0.02;0.17999999999999999;81;44;98;8;0.59999999999999998;0.029999999999999999;0.050000000000000003;0.32000000000000001;0;2.266698589268799;54;28;22;2;
2019_03_04 09:21;18;4;1;control;58;84;0;43;10;5;45;0.78000000000000003;0.13;0.059999999999999998;0.029999999999999999;87;1;0;0;0.57999999999999996;0.41999999999999998;0.0;0.0;0;7.999948363640215;54;28;22;2;
2019_03_04 09:21;18;4;1;control;59;129;0;12;29;81;36;0.17999999999999999;0.79000000000000004;0.01;0.02;5;19;95;92;0.47999999999999998;0.26000000000000001;0.13;0.13;0;2.6998907618381054;54;28;22;2;
2019_03_04 09:21;18;4;1;control;60;87;0;10;30;63;4;0.56999999999999995;0.12;0.16;0.14999999999999999;86;2;0;0;0.42999999999999999;0.56999999999999995;0.0;0.0;0;2.8334769102084465;54;28;22;2;
2019_03_04 09:21;18;4;1;control;61;49;1;21;30;0;0;0.53000000000000003;0.46999999999999997;0.0;0.0;93;99;89;25;0.44;0.02;0.11;0.42999999999999999;1;7.233219305712282;54;28;22;2;
2019_03_04 09:21;18;4;1;control;62;65;1;75;64;59;52;0.59999999999999998;0.22;0.14000000000000001;0.040000000000000001;1;99;0;0;0.35999999999999999;0.64000000000000001;0.0;0.0;0;4.099815327852411;54;28;22;2;
2019_03_04 09:21;18;4;1;control;63;126;1;16;55;51;42;0.68999999999999995;0.23999999999999999;0.01;0.060000000000000102;66;4;1;5;0.46999999999999997;0.38;0.089999999999999997;0.059999999999999998;0;5.116744677125553;54;28;22;2;
2019_03_04 09:21;18;4;1;control;64;148;1;37;63;55;10;0.72999999999999998;0.070000000000000007;0.029999999999999999;0.17000000000000001;80;14;23;70;0.46999999999999997;0.10000000000000001;0.23000000000000001;0.20000000000000001;1;5.500145928841903;54;28;22;2;
2019_03_04 09:21;18;4;1;control;65;33;0;27;70;0;0;0.88;0.12;0.0;0.0;93;3;77;16;0.080000000000000002;0.40000000000000002;0.5;0.02;1;3.5999359195984653;54;28;22;2;
2019_03_04 09:21;18;4;1;control;66;116;0;53;65;43;99;0.56999999999999995;0.37;0.050000000000000003;0.010000000000000101;57;72;11;87;0.67000000000000004;0.13;0.14999999999999999;0.050000000000000003;0;4.533374086501681;54;28;22;2;
2019_03_04 09:21;18;4;1;control;67;10;1;45;62;0;0;0.059999999999999998;0.93999999999999995;0.0;0.0;17;99;28;67;0.58999999999999997;0.34000000000000002;0.01;0.059999999999999998;0;3.116556412882801;54;28;22;2;
2019_03_04 09:21;18;4;1;control;68;119;0;60;58;11;18;0.25;0.72999999999999998;0.01;0.01;96;23;42;85;0.44;0.48999999999999999;0.059999999999999998;0.010000000000000101;1;5.799892750319486;54;28;22;2;
2019_03_04 09:21;18;4;1;control;69;91;0;74;81;86;48;0.93000000000000005;0.02;0.01;0.039999999999999897;7;64;0;0;0.13;0.87;0.0;0.0;0;4.583208304922664;54;28;22;2;
2019_03_04 09:21;18;4;1;control;70;138;1;8;20;43;51;0.38;0.5;0.02;0.10000000000000001;72;82;70;1;0.39000000000000001;0.050000000000000003;0.070000000000000007;0.48999999999999999;0;2.350042559906342;54;28;22;2;
2019_03_04 09:21;18;4;1;control;71;128;1;70;49;27;54;0.27000000000000002;0.53000000000000003;0.02;0.17999999999999999;72;97;6;20;0.29999999999999999;0.39000000000000001;0.22;0.0899999999999999;0;6.916454936211721;54;28;22;2;
2019_03_04 09:21;18;4;1;control;72;69;1;54;34;64;49;0.34000000000000002;0.25;0.20999999999999999;0.20000000000000001;14;98;0;0;0.62;0.38;0.0;0.0;0;2.9166864980220453;54;28;22;2;
2019_03_04 09:21;18;4;1;control;73;62;1;12;45;16;50;0.20999999999999999;0.76000000000000001;0.02;0.01;92;15;0;0;0.20999999999999999;0.79000000000000004;0.0;0.0;0;5.900003784528508;54;28;22;2;
2019_03_04 09:21;18;4;1;control;74;21;0;64;28;0;0;0.080000000000000002;0.92000000000000004;0.0;0.0;50;1;88;13;0.57999999999999996;0.13;0.02;0.27000000000000002;0;13.749917413897492;54;28;22;2;
2019_03_04 09:21;18;4;1;control;75;74;0;66;47;52;44;0.41999999999999998;0.26000000000000001;0.17999999999999999;0.14000000000000001;17;99;0;0;0.47999999999999998;0.52000000000000002;0.0;0.0;0;7.11667315595696;54;28;22;2;
