date;id;block;order;cond;trial;gameid;leftright;oa1;oa2;oa3;oa4;pa1;pa2;pa3;pa4;ob1;ob2;ob3;ob4;pb1;pb2;pb3;pb4;choice;rt;paytrial;payout;alter;geschlecht;comment
2019_04_04 13:48;61;0;0;practice;1;28;1;37;83;75;8;0.83999999999999997;0.070000000000000007;0.01;0.080000000000000002;94;2;0;0;0.19;0.81000000000000005;0.0;0.0;0;10.087436077376879;41;68;22;1;
2019_04_04 13:48;61;0;0;practice;2;27;0;68;43;98;36;0.54000000000000004;0.44;0.01;0.0099999999999999603;97;13;0;0;0.27000000000000002;0.72999999999999998;0.0;0.0;0;13.17919727554272;41;68;22;1;
2019_04_04 13:48;61;0;0;practice;3;37;1;50;66;99;12;0.26000000000000001;0.71999999999999997;0.01;0.01;22;90;0;0;0.37;0.63;0.0;0.0;1;8.715908041228658;41;68;22;1;
2019_04_04 13:48;61;0;0;practice;4;57;1;39;68;59;91;0.73999999999999999;0.040000000000000001;0.14999999999999999;0.070000000000000007;9;22;40;84;0.29999999999999999;0.32000000000000001;0.040000000000000001;0.34000000000000002;1;9.876897151610365;41;68;22;1;
2019_04_04 13:48;61;0;0;practice;5;35;1;84;95;4;35;0.89000000000000001;0.050000000000000003;0.01;0.050000000000000003;5;98;0;0;0.19;0.81000000000000005;0.0;0.0;1;9.266516605128118;41;68;22;1;
2019_04_04 13:48;61;0;0;practice;6;1;1;67;36;0;0;0.14999999999999999;0.84999999999999998;0.0;0.0;1;4;81;77;0.25;0.54000000000000004;0.14000000000000001;0.070000000000000007;0;9.996845885217681;41;68;22;1;
2019_04_04 13:48;61;0;0;practice;7;49;0;14;31;42;22;0.77000000000000002;0.089999999999999997;0.02;0.12;87;28;0;0;0.68000000000000005;0.32000000000000001;0.0;0.0;1;4.273036520248752;41;68;22;1;
2019_04_04 13:48;61;0;0;practice;8;4;1;40;59;0;0;0.19;0.81000000000000005;0.0;0.0;10;88;13;45;0.56000000000000005;0.28999999999999998;0.01;0.14000000000000001;0;3.912752835944957;41;68;22;1;
2019_04_04 13:48;61;0;0;practice;9;50;0;17;12;21;14;0.55000000000000004;0.34000000000000002;0.059999999999999998;0.049999999999999899;13;93;0;0;0.28999999999999998;0.70999999999999996;0.0;0.0;1;4.272884491531158;41;68;22;1;
2019_04_04 13:48;61;0;0;practice;10;65;1;35;15;77;1;0.62;0.33000000000000002;0.029999999999999999;0.02;68;3;25;96;0.38;0.28000000000000003;0.28000000000000003;0.059999999999999901;0;6.404584660110004;41;68;22;1;
2019_04_04 13:48;61;0;0;practice;11;45;1;37;40;75;23;0.54000000000000004;0.38;0.059999999999999998;0.02;1;90;0;0;0.28000000000000003;0.71999999999999997;0.0;0.0;1;2.3516735346868245;41;68;22;1;
2019_04_04 13:48;61;0;0;practice;12;31;0;72;59;40;92;0.59999999999999998;0.34999999999999998;0.02;0.029999999999999999;97;29;0;0;0.38;0.62;0.0;0.0;0;7.80541190160352;41;68;22;1;
2019_04_04 13:48;61;0;0;practice;13;7;0;13;31;0;0;0.51000000000000001;0.48999999999999999;0.0;0.0;8;79;42;18;0.85999999999999999;0.089999999999999997;0.02;0.029999999999999999;0;6.104173990131585;41;68;22;1;
2019_04_04 13:48;61;0;0;practice;14;55;0;53;11;80;74;0.31;0.37;0.28000000000000003;0.039999999999999897;6;93;98;96;0.69999999999999996;0.22;0.050000000000000003;0.029999999999999999;0;8.365728814124623;41;68;22;1;
2019_04_04 13:48;61;0;0;practice;15;24;1;19;38;0;0;0.89000000000000001;0.11;0.0;0.0;45;76;95;57;0.29999999999999999;0.22;0.40000000000000002;0.080000000000000002;1;5.073439171834934;41;68;22;1;
2019_04_04 13:48;61;0;0;practice;16;39;0;53;65;48;75;0.92000000000000004;0.029999999999999999;0.01;0.040000000000000001;16;83;0;0;0.31;0.68999999999999995;0.0;0.0;0;6.114374026567248;41;68;22;1;
2019_04_04 13:48;61;0;0;practice;17;15;1;24;59;0;0;0.56999999999999995;0.42999999999999999;0.0;0.0;9;8;80;22;0.31;0.10000000000000001;0.55000000000000004;0.039999999999999897;1;4.513094996779955;41;68;22;1;
2019_04_04 13:48;61;0;0;practice;18;51;1;38;13;51;84;0.91000000000000003;0.070000000000000007;0.01;0.0099999999999999603;4;89;35;16;0.80000000000000004;0.089999999999999997;0.059999999999999998;0.050000000000000003;0;6.12415293704089;41;68;22;1;
2019_04_04 13:48;61;0;0;practice;19;13;1;15;25;0;0;0.29999999999999999;0.69999999999999996;0.0;0.0;3;43;35;73;0.44;0.40000000000000002;0.01;0.14999999999999999;0;5.874149088212562;41;68;22;1;
2019_04_04 13:48;61;0;0;practice;20;23;1;99;93;0;0;0.57999999999999996;0.41999999999999998;0.0;0.0;64;10;80;81;0.13;0.55000000000000004;0.02;0.29999999999999999;0;3.832732488472857;41;68;22;1;
2019_04_04 13:48;61;0;0;practice;21;48;1;20;25;24;35;0.32000000000000001;0.13;0.48999999999999999;0.059999999999999901;44;76;0;0;0.29999999999999999;0.69999999999999996;0.0;0.0;1;2.8319219893824084;41;68;22;1;
2019_04_04 13:48;61;0;0;practice;22;59;0;13;27;48;51;0.56999999999999995;0.13;0.13;0.17000000000000001;8;37;97;1;0.65000000000000002;0.16;0.14999999999999999;0.040000000000000001;1;5.083447729062982;41;68;22;1;
2019_04_04 13:48;61;0;0;practice;23;42;0;23;45;91;22;0.72999999999999998;0.02;0.20000000000000001;0.050000000000000003;2;86;0;0;0.40999999999999998;0.58999999999999997;0.0;0.0;0;5.754047684416719;41;68;22;1;
2019_04_04 13:48;61;0;0;practice;24;52;1;17;61;57;59;0.070000000000000007;0.050000000000000003;0.33000000000000002;0.55000000000000004;12;93;94;62;0.71999999999999997;0.16;0.080000000000000002;0.040000000000000001;1;3.562531592465575;41;68;22;1;
2019_04_04 13:48;61;0;0;practice;25;71;1;94;87;26;75;0.71999999999999997;0.23999999999999999;0.02;0.02;90;27;12;83;0.16;0.73999999999999999;0.02;0.080000000000000002;0;5.003384082272532;41;68;22;1;
2019_04_04 13:48;61;0;0;practice;26;43;0;11;17;21;44;0.16;0.46000000000000002;0.25;0.13;2;66;0;0;0.44;0.56000000000000005;0.0;0.0;0;5.553813034185168;41;68;22;1;
2019_04_04 13:48;61;0;0;practice;27;2;0;41;60;0;0;0.97999999999999998;0.02;0.0;0.0;10;14;97;6;0.54000000000000004;0.17000000000000001;0.12;0.17000000000000001;0;4.312907815430663;41;68;22;1;
2019_04_04 13:48;61;0;0;practice;28;60;1;39;93;27;78;0.85999999999999999;0.02;0.11;0.01;22;5;62;95;0.059999999999999998;0.56999999999999995;0.14000000000000001;0.23000000000000001;0;4.122790451826631;41;68;22;1;
2019_04_04 13:48;61;0;0;practice;29;63;0;24;82;6;96;0.91000000000000003;0.070000000000000007;0.01;0.0099999999999999603;73;10;71;22;0.31;0.51000000000000001;0.050000000000000003;0.13;1;3.252326616700202;41;68;22;1;
2019_04_04 13:48;61;0;0;practice;30;20;0;32;11;0;0;0.40999999999999998;0.58999999999999997;0.0;0.0;1;86;42;65;0.45000000000000001;0.38;0.050000000000000003;0.12;0;2.992211575222882;41;68;22;1;
2019_04_04 13:48;61;0;0;practice;31;16;1;50;42;0;0;0.32000000000000001;0.68000000000000005;0.0;0.0;97;2;56;31;0.35999999999999999;0.16;0.16;0.32000000000000001;1;6.354536742197752;41;68;22;1;
2019_04_04 13:48;61;0;0;practice;32;68;1;39;58;40;8;0.48999999999999999;0.44;0.02;0.050000000000000003;92;83;51;2;0.57999999999999996;0.13;0.02;0.27000000000000002;1;2.9224708066374205;41;68;22;1;
2019_04_04 13:48;61;0;0;practice;33;32;1;21;86;16;78;0.45000000000000001;0.41999999999999998;0.050000000000000003;0.080000000000000099;95;9;0;0;0.42999999999999999;0.56999999999999995;0.0;0.0;0;12.198367006304352;41;68;22;1;
2019_04_04 13:48;61;0;0;practice;34;18;1;47;36;0;0;0.089999999999999997;0.91000000000000003;0.0;0.0;2;44;81;9;0.20000000000000001;0.25;0.51000000000000001;0.040000000000000001;1;2.671895727544097;41;68;22;1;
2019_04_04 13:48;61;0;0;practice;35;74;0;36;46;10;12;0.11;0.19;0.65000000000000002;0.049999999999999899;92;24;79;19;0.51000000000000001;0.40999999999999998;0.02;0.059999999999999998;1;3.2423170972649586;41;68;22;1;
2019_04_04 13:48;61;0;0;practice;36;22;0;84;87;0;0;0.17000000000000001;0.82999999999999996;0.0;0.0;3;24;41;83;0.68000000000000005;0.11;0.10000000000000001;0.11;0;5.42385317746448;41;68;22;1;
2019_04_04 13:48;61;0;0;practice;37;38;1;51;89;10;60;0.57999999999999996;0.029999999999999999;0.080000000000000002;0.31;8;84;0;0;0.33000000000000002;0.67000000000000004;0.0;0.0;1;7.555172312042487;41;68;22;1;
2019_04_04 13:48;61;0;0;practice;38;61;1;51;48;56;88;0.91000000000000003;0.02;0.01;0.059999999999999998;78;21;14;82;0.55000000000000004;0.29999999999999999;0.070000000000000007;0.080000000000000002;0;4.933367480993184;41;68;22;1;
2019_04_04 13:48;61;0;0;practice;39;19;1;25;73;0;0;0.69999999999999996;0.29999999999999999;0.0;0.0;87;84;1;86;0.040000000000000001;0.59999999999999998;0.28000000000000003;0.080000000000000002;0;2.6317466752539076;41;68;22;1;
2019_04_04 13:48;61;0;0;practice;40;30;1;54;78;85;25;0.20999999999999999;0.60999999999999999;0.089999999999999997;0.090000000000000094;87;20;0;0;0.58999999999999997;0.40999999999999998;0.0;0.0;1;2.4316271691354814;41;68;22;1;
2019_04_04 13:48;61;0;0;practice;41;75;1;21;86;27;62;0.88;0.040000000000000001;0.070000000000000007;0.0099999999999999794;13;3;49;87;0.28999999999999998;0.39000000000000001;0.070000000000000007;0.25;0;5.803963459224406;41;68;22;1;
2019_04_04 13:48;61;0;0;practice;42;66;1;44;18;63;36;0.47999999999999998;0.10000000000000001;0.029999999999999999;0.39000000000000001;13;93;61;53;0.52000000000000002;0.45000000000000001;0.02;0.0099999999999999707;1;3.042186365397356;41;68;22;1;
2019_04_04 13:48;61;0;0;practice;43;12;1;45;86;0;0;0.97999999999999998;0.02;0.0;0.0;6;23;95;81;0.14999999999999999;0.40999999999999998;0.050000000000000003;0.39000000000000001;0;3.6725022387352055;41;68;22;1;
2019_04_04 13:48;61;0;0;practice;44;56;1;47;52;64;10;0.77000000000000002;0.040000000000000001;0.11;0.080000000000000002;1;5;12;99;0.14000000000000001;0.28999999999999998;0.27000000000000002;0.29999999999999999;0;12.768715889759278;41;68;22;1;
2019_04_04 13:48;61;0;0;practice;45;17;0;27;61;0;0;0.68999999999999995;0.31;0.0;0.0;3;91;69;43;0.29999999999999999;0.33000000000000002;0.27000000000000002;0.099999999999999895;1;3.1521198063269367;41;68;22;1;
2019_04_04 13:48;61;0;0;practice;46;33;0;54;82;55;71;0.56000000000000005;0.20999999999999999;0.02;0.20999999999999999;13;99;0;0;0.5;0.5;0.0;0.0;0;5.594031044649;41;68;22;1;
2019_04_04 13:48;61;0;0;practice;47;70;0;21;42;14;63;0.96999999999999997;0.01;0.01;0.01;70;2;6;76;0.23999999999999999;0.42999999999999999;0.01;0.32000000000000001;1;8.456069153180806;41;68;22;1;
2019_04_04 13:48;61;0;0;practice;48;54;0;69;80;22;55;0.27000000000000002;0.31;0.059999999999999998;0.35999999999999999;52;2;49;90;0.059999999999999998;0.33000000000000002;0.20000000000000001;0.40999999999999998;1;5.563907227842947;41;68;22;1;
2019_04_04 13:48;61;0;0;practice;49;46;1;79;57;98;81;0.67000000000000004;0.070000000000000007;0.20999999999999999;0.050000000000000003;1;76;0;0;0.56000000000000005;0.44;0.0;0.0;0;4.943357756287014;41;68;22;1;
2019_04_04 13:48;61;0;0;practice;50;29;0;66;40;92;49;0.46999999999999997;0.10000000000000001;0.34000000000000002;0.089999999999999997;8;94;0;0;0.44;0.56000000000000005;0.0;0.0;1;3.1922967626221634;41;68;22;1;
2019_04_04 13:48;61;0;0;practice;51;26;0;24;46;74;59;0.29999999999999999;0.11;0.25;0.34000000000000002;91;6;0;0;0.28999999999999998;0.70999999999999996;0.0;0.0;0;3.8326840573836307;41;68;22;1;
2019_04_04 13:48;61;0;0;practice;52;11;1;10;44;0;0;0.48999999999999999;0.51000000000000001;0.0;0.0;88;12;54;50;0.17000000000000001;0.75;0.02;0.059999999999999998;0;5.583777766088815;41;68;22;1;
2019_04_04 13:48;61;0;0;practice;53;58;1;44;50;85;42;0.38;0.57999999999999996;0.02;0.02;37;88;19;12;0.20000000000000001;0.29999999999999999;0.46000000000000002;0.040000000000000001;0;10.006865026723744;41;68;22;1;
2019_04_04 13:48;61;0;0;practice;54;67;0;74;31;10;77;0.11;0.070000000000000007;0.77000000000000002;0.050000000000000003;2;23;8;97;0.56999999999999995;0.01;0.059999999999999998;0.35999999999999999;0;3.0821025635762;41;68;22;1;
2019_04_04 13:48;61;0;0;practice;55;41;1;19;54;51;8;0.76000000000000001;0.070000000000000007;0.16;0.0099999999999999794;2;77;0;0;0.54000000000000004;0.46000000000000002;0.0;0.0;1;1.9513328492362234;41;68;22;1;
2019_04_04 13:48;61;0;0;practice;56;36;0;56;89;86;77;0.66000000000000003;0.080000000000000002;0.14999999999999999;0.11;29;91;0;0;0.40999999999999998;0.58999999999999997;0.0;0.0;0;5.714013776239426;41;68;22;1;
2019_04_04 13:48;61;0;0;practice;57;10;1;34;59;0;0;0.16;0.83999999999999997;0.0;0.0;21;61;96;7;0.19;0.01;0.5;0.29999999999999999;0;4.6731921412058455;41;68;22;1;
2019_04_04 13:48;61;0;0;practice;58;14;0;92;56;0;0;0.11;0.89000000000000001;0.0;0.0;97;31;51;4;0.58999999999999997;0.22;0.080000000000000002;0.11;1;6.514576474935211;41;68;22;1;
2019_04_04 13:48;61;0;0;practice;59;47;1;91;99;90;78;0.93000000000000005;0.040000000000000001;0.02;0.0099999999999999499;10;87;0;0;0.23000000000000001;0.77000000000000002;0.0;0.0;0;1.9112415293702725;41;68;22;1;
2019_04_04 13:48;61;0;0;practice;60;62;1;65;52;74;55;0.16;0.12;0.14999999999999999;0.56999999999999995;72;86;2;68;0.12;0.53000000000000003;0.22;0.13;1;5.883996956859619;41;68;22;1;
2019_04_04 13:48;61;0;0;practice;61;3;1;20;70;0;0;0.13;0.87;0.0;0.0;95;19;80;73;0.31;0.57999999999999996;0.029999999999999999;0.080000000000000002;0;3.892630840917718;41;68;22;1;
2019_04_04 13:48;61;0;0;practice;62;72;0;86;85;97;43;0.51000000000000001;0.14999999999999999;0.33000000000000002;0.0099999999999999499;72;29;10;90;0.01;0.11;0.65000000000000002;0.23000000000000001;0;4.603250271342404;41;68;22;1;
2019_04_04 13:48;61;0;0;practice;63;64;0;44;60;96;45;0.53000000000000003;0.10000000000000001;0.029999999999999999;0.34000000000000002;88;20;43;31;0.47999999999999998;0.38;0.050000000000000003;0.089999999999999997;1;5.764059769737514;41;68;22;1;
2019_04_04 13:48;61;0;0;practice;64;21;1;59;69;0;0;0.34000000000000002;0.66000000000000003;0.0;0.0;64;18;5;24;0.14999999999999999;0.040000000000000001;0.51000000000000001;0.29999999999999999;0;2.5518520561724927;41;68;22;1;
2019_04_04 13:48;61;0;0;practice;65;44;1;69;48;22;63;0.39000000000000001;0.40999999999999998;0.19;0.01;1;94;0;0;0.22;0.78000000000000003;0.0;0.0;1;2.0413672064435104;41;68;22;1;
2019_04_04 13:48;61;0;0;practice;66;25;0;7;18;0;0;0.20999999999999999;0.79000000000000004;0.0;0.0;92;45;33;13;0.41999999999999998;0.17999999999999999;0.22;0.17999999999999999;1;1.911360201575917;41;68;22;1;
2019_04_04 13:48;61;0;0;practice;67;73;0;99;88;95;28;0.83999999999999997;0.14000000000000001;0.01;0.01;90;93;10;74;0.080000000000000002;0.46000000000000002;0.34999999999999998;0.11;0;4.803406020593684;41;68;22;1;
2019_04_04 13:48;61;0;0;practice;68;8;0;20;44;0;0;0.26000000000000001;0.73999999999999999;0.0;0.0;99;3;69;24;0.20999999999999999;0.60999999999999999;0.12;0.060000000000000102;0;4.7932829607239;41;68;22;1;
2019_04_04 13:48;61;0;0;practice;69;5;0;23;58;0;0;0.71999999999999997;0.28000000000000003;0.0;0.0;94;12;52;3;0.11;0.84999999999999998;0.029999999999999999;0.01;0;2.671936460976667;41;68;22;1;
2019_04_04 13:48;61;0;0;practice;70;40;1;29;65;30;41;0.70999999999999996;0.01;0.14999999999999999;0.13;2;59;0;0;0.32000000000000001;0.68000000000000005;0.0;0.0;1;5.793999163521221;41;68;22;1;
2019_04_04 13:48;61;0;0;practice;71;9;1;57;44;0;0;0.14999999999999999;0.84999999999999998;0.0;0.0;38;35;64;95;0.34000000000000002;0.45000000000000001;0.089999999999999997;0.12;0;5.83414821581141;41;68;22;1;
2019_04_04 13:48;61;0;0;practice;72;34;1;57;23;66;79;0.56000000000000005;0.23000000000000001;0.13;0.079999999999999905;85;9;0;0;0.56000000000000005;0.44;0.0;0.0;1;4.473181685222244;41;68;22;1;
2019_04_04 13:48;61;0;0;practice;73;53;0;47;24;95;38;0.57999999999999996;0.28000000000000003;0.02;0.12;8;22;93;96;0.54000000000000004;0.34000000000000002;0.10000000000000001;0.0199999999999999;0;7.325425167231515;41;68;22;1;
2019_04_04 13:48;61;0;0;practice;74;6;0;42;59;0;0;0.35999999999999999;0.64000000000000001;0.0;0.0;77;19;6;7;0.44;0.14999999999999999;0.17999999999999999;0.23000000000000001;0;2.83190851848326;41;68;22;1;
2019_04_04 13:48;61;0;0;practice;75;69;0;38;74;27;73;0.22;0.19;0.45000000000000001;0.14000000000000001;1;97;79;84;0.28000000000000003;0.45000000000000001;0.17000000000000001;0.10000000000000001;1;5.603811879536806;41;68;22;1;
2019_04_04 13:48;61;1;0;control;1;65;1;75;64;59;52;0.59999999999999998;0.22;0.14000000000000001;0.040000000000000001;1;99;0;0;0.35999999999999999;0.64000000000000001;0.0;0.0;0;9.200816464774107;41;68;22;1;
2019_04_04 13:48;61;1;0;control;2;28;0;47;30;0;0;0.97999999999999998;0.02;0.0;0.0;55;48;77;13;0.070000000000000007;0.26000000000000001;0.42999999999999999;0.23999999999999999;0;5.553767168981494;41;68;22;1;
2019_04_04 13:48;61;1;0;control;3;135;1;48;60;41;51;0.14000000000000001;0.40000000000000002;0.089999999999999997;0.37;94;1;85;65;0.64000000000000001;0.29999999999999999;0.01;0.050000000000000003;0;11.327771028073357;41;68;22;1;
2019_04_04 13:48;61;1;0;control;4;59;0;56;47;83;90;0.31;0.12;0.54000000000000004;0.029999999999999898;10;98;0;0;0.46999999999999997;0.53000000000000003;0.0;0.0;0;9.27647673126694;41;68;22;1;
2019_04_04 13:48;61;1;0;control;5;24;1;35;27;0;0;0.070000000000000007;0.93000000000000005;0.0;0.0;62;3;81;95;0.35999999999999999;0.55000000000000004;0.01;0.080000000000000002;1;11.197698272389289;41;68;22;1;
2019_04_04 13:48;61;1;0;control;6;8;0;50;36;0;0;0.080000000000000002;0.92000000000000004;0.0;0.0;6;19;84;29;0.54000000000000004;0.070000000000000007;0.17000000000000001;0.22;0;9.156277823821029;41;68;22;1;
2019_04_04 13:48;61;1;0;control;7;112;1;70;44;98;64;0.02;0.75;0.12;0.11;33;2;63;85;0.23999999999999999;0.31;0.080000000000000002;0.37;0;13.609436942080265;41;68;22;1;
2019_04_04 13:48;61;1;0;control;8;1;1;22;51;0;0;0.26000000000000001;0.73999999999999999;0.0;0.0;14;11;92;31;0.29999999999999999;0.40999999999999998;0.14999999999999999;0.14000000000000001;0;15.130412414780494;41;68;22;1;
2019_04_04 13:48;61;1;0;control;9;14;1;36;40;0;0;0.54000000000000004;0.46000000000000002;0.0;0.0;99;70;1;11;0.16;0.089999999999999997;0.080000000000000002;0.67000000000000004;0;7.225118928794018;41;68;22;1;
2019_04_04 13:48;61;1;0;control;10;69;0;54;34;64;49;0.34000000000000002;0.25;0.20999999999999999;0.20000000000000001;14;98;0;0;0.62;0.38;0.0;0.0;0;6.274278729578555;41;68;22;1;
2019_04_04 13:48;61;1;0;control;11;95;0;93;88;68;85;0.83999999999999997;0.14000000000000001;0.01;0.01;2;82;0;0;0.41999999999999998;0.57999999999999996;0.0;0.0;0;9.116401076132433;41;68;22;1;
2019_04_04 13:48;61;1;0;control;12;126;1;16;55;51;42;0.68999999999999995;0.23999999999999999;0.01;0.060000000000000102;66;4;1;5;0.46999999999999997;0.38;0.089999999999999997;0.059999999999999998;0;6.654432631392638;41;68;22;1;
2019_04_04 13:48;61;1;0;control;13;140;0;36;32;26;27;0.39000000000000001;0.14999999999999999;0.19;0.27000000000000002;44;3;99;25;0.29999999999999999;0.34000000000000002;0.34000000000000002;0.0199999999999999;1;7.845398982369716;41;68;22;1;
2019_04_04 13:48;61;1;0;control;14;43;1;60;83;0;0;0.23000000000000001;0.77000000000000002;0.0;0.0;72;5;70;12;0.29999999999999999;0.40999999999999998;0.12;0.17000000000000001;0;3.272340203064232;41;68;22;1;
2019_04_04 13:48;61;1;0;control;15;75;1;67;80;36;81;0.81999999999999995;0.080000000000000002;0.059999999999999998;0.040000000000000001;3;97;0;0;0.32000000000000001;0.68000000000000005;0.0;0.0;1;5.31349444100897;41;68;22;1;
2019_04_04 13:48;61;1;0;control;16;46;0;5;19;0;0;0.32000000000000001;0.68000000000000005;0.0;0.0;88;38;97;66;0.60999999999999999;0.20000000000000001;0.040000000000000001;0.14999999999999999;1;7.6754145188065195;41;68;22;1;
2019_04_04 13:48;61;1;0;control;17;128;0;70;49;27;54;0.27000000000000002;0.53000000000000003;0.02;0.17999999999999999;72;97;6;20;0.29999999999999999;0.39000000000000001;0.22;0.0899999999999999;1;12.178385814245303;41;68;22;1;
2019_04_04 13:48;61;1;0;control;18;88;1;77;13;12;7;0.12;0.19;0.66000000000000003;0.029999999999999898;94;2;0;0;0.40999999999999998;0.58999999999999997;0.0;0.0;1;6.19424619415031;41;68;22;1;
2019_04_04 13:48;61;1;0;control;19;144;0;99;93;90;71;0.65000000000000002;0.32000000000000001;0.01;0.02;97;14;48;73;0.23000000000000001;0.46000000000000002;0.13;0.17999999999999999;0;3.842621732023872;41;68;22;1;
2019_04_04 13:48;61;1;0;control;20;22;0;32;55;0;0;0.39000000000000001;0.60999999999999999;0.0;0.0;93;72;59;22;0.20000000000000001;0.11;0.14000000000000001;0.55000000000000004;1;8.716096313079106;41;68;22;1;
2019_04_04 13:48;61;1;0;control;21;76;1;39;62;9;28;0.01;0.51000000000000001;0.26000000000000001;0.22;77;7;0;0;0.57999999999999996;0.41999999999999998;0.0;0.0;1;4.052879693325394;41;68;22;1;
2019_04_04 13:48;61;1;0;control;22;134;0;57;48;50;55;0.02;0.62;0.17999999999999999;0.17999999999999999;80;96;15;18;0.23999999999999999;0.35999999999999999;0.33000000000000002;0.070000000000000007;0;11.567929574139953;41;68;22;1;
2019_04_04 13:48;61;1;0;control;23;45;1;97;87;0;0;0.71999999999999997;0.28000000000000003;0.0;0.0;96;11;14;4;0.25;0.029999999999999999;0.14000000000000001;0.57999999999999996;0;7.955454302861654;41;68;22;1;
2019_04_04 13:48;61;1;0;control;24;89;0;26;41;13;56;0.059999999999999998;0.40999999999999998;0.050000000000000003;0.47999999999999998;5;97;0;0;0.37;0.63;0.0;0.0;1;3.002175229454224;41;68;22;1;
2019_04_04 13:48;61;1;0;control;25;50;0;15;20;0;0;0.82999999999999996;0.17000000000000001;0.0;0.0;97;18;88;87;0.56999999999999995;0.39000000000000001;0.01;0.029999999999999999;1;4.913392382912434;41;68;22;1;
2019_04_04 13:48;61;1;0;control;26;23;1;54;40;0;0;0.93000000000000005;0.070000000000000007;0.0;0.0;36;23;71;86;0.02;0.41999999999999998;0.19;0.37;0;10.637455449812705;41;68;22;1;
2019_04_04 13:48;61;1;0;control;27;47;0;2;40;0;0;0.45000000000000001;0.55000000000000004;0.0;0.0;93;89;11;56;0.58999999999999997;0.070000000000000007;0.28000000000000003;0.059999999999999998;1;5.453861529421829;41;68;22;1;
2019_04_04 13:48;61;1;0;control;28;119;1;60;58;11;18;0.25;0.72999999999999998;0.01;0.01;96;23;42;85;0.44;0.48999999999999999;0.059999999999999998;0.010000000000000101;1;8.966072578637977;41;68;22;1;
2019_04_04 13:48;61;1;0;control;29;38;0;40;70;0;0;0.53000000000000003;0.46999999999999997;0.0;0.0;97;90;6;96;0.56999999999999995;0.070000000000000007;0.27000000000000002;0.089999999999999997;1;5.823998214143558;41;68;22;1;
2019_04_04 13:48;61;1;0;control;30;150;1;25;21;78;38;0.84999999999999998;0.059999999999999998;0.050000000000000003;0.040000000000000001;31;43;64;95;0.059999999999999998;0.45000000000000001;0.13;0.35999999999999999;1;12.338665778014956;41;68;22;1;
2019_04_04 13:48;61;1;0;control;31;118;0;62;52;65;68;0.40999999999999998;0.44;0.10000000000000001;0.0500000000000001;79;20;14;37;0.56999999999999995;0.23999999999999999;0.14000000000000001;0.050000000000000003;0;4.4530346728111;41;68;22;1;
2019_04_04 13:48;61;1;0;control;32;138;0;8;20;43;51;0.38;0.5;0.02;0.10000000000000001;72;82;70;1;0.39000000000000001;0.050000000000000003;0.070000000000000007;0.48999999999999999;1;10.087048628662387;41;68;22;1;
2019_04_04 13:48;61;1;0;control;33;64;0;48;39;34;19;0.46000000000000002;0.5;0.02;0.02;13;92;0;0;0.68999999999999995;0.31;0.0;0.0;1;3.0322005804032415;41;68;22;1;
2019_04_04 13:48;61;1;0;control;34;133;1;59;88;60;36;0.67000000000000004;0.070000000000000007;0.12;0.14000000000000001;7;91;66;61;0.25;0.68999999999999995;0.01;0.0500000000000001;1;4.162827246625056;41;68;22;1;
2019_04_04 13:48;61;1;0;control;35;80;0;47;39;45;10;0.13;0.76000000000000001;0.059999999999999998;0.050000000000000003;2;87;0;0;0.48999999999999999;0.51000000000000001;0.0;0.0;1;5.473760613143895;41;68;22;1;
2019_04_04 13:48;61;1;0;control;36;124;1;37;65;15;41;0.17999999999999999;0.45000000000000001;0.02;0.34999999999999998;40;7;98;30;0.070000000000000007;0.45000000000000001;0.45000000000000001;0.029999999999999898;1;8.726116737528173;41;68;22;1;
2019_04_04 13:48;61;1;0;control;37;60;1;64;59;57;96;0.83999999999999997;0.13;0.02;0.01;83;6;0;0;0.54000000000000004;0.46000000000000002;0.0;0.0;0;9.916795388590344;41;68;22;1;
2019_04_04 13:48;61;1;0;control;38;87;0;10;30;63;4;0.56999999999999995;0.12;0.16;0.14999999999999999;86;2;0;0;0.42999999999999999;0.56999999999999995;0.0;0.0;1;8.305698639310776;41;68;22;1;
2019_04_04 13:48;61;1;0;control;39;99;1;8;24;15;73;0.56000000000000005;0.35999999999999999;0.070000000000000007;0.0099999999999999499;88;12;0;0;0.52000000000000002;0.47999999999999998;0.0;0.0;1;6.944868421390311;41;68;22;1;
2019_04_04 13:48;61;1;0;control;40;20;1;44;40;0;0;0.91000000000000003;0.089999999999999997;0.0;0.0;29;5;80;99;0.25;0.40000000000000002;0.26000000000000001;0.089999999999999997;0;4.4029941318199235;41;68;22;1;
2019_04_04 13:48;61;1;0;control;41;12;1;53;68;0;0;0.31;0.68999999999999995;0.0;0.0;69;54;97;29;0.25;0.20999999999999999;0.20000000000000001;0.34000000000000002;0;9.516557338560688;41;68;22;1;
2019_04_04 13:48;61;1;0;control;42;105;0;49;74;63;58;0.84999999999999998;0.080000000000000002;0.02;0.050000000000000003;97;5;86;8;0.25;0.52000000000000002;0.070000000000000007;0.16;0;8.525878559204102;41;68;22;1;
2019_04_04 13:48;61;1;0;control;43;2;0;59;32;0;0;0.080000000000000002;0.92000000000000004;0.0;0.0;33;38;85;1;0.28999999999999998;0.050000000000000003;0.070000000000000007;0.58999999999999997;0;9.996867053773258;41;68;22;1;
2019_04_04 13:48;61;1;0;control;44;35;0;33;37;0;0;0.88;0.12;0.0;0.0;63;4;79;98;0.16;0.46000000000000002;0.17000000000000001;0.20999999999999999;1;6.314362993259692;41;68;22;1;
2019_04_04 13:48;61;1;0;control;45;70;1;66;55;69;50;0.22;0.29999999999999999;0.29999999999999999;0.17999999999999999;2;90;0;0;0.34000000000000002;0.66000000000000003;0.0;0.0;1;2.0314879056986683;41;68;22;1;
2019_04_04 13:48;61;1;0;control;46;31;1;10;59;0;0;0.23999999999999999;0.76000000000000001;0.0;0.0;1;79;53;73;0.23000000000000001;0.58999999999999997;0.050000000000000003;0.13;0;7.194971056811482;41;68;22;1;
2019_04_04 13:48;61;1;0;control;47;86;1;56;30;57;88;0.20000000000000001;0.35999999999999999;0.080000000000000002;0.35999999999999999;98;2;0;0;0.77000000000000002;0.23000000000000001;0.0;0.0;1;1.8712416191765442;41;68;22;1;
2019_04_04 13:48;61;1;0;control;48;91;1;74;81;86;48;0.93000000000000005;0.02;0.01;0.039999999999999897;7;64;0;0;0.13;0.87;0.0;0.0;0;4.593124966323103;41;68;22;1;
2019_04_04 13:48;61;1;0;control;49;117;0;65;85;92;41;0.23000000000000001;0.17999999999999999;0.54000000000000004;0.050000000000000003;99;93;10;13;0.64000000000000001;0.16;0.01;0.19;0;2.131439731198043;41;68;22;1;
2019_04_04 13:48;61;1;0;control;50;142;0;98;65;64;84;0.88;0.070000000000000007;0.01;0.040000000000000001;5;68;60;16;0.46000000000000002;0.080000000000000002;0.27000000000000002;0.19;0;2.0414005629550047;41;68;22;1;
2019_04_04 13:48;61;1;0;control;51;15;0;77;81;0;0;0.28000000000000003;0.71999999999999997;0.0;0.0;98;14;87;18;0.55000000000000004;0.23000000000000001;0.16;0.059999999999999901;0;8.195777065602215;41;68;22;1;
2019_04_04 13:48;61;1;0;control;52;4;1;40;43;0;0;0.58999999999999997;0.40999999999999998;0.0;0.0;2;33;88;81;0.69999999999999996;0.14000000000000001;0.13;0.029999999999999999;0;9.33638470578262;41;68;22;1;
2019_04_04 13:48;61;1;0;control;53;84;1;43;10;5;45;0.78000000000000003;0.13;0.059999999999999998;0.029999999999999999;87;1;0;0;0.57999999999999996;0.41999999999999998;0.0;0.0;0;5.033393075701497;41;68;22;1;
2019_04_04 13:48;61;1;0;control;54;37;0;14;98;0;0;0.93000000000000005;0.070000000000000007;0.0;0.0;41;2;87;66;0.17999999999999999;0.48999999999999999;0.32000000000000001;0.010000000000000101;1;6.0241222105614725;41;68;22;1;
2019_04_04 13:48;61;1;0;control;55;13;0;52;56;0;0;0.46999999999999997;0.53000000000000003;0.0;0.0;94;71;27;2;0.089999999999999997;0.31;0.57999999999999996;0.020000000000000101;0;6.29431156008377;41;68;22;1;
2019_04_04 13:48;61;1;0;control;56;41;1;99;40;0;0;0.89000000000000001;0.11;0.0;0.0;1;67;52;46;0.51000000000000001;0.38;0.029999999999999999;0.080000000000000002;0;3.1521220514769084;41;68;22;1;
2019_04_04 13:48;61;1;0;control;57;129;1;12;29;81;36;0.17999999999999999;0.79000000000000004;0.01;0.02;5;19;95;92;0.47999999999999998;0.26000000000000001;0.13;0.13;1;10.217058840886693;41;68;22;1;
2019_04_04 13:48;61;1;0;control;58;121;0;42;51;47;70;0.41999999999999998;0.17000000000000001;0.23999999999999999;0.17000000000000001;21;76;48;9;0.14999999999999999;0.34000000000000002;0.40999999999999998;0.10000000000000001;0;5.683866224992471;41;68;22;1;
2019_04_04 13:48;61;1;0;control;59;36;1;70;17;0;0;0.33000000000000002;0.67000000000000004;0.0;0.0;84;1;12;88;0.22;0.27000000000000002;0.14000000000000001;0.37;1;5.463845710737132;41;68;22;1;
2019_04_04 13:48;61;1;0;control;60;72;0;63;82;51;61;0.01;0.96999999999999997;0.01;0.01;92;12;0;0;0.89000000000000001;0.11;0.0;0.0;1;2.4317894613950557;41;68;22;1;
2019_04_04 13:48;61;1;0;control;61;3;1;53;40;0;0;0.31;0.68999999999999995;0.0;0.0;96;24;7;88;0.11;0.27000000000000002;0.58999999999999997;0.029999999999999999;0;5.393830713136595;41;68;22;1;
2019_04_04 13:48;61;1;0;control;62;58;0;37;58;76;34;0.20999999999999999;0.57999999999999996;0.19;0.020000000000000101;86;5;0;0;0.47999999999999998;0.52000000000000002;0.0;0.0;0;9.78671461451404;41;68;22;1;
2019_04_04 13:48;61;1;0;control;63;100;1;27;14;59;52;0.02;0.95999999999999996;0.01;0.01;17;98;0;0;0.48999999999999999;0.51000000000000001;0.0;0.0;1;3.902627210189621;41;68;22;1;
2019_04_04 13:48;61;1;0;control;64;55;1;74;55;47;48;0.60999999999999999;0.31;0.070000000000000007;0.01;97;6;0;0;0.42999999999999999;0.56999999999999995;0.0;0.0;0;5.1535259115948975;41;68;22;1;
2019_04_04 13:48;61;1;0;control;65;143;1;88;44;56;73;0.95999999999999996;0.02;0.01;0.01;20;3;87;32;0.19;0.40000000000000002;0.28000000000000003;0.13;0;5.563916849913312;41;68;22;1;
2019_04_04 13:48;61;1;0;control;66;78;1;74;36;34;3;0.14999999999999999;0.64000000000000001;0.13;0.080000000000000002;1;83;0;0;0.41999999999999998;0.57999999999999996;0.0;0.0;0;9.726654932016572;41;68;22;1;
2019_04_04 13:48;61;1;0;control;67;149;0;14;89;73;53;0.93999999999999995;0.01;0.01;0.040000000000000001;97;45;6;13;0.34000000000000002;0.01;0.40999999999999998;0.23999999999999999;1;12.60867230819349;41;68;22;1;
2019_04_04 13:48;61;1;0;control;68;136;1;29;67;14;75;0.46000000000000002;0.29999999999999999;0.20999999999999999;0.0300000000000001;70;86;1;85;0.31;0.39000000000000001;0.27000000000000002;0.029999999999999898;1;8.425906848091927;41;68;22;1;
2019_04_04 13:48;61;1;0;control;69;77;1;24;17;99;41;0.17999999999999999;0.13;0.10000000000000001;0.58999999999999997;12;97;0;0;0.59999999999999998;0.40000000000000002;0.0;0.0;1;9.436585422177814;41;68;22;1;
2019_04_04 13:48;61;1;0;control;70;73;0;65;68;70;47;0.25;0.23000000000000001;0.20999999999999999;0.31;27;95;0;0;0.45000000000000001;0.55000000000000004;0.0;0.0;0;7.234933761665161;41;68;22;1;
2019_04_04 13:48;61;1;0;control;71;74;1;66;47;52;44;0.41999999999999998;0.26000000000000001;0.17999999999999999;0.14000000000000001;17;99;0;0;0.47999999999999998;0.52000000000000002;0.0;0.0;0;4.352983739983301;41;68;22;1;
2019_04_04 13:48;61;1;0;control;72;16;0;64;53;0;0;0.65000000000000002;0.34999999999999998;0.0;0.0;29;17;81;46;0.10000000000000001;0.01;0.44;0.45000000000000001;0;8.446023711348516;41;68;22;1;
2019_04_04 13:48;61;1;0;control;73;79;0;52;46;29;22;0.17999999999999999;0.51000000000000001;0.23999999999999999;0.070000000000000104;93;14;0;0;0.45000000000000001;0.55000000000000004;0.0;0.0;1;10.837440246940787;41;68;22;1;
2019_04_04 13:48;61;1;0;control;74;40;0;45;49;0;0;0.68999999999999995;0.31;0.0;0.0;2;92;65;73;0.23999999999999999;0.59999999999999998;0.11;0.050000000000000003;1;16.48129469451851;41;68;22;1;
2019_04_04 13:48;61;1;0;control;75;27;1;44;26;0;0;0.35999999999999999;0.64000000000000001;0.0;0.0;63;10;3;5;0.58999999999999997;0.19;0.14999999999999999;0.070000000000000007;0;12.238374293419383;41;68;22;1;
2019_04_04 13:48;61;2;0;timed;1;30;1;33;30;0;0;0.71999999999999997;0.28000000000000003;0.0;0.0;9;88;1;14;0.55000000000000004;0.39000000000000001;0.01;0.049999999999999899;0;2.395213725435042;41;68;22;1;
2019_04_04 13:48;61;2;0;timed;2;50;1;15;20;0;0;0.82999999999999996;0.17000000000000001;0.0;0.0;97;18;88;87;0.56999999999999995;0.39000000000000001;0.01;0.029999999999999999;0;1.971444580721709;41;68;22;1;
2019_04_04 13:48;61;2;0;timed;3;134;0;57;48;50;55;0.02;0.62;0.17999999999999999;0.17999999999999999;80;96;15;18;0.23999999999999999;0.35999999999999999;0.33000000000000002;0.070000000000000007;1;2.041379715135463;41;68;22;1;
2019_04_04 13:48;61;2;0;timed;4;143;1;88;44;56;73;0.95999999999999996;0.02;0.01;0.01;20;3;87;32;0.19;0.40000000000000002;0.28000000000000003;0.13;0;2.1316263993699067;41;68;22;1;
2019_04_04 13:48;61;2;0;timed;5;114;0;57;39;79;97;0.77000000000000002;0.02;0.13;0.080000000000000002;92;36;6;1;0.54000000000000004;0.12;0.13;0.20999999999999999;0;1.6811040492239044;41;68;22;1;
2019_04_04 13:48;61;2;0;timed;6;21;0;64;28;0;0;0.080000000000000002;0.92000000000000004;0.0;0.0;50;1;88;13;0.57999999999999996;0.13;0.02;0.27000000000000002;0;1.841234229425936;41;68;22;1;
2019_04_04 13:48;61;2;0;timed;7;147;0;39;43;76;28;0.14000000000000001;0.10000000000000001;0.10000000000000001;0.66000000000000003;6;31;68;85;0.27000000000000002;0.20000000000000001;0.22;0.31;1;2.6819520743902103;41;68;22;1;
2019_04_04 13:48;61;2;0;timed;8;71;1;68;55;36;51;0.20000000000000001;0.75;0.02;0.029999999999999999;38;81;0;0;0.52000000000000002;0.47999999999999998;0.0;0.0;1;2.1114059384854045;41;68;22;1;
2019_04_04 13:48;61;2;0;timed;9;56;1;28;84;37;41;0.68000000000000005;0.28000000000000003;0.02;0.0199999999999999;6;95;0;0;0.72999999999999998;0.27000000000000002;0.0;0.0;0;1.9112325487708404;41;68;22;1;
2019_04_04 13:48;61;2;0;timed;10;124;1;37;65;15;41;0.17999999999999999;0.45000000000000001;0.02;0.34999999999999998;40;7;98;30;0.070000000000000007;0.45000000000000001;0.45000000000000001;0.029999999999999898;0;1.6410765557602645;41;68;22;1;
2019_04_04 13:48;61;2;0;timed;11;62;1;12;45;16;50;0.20999999999999999;0.76000000000000001;0.02;0.01;92;15;0;0;0.20999999999999999;0.79000000000000004;0.0;0.0;0;1.8312336905901248;41;68;22;1;
2019_04_04 13:48;61;2;0;timed;12;128;0;70;49;27;54;0.27000000000000002;0.53000000000000003;0.02;0.17999999999999999;72;97;6;20;0.29999999999999999;0.39000000000000001;0.22;0.0899999999999999;0;1.921404360465658;41;68;22;1;
2019_04_04 13:48;61;2;0;timed;13;116;0;53;65;43;99;0.56999999999999995;0.37;0.050000000000000003;0.010000000000000101;57;72;11;87;0.67000000000000004;0.13;0.14999999999999999;0.050000000000000003;0;1.491123639759735;41;68;22;1;
2019_04_04 13:48;61;2;0;timed;14;145;1;91;89;90;74;0.57999999999999996;0.29999999999999999;0.11;0.010000000000000101;2;75;84;39;0.32000000000000001;0.27000000000000002;0.39000000000000001;0.0199999999999999;0;1.561059415645559;41;68;22;1;
2019_04_04 13:48;61;2;0;timed;15;35;1;33;37;0;0;0.88;0.12;0.0;0.0;63;4;79;98;0.16;0.46000000000000002;0.17000000000000001;0.20999999999999999;0;1.7011846693471853;41;68;22;1;
2019_04_04 13:48;61;2;0;timed;16;87;1;10;30;63;4;0.56999999999999995;0.12;0.16;0.14999999999999999;86;2;0;0;0.42999999999999999;0.56999999999999995;0.0;0.0;0;2.141451175047223;41;68;22;1;
2019_04_04 13:48;61;2;0;timed;17;78;0;74;36;34;3;0.14999999999999999;0.64000000000000001;0.13;0.080000000000000002;1;83;0;0;0.41999999999999998;0.57999999999999996;0.0;0.0;0;2.271680129012566;41;68;22;1;
2019_04_04 13:48;61;2;0;timed;18;129;1;12;29;81;36;0.17999999999999999;0.79000000000000004;0.01;0.02;5;19;95;92;0.47999999999999998;0.26000000000000001;0.13;0.13;0;2.2016253601864264;41;68;22;1;
2019_04_04 13:48;61;2;0;timed;19;27;0;44;26;0;0;0.35999999999999999;0.64000000000000001;0.0;0.0;63;10;3;5;0.58999999999999997;0.19;0.14999999999999999;0.070000000000000007;0;1.6612463404053415;41;68;22;1;
2019_04_04 13:48;61;2;0;timed;20;113;0;85;65;39;64;0.44;0.34000000000000002;0.13;0.089999999999999997;87;2;4;35;0.67000000000000004;0.17000000000000001;0.11;0.049999999999999899;0;1.4912131250175662;41;68;22;1;
2019_04_04 13:48;61;2;0;timed;21;96;1;51;54;39;7;0.17000000000000001;0.26000000000000001;0.10000000000000001;0.46999999999999997;24;96;0;0;0.28000000000000003;0.71999999999999997;0.0;0.0;1;1.3412560394526736;41;68;22;1;
2019_04_04 13:48;61;2;0;timed;22;63;0;56;78;42;36;0.93000000000000005;0.040000000000000001;0.01;0.0199999999999999;2;72;0;0;0.32000000000000001;0.68000000000000005;0.0;0.0;0;1.671098378616989;41;68;22;1;
2019_04_04 13:48;61;2;0;timed;23;58;1;37;58;76;34;0.20999999999999999;0.57999999999999996;0.19;0.020000000000000101;86;5;0;0;0.47999999999999998;0.52000000000000002;0.0;0.0;0;1.5510521413598326;41;68;22;1;
2019_04_04 13:48;61;2;0;timed;24;94;0;84;86;93;39;0.78000000000000003;0.20000000000000001;0.01;0.0099999999999999603;9;83;0;0;0.46999999999999997;0.53000000000000003;0.0;0.0;0;0.9907323422175978;41;68;22;1;
2019_04_04 13:48;61;2;0;timed;25;33;0;27;70;0;0;0.88;0.12;0.0;0.0;93;3;77;16;0.080000000000000002;0.40000000000000002;0.5;0.02;0;1.6212878051155712;41;68;22;1;
2019_04_04 13:48;61;2;0;timed;26;46;1;5;19;0;0;0.32000000000000001;0.68000000000000005;0.0;0.0;88;38;97;66;0.60999999999999999;0.20000000000000001;0.040000000000000001;0.14999999999999999;1;1.110746826641389;41;68;22;1;
2019_04_04 13:48;61;2;0;timed;27;141;1;93;28;60;91;0.81999999999999995;0.10000000000000001;0.01;0.070000000000000007;14;85;7;89;0.45000000000000001;0.070000000000000007;0.23999999999999999;0.23999999999999999;0;1.8512447110683752;41;68;22;1;
2019_04_04 13:48;61;2;0;timed;28;115;1;50;28;61;79;0.83999999999999997;0.040000000000000001;0.059999999999999998;0.059999999999999998;1;26;97;55;0.45000000000000001;0.080000000000000002;0.40999999999999998;0.060000000000000102;0;1.5211390479021247;41;68;22;1;
2019_04_04 13:48;61;2;0;timed;29;72;0;63;82;51;61;0.01;0.96999999999999997;0.01;0.01;92;12;0;0;0.89000000000000001;0.11;0.0;0.0;0;1.020669170115525;41;68;22;1;
2019_04_04 13:48;61;2;0;timed;30;131;0;83;41;81;88;0.23999999999999999;0.58999999999999997;0.10000000000000001;0.070000000000000007;82;97;4;17;0.26000000000000001;0.46999999999999997;0.11;0.16;0;1.00069631718452;41;68;22;1;
2019_04_04 13:48;61;2;0;timed;31;98;1;27;10;31;79;0.23000000000000001;0.67000000000000004;0.070000000000000007;0.029999999999999999;25;99;0;0;0.38;0.62;0.0;0.0;1;1.741169184228056;41;68;22;1;
2019_04_04 13:48;61;2;0;timed;32;32;1;19;81;0;0;0.93000000000000005;0.070000000000000007;0.0;0.0;1;65;41;68;0.45000000000000001;0.050000000000000003;0.059999999999999998;0.44;0;1.5610610193234606;41;68;22;1;
2019_04_04 13:48;61;2;0;timed;33;146;1;25;5;64;35;0.94999999999999996;0.02;0.01;0.02;47;97;12;79;0.20999999999999999;0.029999999999999999;0.02;0.73999999999999999;1;1.5210165268686069;41;68;22;1;
2019_04_04 13:48;61;2;0;timed;34;19;0;22;53;0;0;0.13;0.87;0.0;0.0;4;93;96;65;0.46999999999999997;0.059999999999999998;0.26000000000000001;0.20999999999999999;0;1.7111483235785272;41;68;22;1;
2019_04_04 13:48;61;2;0;timed;35;77;0;24;17;99;41;0.17999999999999999;0.13;0.10000000000000001;0.58999999999999997;12;97;0;0;0.59999999999999998;0.40000000000000002;0.0;0.0;0;1.7511819110200122;41;68;22;1;
2019_04_04 13:48;61;2;0;timed;36;55;1;74;55;47;48;0.60999999999999999;0.31;0.070000000000000007;0.01;97;6;0;0;0.42999999999999999;0.56999999999999995;0.0;0.0;0;1.5411365974814544;41;68;22;1;
2019_04_04 13:48;61;2;0;timed;37;60;0;64;59;57;96;0.83999999999999997;0.13;0.02;0.01;83;6;0;0;0.54000000000000004;0.46000000000000002;0.0;0.0;0;1.310824316383787;41;68;22;1;
2019_04_04 13:48;61;2;0;timed;38;24;0;35;27;0;0;0.070000000000000007;0.93000000000000005;0.0;0.0;62;3;81;95;0.35999999999999999;0.55000000000000004;0.01;0.080000000000000002;0;1.7312946945185104;41;68;22;1;
2019_04_04 13:48;61;2;0;timed;39;142;0;98;65;64;84;0.88;0.070000000000000007;0.01;0.040000000000000001;5;68;60;16;0.46000000000000002;0.080000000000000002;0.27000000000000002;0.19;0;1.1608367609287598;41;68;22;1;
2019_04_04 13:48;61;2;0;timed;40;8;1;50;36;0;0;0.080000000000000002;0.92000000000000004;0.0;0.0;6;19;84;29;0.54000000000000004;0.070000000000000007;0.17000000000000001;0.22;0;1.6711038311236734;41;68;22;1;
2019_04_04 13:48;61;2;0;timed;41;86;1;56;30;57;88;0.20000000000000001;0.35999999999999999;0.080000000000000002;0.35999999999999999;98;2;0;0;0.77000000000000002;0.23000000000000001;0.0;0.0;1;1.8013504255523003;41;68;22;1;
2019_04_04 13:48;61;2;0;timed;42;82;1;78;66;30;27;0.28999999999999998;0.58999999999999997;0.080000000000000002;0.040000000000000001;90;6;0;0;0.82999999999999996;0.17000000000000001;0.0;0.0;1;1.671095491995402;41;68;22;1;
2019_04_04 13:48;61;2;0;timed;43;25;0;50;53;0;0;0.82999999999999996;0.17000000000000001;0.0;0.0;83;16;97;4;0.45000000000000001;0.29999999999999999;0.11;0.14000000000000001;0;2.0313021997335454;41;68;22;1;
2019_04_04 13:48;61;2;0;timed;44;43;0;60;83;0;0;0.23000000000000001;0.77000000000000002;0.0;0.0;72;5;70;12;0.29999999999999999;0.40999999999999998;0.12;0.17000000000000001;0;1.1108189921715166;41;68;22;1;
2019_04_04 13:48;61;2;0;timed;45;49;0;21;30;0;0;0.53000000000000003;0.46999999999999997;0.0;0.0;93;99;89;25;0.44;0.02;0.11;0.42999999999999999;1;1.4609424112654779;41;68;22;1;
2019_04_04 13:48;61;2;0;timed;46;57;0;52;35;23;47;0.22;0.68000000000000005;0.040000000000000001;0.059999999999999998;71;7;0;0;0.28999999999999998;0.70999999999999996;0.0;0.0;0;1.6410717447251955;41;68;22;1;
2019_04_04 13:48;61;2;0;timed;47;148;0;37;63;55;10;0.72999999999999998;0.070000000000000007;0.029999999999999999;0.17000000000000001;80;14;23;70;0.46999999999999997;0.10000000000000001;0.23000000000000001;0.20000000000000001;1;1.6811111054089451;41;68;22;1;
2019_04_04 13:48;61;2;0;timed;48;118;0;62;52;65;68;0.40999999999999998;0.44;0.10000000000000001;0.0500000000000001;79;20;14;37;0.56999999999999995;0.23999999999999999;0.14000000000000001;0.050000000000000003;0;1.641158984833055;41;68;22;1;
2019_04_04 13:48;61;2;0;timed;49;66;0;89;23;27;15;0.070000000000000007;0.54000000000000004;0.17000000000000001;0.22;9;73;0;0;0.72999999999999998;0.27000000000000002;0.0;0.0;0;2.1116044738782875;41;68;22;1;
2019_04_04 13:48;61;2;0;timed;50;95;0;93;88;68;85;0.83999999999999997;0.14000000000000001;0.01;0.01;2;82;0;0;0.41999999999999998;0.57999999999999996;0.0;0.0;0;1.1507281341650923;41;68;22;1;
2019_04_04 13:48;61;2;0;timed;51;139;0;44;31;16;8;0.79000000000000004;0.070000000000000007;0.13;0.0099999999999999499;92;58;2;88;0.55000000000000004;0.070000000000000007;0.34000000000000002;0.039999999999999897;1;1.5710509738814835;41;68;22;1;
2019_04_04 13:48;61;2;0;timed;52;26;1;76;41;0;0;0.57999999999999996;0.41999999999999998;0.0;0.0;61;79;84;2;0.13;0.029999999999999999;0.67000000000000004;0.17000000000000001;1;1.5411388426318808;41;68;22;1;
2019_04_04 13:48;61;2;0;timed;53;23;1;54;40;0;0;0.93000000000000005;0.070000000000000007;0.0;0.0;36;23;71;86;0.02;0.41999999999999998;0.19;0.37;0;1.7913858091137627;41;68;22;1;
2019_04_04 13:48;61;2;0;timed;54;47;0;2;40;0;0;0.45000000000000001;0.55000000000000004;0.0;0.0;93;89;11;56;0.58999999999999997;0.070000000000000007;0.28000000000000003;0.059999999999999998;1;1.2109122621104689;41;68;22;1;
2019_04_04 13:48;61;2;0;timed;55;44;0;79;74;0;0;0.71999999999999997;0.28000000000000003;0.0;0.0;3;67;15;36;0.41999999999999998;0.53000000000000003;0.02;0.029999999999999999;0;1.110714111600828;41;68;22;1;
2019_04_04 13:48;61;2;0;timed;56;16;1;64;53;0;0;0.65000000000000002;0.34999999999999998;0.0;0.0;29;17;81;46;0.10000000000000001;0.01;0.44;0.45000000000000001;0;1.5910263926984953;41;68;22;1;
2019_04_04 13:48;61;2;0;timed;57;73;0;65;68;70;47;0.25;0.23000000000000001;0.20999999999999999;0.31;27;95;0;0;0.45000000000000001;0.55000000000000004;0.0;0.0;0;1.3108663327593604;41;68;22;1;
2019_04_04 13:48;61;2;0;timed;58;61;0;43;18;39;70;0.75;0.089999999999999997;0.089999999999999997;0.070000000000000007;16;66;0;0;0.64000000000000001;0.35999999999999999;0.0;0.0;0;1.7816877240338727;41;68;22;1;
2019_04_04 13:48;61;2;0;timed;59;40;0;45;49;0;0;0.68999999999999995;0.31;0.0;0.0;2;92;65;73;0.23999999999999999;0.59999999999999998;0.11;0.050000000000000003;0;1.8312324076473487;41;68;22;1;
2019_04_04 13:48;61;2;0;timed;60;123;1;26;24;51;92;0.72999999999999998;0.16;0.070000000000000007;0.040000000000000001;6;90;82;49;0.64000000000000001;0.25;0.050000000000000003;0.059999999999999998;0;2.2115938254528373;41;68;22;1;
2019_04_04 13:48;61;2;0;timed;61;97;0;17;33;32;74;0.94999999999999996;0.01;0.029999999999999999;0.01;76;23;0;0;0.33000000000000002;0.67000000000000004;0.0;0.0;0;2.1515931583230667;41;68;22;1;
2019_04_04 13:48;61;2;0;timed;62;53;1;26;70;50;80;0.29999999999999999;0.59999999999999998;0.040000000000000001;0.059999999999999998;89;1;0;0;0.40999999999999998;0.58999999999999997;0.0;0.0;0;1.8313597397163903;41;68;22;1;
2019_04_04 13:48;61;2;0;timed;63;15;0;77;81;0;0;0.28000000000000003;0.71999999999999997;0.0;0.0;98;14;87;18;0.55000000000000004;0.23000000000000001;0.16;0.059999999999999901;0;1.270828575753967;41;68;22;1;
2019_04_04 13:48;61;2;0;timed;64;150;0;25;21;78;38;0.84999999999999998;0.059999999999999998;0.050000000000000003;0.040000000000000001;31;43;64;95;0.059999999999999998;0.45000000000000001;0.13;0.35999999999999999;1;1.7211594466925817;41;68;22;1;
2019_04_04 13:48;61;2;0;timed;65;37;0;14;98;0;0;0.93000000000000005;0.070000000000000007;0.0;0.0;41;2;87;66;0.17999999999999999;0.48999999999999999;0.32000000000000001;0.010000000000000101;1;1.711187132597388;41;68;22;1;
2019_04_04 13:48;61;2;0;timed;66;67;0;44;42;8;89;0.88;0.070000000000000007;0.029999999999999999;0.02;10;63;0;0;0.39000000000000001;0.60999999999999999;0.0;0.0;1;2.07153624698185;41;68;22;1;
2019_04_04 13:48;61;2;0;timed;67;144;1;99;93;90;71;0.65000000000000002;0.32000000000000001;0.01;0.02;97;14;48;73;0.23000000000000001;0.46000000000000002;0.13;0.17999999999999999;0;1.721250214893189;41;68;22;1;
2019_04_04 13:48;61;2;0;timed;68;81;1;67;38;52;65;0.27000000000000002;0.35999999999999999;0.01;0.35999999999999999;2;77;0;0;0.14000000000000001;0.85999999999999999;0.0;0.0;1;1.8211696460875828;41;68;22;1;
2019_04_04 13:48;61;2;0;timed;69;42;1;70;48;0;0;0.79000000000000004;0.20999999999999999;0.0;0.0;51;8;12;67;0.19;0.26000000000000001;0.28999999999999998;0.26000000000000001;0;1.6312081600290185;41;68;22;1;
2019_04_04 13:48;61;2;0;timed;70;106;0;85;69;22;61;0.10000000000000001;0.58999999999999997;0.17999999999999999;0.13;20;79;91;84;0.55000000000000004;0.14999999999999999;0.26000000000000001;0.039999999999999897;1;1.801164078115562;41;68;22;1;
2019_04_04 13:48;61;2;0;timed;71;135;1;48;60;41;51;0.14000000000000001;0.40000000000000002;0.089999999999999997;0.37;94;1;85;65;0.64000000000000001;0.29999999999999999;0.01;0.050000000000000003;0;1.921217371558214;41;68;22;1;
2019_04_04 13:48;61;2;0;timed;72;133;1;59;88;60;36;0.67000000000000004;0.070000000000000007;0.12;0.14000000000000001;7;91;66;61;0.25;0.68999999999999995;0.01;0.0500000000000001;0;1.5209976034630017;41;68;22;1;
2019_04_04 13:48;61;2;0;timed;73;121;1;42;51;47;70;0.41999999999999998;0.17000000000000001;0.23999999999999999;0.17000000000000001;21;76;48;9;0.14999999999999999;0.34000000000000002;0.40999999999999998;0.10000000000000001;0;1.5610443410673724;41;68;22;1;
2019_04_04 13:48;61;2;0;timed;74;127;1;89;26;62;79;0.02;0.28999999999999998;0.53000000000000003;0.16;96;6;60;13;0.53000000000000003;0.25;0.17000000000000001;0.050000000000000003;0;1.561030549433326;41;68;22;1;
2019_04_04 13:48;61;2;0;timed;75;69;0;54;34;64;49;0.34000000000000002;0.25;0.20999999999999999;0.20000000000000001;14;98;0;0;0.62;0.38;0.0;0.0;0;1.4309273238582136;41;68;22;1;
2019_04_04 13:48;61;3;0;control;1;104;1;55;85;93;3;0.87;0.02;0.089999999999999997;0.02;1;2;90;8;0.35999999999999999;0.070000000000000007;0.40000000000000002;0.17000000000000001;0;8.24947303126055;41;68;22;1;
2019_04_04 13:48;61;3;0;control;2;145;1;91;89;90;74;0.57999999999999996;0.29999999999999999;0.11;0.010000000000000101;2;75;84;39;0.32000000000000001;0.27000000000000002;0.39000000000000001;0.0199999999999999;0;6.564499947399327;41;68;22;1;
2019_04_04 13:48;61;3;0;control;3;120;0;64;40;48;51;0.19;0.02;0.070000000000000007;0.71999999999999997;97;9;79;94;0.23000000000000001;0.54000000000000004;0.01;0.22;0;3.8126050409387062;41;68;22;1;
2019_04_04 13:48;61;3;0;control;4;61;0;43;18;39;70;0.75;0.089999999999999997;0.089999999999999997;0.070000000000000007;16;66;0;0;0.64000000000000001;0.35999999999999999;0.0;0.0;0;5.624017907314737;41;68;22;1;
2019_04_04 13:48;61;3;0;control;5;21;0;64;28;0;0;0.080000000000000002;0.92000000000000004;0.0;0.0;50;1;88;13;0.57999999999999996;0.13;0.02;0.27000000000000002;0;5.793965165538339;41;68;22;1;
2019_04_04 13:48;61;3;0;control;6;116;1;53;65;43;99;0.56999999999999995;0.37;0.050000000000000003;0.010000000000000101;57;72;11;87;0.67000000000000004;0.13;0.14999999999999999;0.050000000000000003;0;12.08844703627392;41;68;22;1;
2019_04_04 13:48;61;3;0;control;7;26;1;76;41;0;0;0.57999999999999996;0.41999999999999998;0.0;0.0;61;79;84;2;0.13;0.029999999999999999;0.67000000000000004;0.17000000000000001;0;11.518013799332039;41;68;22;1;
2019_04_04 13:48;61;3;0;control;8;127;1;89;26;62;79;0.02;0.28999999999999998;0.53000000000000003;0.16;96;6;60;13;0.53000000000000003;0.25;0.17000000000000001;0.050000000000000003;0;7.855359108508765;41;68;22;1;
2019_04_04 13:48;61;3;0;control;9;83;1;17;12;7;41;0.65000000000000002;0.19;0.089999999999999997;0.070000000000000007;6;84;0;0;0.72999999999999998;0.27000000000000002;0.0;0.0;0;2.111463029438255;41;68;22;1;
2019_04_04 13:48;61;3;0;control;10;18;0;68;50;0;0;0.029999999999999999;0.96999999999999997;0.0;0.0;34;64;15;89;0.65000000000000002;0.029999999999999999;0.050000000000000003;0.27000000000000002;0;3.1122173997828213;41;68;22;1;
2019_04_04 13:48;61;3;0;control;11;132;0;27;70;21;19;0.64000000000000001;0.23000000000000001;0.029999999999999999;0.10000000000000001;11;85;55;6;0.39000000000000001;0.46999999999999997;0.029999999999999999;0.11;1;2.922272591980345;41;68;22;1;
2019_04_04 13:48;61;3;0;control;12;106;1;85;69;22;61;0.10000000000000001;0.58999999999999997;0.17999999999999999;0.13;20;79;91;84;0.55000000000000004;0.14999999999999999;0.26000000000000001;0.039999999999999897;0;8.655961257694344;41;68;22;1;
2019_04_04 13:48;61;3;0;control;13;42;1;70;48;0;0;0.79000000000000004;0.20999999999999999;0.0;0.0;51;8;12;67;0.19;0.26000000000000001;0.28999999999999998;0.26000000000000001;0;1.8712429021193202;41;68;22;1;
2019_04_04 13:48;61;3;0;control;14;115;1;50;28;61;79;0.83999999999999997;0.040000000000000001;0.059999999999999998;0.059999999999999998;1;26;97;55;0.45000000000000001;0.080000000000000002;0.40999999999999998;0.060000000000000102;0;2.2815482040086863;41;68;22;1;
2019_04_04 13:48;61;3;0;control;15;114;0;57;39;79;97;0.77000000000000002;0.02;0.13;0.080000000000000002;92;36;6;1;0.54000000000000004;0.12;0.13;0.20999999999999999;0;3.2823484395566993;41;68;22;1;
2019_04_04 13:48;61;3;0;control;16;57;0;52;35;23;47;0.22;0.68000000000000005;0.040000000000000001;0.059999999999999998;71;7;0;0;0.28999999999999998;0.70999999999999996;0.0;0.0;0;3.1222227496541564;41;68;22;1;
2019_04_04 13:48;61;3;0;control;17;131;1;83;41;81;88;0.23999999999999999;0.58999999999999997;0.10000000000000001;0.070000000000000007;82;97;4;17;0.26000000000000001;0.46999999999999997;0.11;0.16;0;2.842038634538312;41;68;22;1;
2019_04_04 13:48;61;3;0;control;18;108;1;48;72;39;70;0.14000000000000001;0.66000000000000003;0.02;0.17999999999999999;81;44;98;8;0.59999999999999998;0.029999999999999999;0.050000000000000003;0.32000000000000001;0;4.443141580431529;41;68;22;1;
2019_04_04 13:48;61;3;0;control;19;66;0;89;23;27;15;0.070000000000000007;0.54000000000000004;0.17000000000000001;0.22;9;73;0;0;0.72999999999999998;0.27000000000000002;0.0;0.0;0;2.7119732557753196;41;68;22;1;
2019_04_04 13:48;61;3;0;control;20;9;0;61;69;0;0;0.93999999999999995;0.060000000000000102;0.0;0.0;18;93;72;16;0.40999999999999998;0.34999999999999998;0.089999999999999997;0.14999999999999999;0;3.5824733340350576;41;68;22;1;
2019_04_04 13:48;61;3;0;control;21;54;1;44;79;78;52;0.79000000000000004;0.19;0.01;0.0099999999999999603;96;1;0;0;0.28000000000000003;0.71999999999999997;0.0;0.0;0;2.3916240515845857;41;68;22;1;
2019_04_04 13:48;61;3;0;control;22;96;0;51;54;39;7;0.17000000000000001;0.26000000000000001;0.10000000000000001;0.46999999999999997;24;96;0;0;0.28000000000000003;0.71999999999999997;0.0;0.0;1;2.591868323886956;41;68;22;1;
2019_04_04 13:48;61;3;0;control;23;49;1;21;30;0;0;0.53000000000000003;0.46999999999999997;0.0;0.0;93;99;89;25;0.44;0.02;0.11;0.42999999999999999;1;5.5139237778043935;41;68;22;1;
2019_04_04 13:48;61;3;0;control;24;113;0;85;65;39;64;0.44;0.34000000000000002;0.13;0.089999999999999997;87;2;4;35;0.67000000000000004;0.17000000000000001;0.11;0.049999999999999899;0;4.443143184109886;41;68;22;1;
2019_04_04 13:48;61;3;0;control;25;53;1;26;70;50;80;0.29999999999999999;0.59999999999999998;0.040000000000000001;0.059999999999999998;89;1;0;0;0.40999999999999998;0.58999999999999997;0.0;0.0;0;2.231511191109803;41;68;22;1;
2019_04_04 13:48;61;3;0;control;26;11;0;17;36;0;0;0.14000000000000001;0.85999999999999999;0.0;0.0;19;41;34;95;0.88;0.02;0.050000000000000003;0.050000000000000003;1;2.7818885045762727;41;68;22;1;
2019_04_04 13:48;61;3;0;control;27;32;0;19;81;0;0;0.93000000000000005;0.070000000000000007;0.0;0.0;1;65;41;68;0.45000000000000001;0.050000000000000003;0.059999999999999998;0.44;1;2.471848707692061;41;68;22;1;
2019_04_04 13:48;61;3;0;control;28;81;1;67;38;52;65;0.27000000000000002;0.35999999999999999;0.01;0.35999999999999999;2;77;0;0;0.14000000000000001;0.85999999999999999;0.0;0.0;1;1.701263570327228;41;68;22;1;
2019_04_04 13:48;61;3;0;control;29;101;0;30;96;61;45;0.65000000000000002;0.14000000000000001;0.11;0.10000000000000001;3;98;63;89;0.75;0.19;0.040000000000000001;0.02;0;3.0020328228074504;41;68;22;1;
2019_04_04 13:48;61;3;0;control;30;110;1;47;44;23;52;0.13;0.27000000000000002;0.040000000000000001;0.56000000000000005;99;2;30;22;0.28999999999999998;0.5;0.11;0.10000000000000001;0;2.2516582035209467;41;68;22;1;
2019_04_04 13:48;61;3;0;control;31;39;1;14;33;0;0;0.78000000000000003;0.22;0.0;0.0;93;84;1;25;0.14000000000000001;0.23999999999999999;0.39000000000000001;0.23000000000000001;1;2.591746123588109;41;68;22;1;
2019_04_04 13:48;61;3;0;control;32;10;0;45;62;0;0;0.059999999999999998;0.93999999999999995;0.0;0.0;17;99;28;67;0.58999999999999997;0.34000000000000002;0.01;0.059999999999999998;0;5.293682597394763;41;68;22;1;
2019_04_04 13:48;61;3;0;control;33;92;0;90;86;65;94;0.16;0.34000000000000002;0.28000000000000003;0.22;79;22;0;0;0.35999999999999999;0.64000000000000001;0.0;0.0;0;2.201553194655844;41;68;22;1;
2019_04_04 13:48;61;3;0;control;34;29;1;44;51;0;0;0.78000000000000003;0.22;0.0;0.0;74;1;68;82;0.69999999999999996;0.28000000000000003;0.01;0.01;0;3.032006856046337;41;68;22;1;
2019_04_04 13:48;61;3;0;control;35;109;1;75;28;16;56;0.19;0.070000000000000007;0.059999999999999998;0.68000000000000005;3;50;98;44;0.5;0.02;0.34999999999999998;0.13;0;3.9627417384899672;41;68;22;1;
2019_04_04 13:48;61;3;0;control;36;52;0;71;51;10;54;0.22;0.12;0.19;0.46999999999999997;91;1;0;0;0.29999999999999999;0.69999999999999996;0.0;0.0;0;3.1120948787488487;41;68;22;1;
2019_04_04 13:48;61;3;0;control;37;97;1;17;33;32;74;0.94999999999999996;0.01;0.029999999999999999;0.01;76;23;0;0;0.33000000000000002;0.67000000000000004;0.0;0.0;1;4.993492593571318;41;68;22;1;
2019_04_04 13:48;61;3;0;control;38;44;1;79;74;0;0;0.71999999999999997;0.28000000000000003;0.0;0.0;3;67;15;36;0.41999999999999998;0.53000000000000003;0.02;0.029999999999999999;0;2.711945993241443;41;68;22;1;
2019_04_04 13:48;61;3;0;control;39;7;1;49;29;0;0;0.95999999999999996;0.040000000000000001;0.0;0.0;23;99;64;25;0.68999999999999995;0.12;0.059999999999999998;0.13;0;6.164197108760163;41;68;22;1;
2019_04_04 13:48;61;3;0;control;40;111;0;51;36;48;27;0.93000000000000005;0.01;0.01;0.049999999999999899;31;78;30;53;0.55000000000000004;0.16;0.029999999999999999;0.26000000000000001;1;8.565886487790067;41;68;22;1;
2019_04_04 13:48;61;3;0;control;41;98;1;27;10;31;79;0.23000000000000001;0.67000000000000004;0.070000000000000007;0.029999999999999999;25;99;0;0;0.38;0.62;0.0;0.0;1;3.9527046357857216;41;68;22;1;
2019_04_04 13:48;61;3;0;control;42;25;1;50;53;0;0;0.82999999999999996;0.17000000000000001;0.0;0.0;83;16;97;4;0.45000000000000001;0.29999999999999999;0.11;0.14000000000000001;0;3.6624808520791703;41;68;22;1;
2019_04_04 13:48;61;3;0;control;43;67;1;44;42;8;89;0.88;0.070000000000000007;0.029999999999999999;0.02;10;63;0;0;0.39000000000000001;0.60999999999999999;0.0;0.0;0;2.6818244215855884;41;68;22;1;
2019_04_04 13:48;61;3;0;control;44;68;1;84;27;55;62;0.01;0.050000000000000003;0.40999999999999998;0.53000000000000003;9;82;0;0;0.37;0.63;0.0;0.0;0;5.914083889061203;41;68;22;1;
2019_04_04 13:48;61;3;0;control;45;94;1;84;86;93;39;0.78000000000000003;0.20000000000000001;0.01;0.0099999999999999603;9;83;0;0;0.46999999999999997;0.53000000000000003;0.0;0.0;0;3.672612571812806;41;68;22;1;
2019_04_04 13:48;61;3;0;control;46;147;1;39;43;76;28;0.14000000000000001;0.10000000000000001;0.10000000000000001;0.66000000000000003;6;31;68;85;0.27000000000000002;0.20000000000000001;0.22;0.31;1;7.605187194178598;41;68;22;1;
2019_04_04 13:48;61;3;0;control;47;48;1;13;32;0;0;0.90000000000000002;0.10000000000000001;0.0;0.0;24;99;84;94;0.62;0.14999999999999999;0.20000000000000001;0.029999999999999999;1;4.07277140012684;41;68;22;1;
2019_04_04 13:48;61;3;0;control;48;82;0;78;66;30;27;0.28999999999999998;0.58999999999999997;0.080000000000000002;0.040000000000000001;90;6;0;0;0.82999999999999996;0.17000000000000001;0.0;0.0;1;2.441761134019089;41;68;22;1;
2019_04_04 13:48;61;3;0;control;49;19;1;22;53;0;0;0.13;0.87;0.0;0.0;4;93;96;65;0.46999999999999997;0.059999999999999998;0.26000000000000001;0.20999999999999999;1;9.59653951848577;41;68;22;1;
2019_04_04 13:48;61;3;0;control;50;107;0;52;48;13;63;0.68000000000000005;0.19;0.050000000000000003;0.079999999999999905;54;91;33;3;0.19;0.17999999999999999;0.33000000000000002;0.29999999999999999;0;6.564672182465074;41;68;22;1;
2019_04_04 13:48;61;3;0;control;51;137;1;71;22;28;17;0.25;0.46000000000000002;0.050000000000000003;0.23999999999999999;3;98;92;69;0.42999999999999999;0.23999999999999999;0.20000000000000001;0.13;0;5.28380457959247;41;68;22;1;
2019_04_04 13:48;61;3;0;control;52;56;0;28;84;37;41;0.68000000000000005;0.28000000000000003;0.02;0.0199999999999999;6;95;0;0;0.72999999999999998;0.27000000000000002;0.0;0.0;0;2.4418419594130683;41;68;22;1;
2019_04_04 13:48;61;3;0;control;53;125;0;37;41;10;35;0.91000000000000003;0.040000000000000001;0.029999999999999999;0.02;7;13;91;93;0.26000000000000001;0.39000000000000001;0.16;0.19;0;6.044155041066915;41;68;22;1;
2019_04_04 13:48;61;3;0;control;54;146;1;25;5;64;35;0.94999999999999996;0.02;0.01;0.02;47;97;12;79;0.20999999999999999;0.029999999999999999;0.02;0.73999999999999999;1;5.283686548857986;41;68;22;1;
2019_04_04 13:48;61;3;0;control;55;141;1;93;28;60;91;0.81999999999999995;0.10000000000000001;0.01;0.070000000000000007;14;85;7;89;0.45000000000000001;0.070000000000000007;0.23999999999999999;0.23999999999999999;0;4.322915410451969;41;68;22;1;
2019_04_04 13:48;61;3;0;control;56;71;0;68;55;36;51;0.20000000000000001;0.75;0.02;0.029999999999999999;38;81;0;0;0.52000000000000002;0.47999999999999998;0.0;0.0;1;4.303050003977205;41;68;22;1;
2019_04_04 13:48;61;3;0;control;57;85;1;31;22;82;50;0.11;0.69999999999999996;0.01;0.17999999999999999;3;99;0;0;0.62;0.38;0.0;0.0;0;3.562436654700832;41;68;22;1;
2019_04_04 13:48;61;3;0;control;58;5;0;70;5;0;0;0.98999999999999999;0.01;0.0;0.0;92;87;47;1;0.44;0.02;0.16;0.38;1;3.2922194011734973;41;68;22;1;
2019_04_04 13:48;61;3;0;control;59;17;0;81;52;0;0;0.059999999999999998;0.93999999999999995;0.0;0.0;34;3;69;41;0.01;0.22;0.75;0.02;0;1.3909642982689547;41;68;22;1;
2019_04_04 13:48;61;3;0;control;60;122;1;35;58;25;31;0.81999999999999995;0.070000000000000007;0.080000000000000002;0.029999999999999999;18;64;68;89;0.63;0.17000000000000001;0.11;0.089999999999999997;0;4.293049144405359;41;68;22;1;
2019_04_04 13:48;61;3;0;control;61;34;1;32;48;0;0;0.28000000000000003;0.71999999999999997;0.0;0.0;97;83;7;62;0.040000000000000001;0.54000000000000004;0.35999999999999999;0.059999999999999901;0;4.643312404260541;41;68;22;1;
2019_04_04 13:48;61;3;0;control;62;62;0;12;45;16;50;0.20999999999999999;0.76000000000000001;0.02;0.01;92;15;0;0;0.20999999999999999;0.79000000000000004;0.0;0.0;0;5.4337199695173695;41;68;22;1;
2019_04_04 13:48;61;3;0;control;63;90;1;27;44;50;72;0.68000000000000005;0.28999999999999998;0.02;0.0099999999999999707;6;96;0;0;0.46999999999999997;0.53000000000000003;0.0;0.0;1;3.0722283946024618;41;68;22;1;
2019_04_04 13:48;61;3;0;control;64;130;0;37;79;23;95;0.94999999999999996;0.029999999999999999;0.01;0.01;94;4;58;49;0.46000000000000002;0.5;0.029999999999999999;0.01;0;7.0449572010293195;41;68;22;1;
2019_04_04 13:48;61;3;0;control;65;33;0;27;70;0;0;0.88;0.12;0.0;0.0;93;3;77;16;0.080000000000000002;0.40000000000000002;0.5;0.02;1;5.053524372063748;41;68;22;1;
2019_04_04 13:48;61;3;0;control;66;63;1;56;78;42;36;0.93000000000000005;0.040000000000000001;0.01;0.0199999999999999;2;72;0;0;0.32000000000000001;0.68000000000000005;0.0;0.0;0;4.24289313856525;41;68;22;1;
2019_04_04 13:48;61;3;0;control;67;103;0;38;49;89;50;0.89000000000000001;0.070000000000000007;0.01;0.029999999999999999;6;64;99;27;0.70999999999999996;0.17999999999999999;0.059999999999999998;0.050000000000000003;0;3.082202312376012;41;68;22;1;
2019_04_04 13:48;61;3;0;control;68;93;0;87;81;73;98;0.80000000000000004;0.040000000000000001;0.14999999999999999;0.0099999999999999499;5;71;0;0;0.51000000000000001;0.48999999999999999;0.0;0.0;0;2.1116182655127886;41;68;22;1;
2019_04_04 13:48;61;3;0;control;69;139;0;44;31;16;8;0.79000000000000004;0.070000000000000007;0.13;0.0099999999999999499;92;58;2;88;0.55000000000000004;0.070000000000000007;0.34000000000000002;0.039999999999999897;0;4.403005678304908;41;68;22;1;
2019_04_04 13:48;61;3;0;control;70;148;0;37;63;55;10;0.72999999999999998;0.070000000000000007;0.029999999999999999;0.17000000000000001;80;14;23;70;0.46999999999999997;0.10000000000000001;0.23000000000000001;0.20000000000000001;0;3.252245470570415;41;68;22;1;
2019_04_04 13:48;61;3;0;control;71;51;0;52;23;43;16;0.60999999999999999;0.20999999999999999;0.01;0.17000000000000001;92;7;0;0;0.14999999999999999;0.84999999999999998;0.0;0.0;0;2.791885194583756;41;68;22;1;
2019_04_04 13:48;61;3;0;control;72;123;1;26;24;51;92;0.72999999999999998;0.16;0.070000000000000007;0.040000000000000001;6;90;82;49;0.64000000000000001;0.25;0.050000000000000003;0.059999999999999998;0;4.683367160257603;41;68;22;1;
2019_04_04 13:48;61;3;0;control;73;102;1;40;56;53;17;0.28000000000000003;0.26000000000000001;0.14999999999999999;0.31;1;76;29;62;0.68000000000000005;0.23000000000000001;0.050000000000000003;0.039999999999999897;0;2.641937731089911;41;68;22;1;
2019_04_04 13:48;61;3;0;control;74;6;0;9;51;0;0;0.14999999999999999;0.84999999999999998;0.0;0.0;6;40;50;73;0.42999999999999999;0.26000000000000001;0.059999999999999998;0.25;0;5.914173374319034;41;68;22;1;
2019_04_04 13:48;61;3;0;control;75;30;0;33;30;0;0;0.71999999999999997;0.28000000000000003;0.0;0.0;9;88;1;14;0.55000000000000004;0.39000000000000001;0.01;0.049999999999999899;0;5.964218405610154;41;68;22;1;
2019_04_04 13:48;61;4;0;timed;1;130;1;37;79;23;95;0.94999999999999996;0.029999999999999999;0.01;0.01;94;4;58;49;0.46000000000000002;0.5;0.029999999999999999;0.01;0;1.8336222092789285;41;68;22;1;
2019_04_04 13:48;61;4;0;timed;2;112;1;70;44;98;64;0.02;0.75;0.12;0.11;33;2;63;85;0.23999999999999999;0.31;0.080000000000000002;0.37;0;2.0613769439787575;41;68;22;1;
2019_04_04 13:48;61;4;0;timed;3;2;0;59;32;0;0;0.080000000000000002;0.92000000000000004;0.0;0.0;33;38;85;1;0.28999999999999998;0.050000000000000003;0.070000000000000007;0.58999999999999997;0;2.0413992800122287;41;68;22;1;
2019_04_04 13:48;61;4;0;timed;4;68;0;84;27;55;62;0.01;0.050000000000000003;0.40999999999999998;0.53000000000000003;9;82;0;0;0.37;0.63;0.0;0.0;0;1.691261748548186;41;68;22;1;
2019_04_04 13:48;61;4;0;timed;5;100;0;27;14;59;52;0.02;0.95999999999999996;0.01;0.01;17;98;0;0;0.48999999999999999;0.51000000000000001;0.0;0.0;1;2.281502659540365;41;68;22;1;
2019_04_04 13:48;61;4;0;timed;6;64;0;48;39;34;19;0.46000000000000002;0.5;0.02;0.02;13;92;0;0;0.68999999999999995;0.31;0.0;0.0;0;1.9614575127843636;41;68;22;1;
2019_04_04 13:48;61;4;0;timed;7;59;1;56;47;83;90;0.31;0.12;0.54000000000000004;0.029999999999999898;10;98;0;0;0.46999999999999997;0.53000000000000003;0.0;0.0;0;2.1215296398268038;41;68;22;1;
2019_04_04 13:48;61;4;0;timed;8;84;1;43;10;5;45;0.78000000000000003;0.13;0.059999999999999998;0.029999999999999999;87;1;0;0;0.57999999999999996;0.41999999999999998;0.0;0.0;0;1.3208556458462226;41;68;22;1;
2019_04_04 13:48;61;4;0;timed;9;137;1;71;22;28;17;0.25;0.46000000000000002;0.050000000000000003;0.23999999999999999;3;98;92;69;0.42999999999999999;0.23999999999999999;0.20000000000000001;0.13;1;2.4416373300418854;41;68;22;1;
2019_04_04 13:48;61;4;0;timed;10;117;1;65;85;92;41;0.23000000000000001;0.17999999999999999;0.54000000000000004;0.050000000000000003;99;93;10;13;0.64000000000000001;0.16;0.01;0.19;0;2.2214176389234126;41;68;22;1;
2019_04_04 13:48;61;4;0;timed;11;111;0;51;36;48;27;0.93000000000000005;0.01;0.01;0.049999999999999899;31;78;30;53;0.55000000000000004;0.16;0.029999999999999999;0.26000000000000001;1;1.6210190286074067;41;68;22;1;
2019_04_04 13:48;61;4;0;timed;12;75;1;67;80;36;81;0.81999999999999995;0.080000000000000002;0.059999999999999998;0.040000000000000001;3;97;0;0;0.32000000000000001;0.68000000000000005;0.0;0.0;1;1.811205671119751;41;68;22;1;
2019_04_04 13:48;61;4;0;timed;13;31;0;10;59;0;0;0.23999999999999999;0.76000000000000001;0.0;0.0;1;79;53;73;0.23000000000000001;0.58999999999999997;0.050000000000000003;0.13;0;2.061601138227161;41;68;22;1;
2019_04_04 13:48;61;4;0;timed;14;7;0;49;29;0;0;0.95999999999999996;0.040000000000000001;0.0;0.0;23;99;64;25;0.68999999999999995;0.12;0.059999999999999998;0.13;0;1.7611497348157172;41;68;22;1;
2019_04_04 13:48;61;4;0;timed;15;12;0;53;68;0;0;0.31;0.68999999999999995;0.0;0.0;69;54;97;29;0.25;0.20999999999999999;0.20000000000000001;0.34000000000000002;0;1.5210287148252064;41;68;22;1;
2019_04_04 13:48;61;4;0;timed;16;91;0;74;81;86;48;0.93000000000000005;0.02;0.01;0.039999999999999897;7;64;0;0;0.13;0.87;0.0;0.0;0;1.7713295649027714;41;68;22;1;
2019_04_04 13:48;61;4;0;timed;17;65;1;75;64;59;52;0.59999999999999998;0.22;0.14000000000000001;0.040000000000000001;1;99;0;0;0.35999999999999999;0.64000000000000001;0.0;0.0;0;2.0813815497435826;41;68;22;1;
2019_04_04 13:48;61;4;0;timed;18;51;0;52;23;43;16;0.60999999999999999;0.20999999999999999;0.01;0.17000000000000001;92;7;0;0;0.14999999999999999;0.84999999999999998;0.0;0.0;0;2.141438345619463;41;68;22;1;
2019_04_04 13:48;61;4;0;timed;19;22;0;32;55;0;0;0.39000000000000001;0.60999999999999999;0.0;0.0;93;72;59;22;0.20000000000000001;0.11;0.14000000000000001;0.55000000000000004;1;2.151465184781955;41;68;22;1;
2019_04_04 13:48;61;4;0;timed;20;122;1;35;58;25;31;0.81999999999999995;0.070000000000000007;0.080000000000000002;0.029999999999999999;18;64;68;89;0.63;0.17000000000000001;0.11;0.089999999999999997;0;2.2215934020823624;41;68;22;1;
2019_04_04 13:48;61;4;0;timed;21;89;0;26;41;13;56;0.059999999999999998;0.40999999999999998;0.050000000000000003;0.47999999999999998;5;97;0;0;0.37;0.63;0.0;0.0;1;2.1613909922020866;41;68;22;1;
2019_04_04 13:48;61;4;0;timed;22;105;1;49;74;63;58;0.84999999999999998;0.080000000000000002;0.02;0.050000000000000003;97;5;86;8;0.25;0.52000000000000002;0.070000000000000007;0.16;0;2.0215553628290763;41;68;22;1;
2019_04_04 13:48;61;4;0;timed;23;79;0;52;46;29;22;0.17999999999999999;0.51000000000000001;0.23999999999999999;0.070000000000000104;93;14;0;0;0.45000000000000001;0.55000000000000004;0.0;0.0;0;1.9813238814663237;41;68;22;1;
2019_04_04 13:48;61;4;0;timed;24;18;1;68;50;0;0;0.029999999999999999;0.96999999999999997;0.0;0.0;34;64;15;89;0.65000000000000002;0.029999999999999999;0.050000000000000003;0.27000000000000002;0;1.480954073214889;41;68;22;1;
2019_04_04 13:48;61;4;0;timed;25;92;1;90;86;65;94;0.16;0.34000000000000002;0.28000000000000003;0.22;79;22;0;0;0.35999999999999999;0.64000000000000001;0.0;0.0;0;1.8413452039749245;41;68;22;1;
2019_04_04 13:48;61;4;0;timed;26;52;0;71;51;10;54;0.22;0.12;0.19;0.46999999999999997;91;1;0;0;0.29999999999999999;0.69999999999999996;0.0;0.0;0;2.081374814294122;41;68;22;1;
2019_04_04 13:48;61;4;0;timed;27;14;1;36;40;0;0;0.54000000000000004;0.46000000000000002;0.0;0.0;99;70;1;11;0.16;0.089999999999999997;0.080000000000000002;0.67000000000000004;0;2.041343472002609;41;68;22;1;
2019_04_04 13:48;61;4;0;timed;28;5;0;70;5;0;0;0.98999999999999999;0.01;0.0;0.0;92;87;47;1;0.44;0.02;0.16;0.38;1;2.641734705397539;41;68;22;1;
2019_04_04 13:48;61;4;0;timed;29;102;1;40;56;53;17;0.28000000000000003;0.26000000000000001;0.14999999999999999;0.31;1;76;29;62;0.68000000000000005;0.23000000000000001;0.050000000000000003;0.039999999999999897;0;1.8612375522479851;41;68;22;1;
2019_04_04 13:48;61;4;0;timed;30;74;0;66;47;52;44;0.41999999999999998;0.26000000000000001;0.17999999999999999;0.14000000000000001;17;99;0;0;0.47999999999999998;0.52000000000000002;0.0;0.0;1;1.9712755530122195;41;68;22;1;
2019_04_04 13:48;61;4;0;timed;31;10;0;45;62;0;0;0.059999999999999998;0.93999999999999995;0.0;0.0;17;99;28;67;0.58999999999999997;0.34000000000000002;0.01;0.059999999999999998;1;1.8613751478592349;41;68;22;1;
2019_04_04 13:48;61;4;0;timed;32;132;0;27;70;21;19;0.64000000000000001;0.23000000000000001;0.029999999999999999;0.10000000000000001;11;85;55;6;0.39000000000000001;0.46999999999999997;0.029999999999999999;0.11;0;2.6317665608667085;41;68;22;1;
2019_04_04 13:48;61;4;0;timed;33;39;0;14;33;0;0;0.78000000000000003;0.22;0.0;0.0;93;84;1;25;0.14000000000000001;0.23999999999999999;0.39000000000000001;0.23000000000000001;1;1.4809611294003844;41;68;22;1;
2019_04_04 13:48;61;4;0;timed;34;107;1;52;48;13;63;0.68000000000000005;0.19;0.050000000000000003;0.079999999999999905;54;91;33;3;0.19;0.17999999999999999;0.33000000000000002;0.29999999999999999;0;2.0215730032919055;41;68;22;1;
2019_04_04 13:48;61;4;0;timed;35;9;0;61;69;0;0;0.93999999999999995;0.060000000000000102;0.0;0.0;18;93;72;16;0.40999999999999998;0.34999999999999998;0.089999999999999997;0.14999999999999999;0;1.2409837989985135;41;68;22;1;
2019_04_04 13:48;61;4;0;timed;36;140;0;36;32;26;27;0.39000000000000001;0.14999999999999999;0.19;0.27000000000000002;44;3;99;25;0.29999999999999999;0.34000000000000002;0.34000000000000002;0.0199999999999999;1;2.931947584090267;41;68;22;1;
2019_04_04 13:48;61;4;0;timed;37;70;0;66;55;69;50;0.22;0.29999999999999999;0.29999999999999999;0.17999999999999999;2;90;0;0;0.34000000000000002;0.66000000000000003;0.0;0.0;0;1.390915546443921;41;68;22;1;
2019_04_04 13:48;61;4;0;timed;38;125;1;37;41;10;35;0.91000000000000003;0.040000000000000001;0.029999999999999999;0.02;7;13;91;93;0.26000000000000001;0.39000000000000001;0.16;0.19;1;2.481677973668866;41;68;22;1;
2019_04_04 13:48;61;4;0;timed;39;48;1;13;32;0;0;0.90000000000000002;0.10000000000000001;0.0;0.0;24;99;84;94;0.62;0.14999999999999999;0.20000000000000001;0.029999999999999999;1;1.0708437786256582;41;68;22;1;
2019_04_04 13:48;61;4;0;timed;40;138;0;8;20;43;51;0.38;0.5;0.02;0.10000000000000001;72;82;70;1;0.39000000000000001;0.050000000000000003;0.070000000000000007;0.48999999999999999;0;2.3715344508618728;41;68;22;1;
2019_04_04 13:48;61;4;0;timed;41;3;1;53;40;0;0;0.31;0.68999999999999995;0.0;0.0;96;24;7;88;0.11;0.27000000000000002;0.58999999999999997;0.029999999999999999;0;1.7817910009266598;41;68;22;1;
2019_04_04 13:48;61;4;0;timed;42;38;1;40;70;0;0;0.53000000000000003;0.46999999999999997;0.0;0.0;97;90;6;96;0.56999999999999995;0.070000000000000007;0.27000000000000002;0.089999999999999997;0;1.591049806404044;41;68;22;1;
2019_04_04 13:48;61;4;0;timed;43;108;1;48;72;39;70;0.14000000000000001;0.66000000000000003;0.02;0.17999999999999999;81;44;98;8;0.59999999999999998;0.029999999999999999;0.050000000000000003;0.32000000000000001;0;2.1214180238062;41;68;22;1;
2019_04_04 13:48;61;4;0;timed;44;119;0;60;58;11;18;0.25;0.72999999999999998;0.01;0.01;96;23;42;85;0.44;0.48999999999999999;0.059999999999999998;0.010000000000000101;1;1.8412242866193083;41;68;22;1;
2019_04_04 13:48;61;4;0;timed;45;4;1;40;43;0;0;0.58999999999999997;0.40999999999999998;0.0;0.0;2;33;88;81;0.69999999999999996;0.14000000000000001;0.13;0.029999999999999999;0;1.611050563340541;41;68;22;1;
2019_04_04 13:48;61;4;0;timed;46;1;1;22;51;0;0;0.26000000000000001;0.73999999999999999;0.0;0.0;14;11;92;31;0.29999999999999999;0.40999999999999998;0.14999999999999999;0.14000000000000001;1;2.191594351459571;41;68;22;1;
2019_04_04 13:48;61;4;0;timed;47;104;1;55;85;93;3;0.87;0.02;0.089999999999999997;0.02;1;2;90;8;0.35999999999999999;0.070000000000000007;0.40000000000000002;0.17000000000000001;0;2.1715769162674405;41;68;22;1;
2019_04_04 13:48;61;4;0;timed;48;83;1;17;12;7;41;0.65000000000000002;0.19;0.089999999999999997;0.070000000000000007;6;84;0;0;0.72999999999999998;0.27000000000000002;0.0;0.0;0;2.071523738290125;41;68;22;1;
2019_04_04 13:48;61;4;0;timed;49;85;1;31;22;82;50;0.11;0.69999999999999996;0.01;0.17999999999999999;3;99;0;0;0.62;0.38;0.0;0.0;1;1.3110324738472627;41;68;22;1;
2019_04_04 13:48;61;4;0;timed;50;99;0;8;24;15;73;0.56000000000000005;0.35999999999999999;0.070000000000000007;0.0099999999999999499;88;12;0;0;0.52000000000000002;0.47999999999999998;0.0;0.0;0;2.161665221217845;41;68;22;1;
2019_04_04 13:48;61;4;0;timed;51;28;0;47;30;0;0;0.97999999999999998;0.02;0.0;0.0;55;48;77;13;0.070000000000000007;0.26000000000000001;0.42999999999999999;0.23999999999999999;1;1.711266354313011;41;68;22;1;
2019_04_04 13:48;61;4;0;timed;52;149;1;14;89;73;53;0.93999999999999995;0.01;0.01;0.040000000000000001;97;45;6;13;0.34000000000000002;0.01;0.40999999999999998;0.23999999999999999;0;1.4809883919338063;41;68;22;1;
2019_04_04 13:48;61;4;0;timed;53;54;1;44;79;78;52;0.79000000000000004;0.19;0.01;0.0099999999999999603;96;1;0;0;0.28000000000000003;0.71999999999999997;0.0;0.0;0;1.6713264216932657;41;68;22;1;
2019_04_04 13:48;61;4;0;timed;54;41;0;99;40;0;0;0.89000000000000001;0.11;0.0;0.0;1;67;52;46;0.51000000000000001;0.38;0.029999999999999999;0.080000000000000002;0;1.4610800068767276;41;68;22;1;
2019_04_04 13:48;61;4;0;timed;55;110;1;47;44;23;52;0.13;0.27000000000000002;0.040000000000000001;0.56000000000000005;99;2;30;22;0.28999999999999998;0.5;0.11;0.10000000000000001;0;2.4217523586903553;41;68;22;1;
2019_04_04 13:48;61;4;0;timed;56;136;1;29;67;14;75;0.46000000000000002;0.29999999999999999;0.20999999999999999;0.0300000000000001;70;86;1;85;0.31;0.39000000000000001;0.27000000000000002;0.029999999999999898;1;1.8512164863277576;41;68;22;1;
2019_04_04 13:48;61;4;0;timed;57;36;1;70;17;0;0;0.33000000000000002;0.67000000000000004;0.0;0.0;84;1;12;88;0.22;0.27000000000000002;0.14000000000000001;0.37;0;2.711968765475376;41;68;22;1;
2019_04_04 13:48;61;4;0;timed;58;11;0;17;36;0;0;0.14000000000000001;0.85999999999999999;0.0;0.0;19;41;34;95;0.88;0.02;0.050000000000000003;0.050000000000000003;1;2.0313573662724593;41;68;22;1;
2019_04_04 13:48;61;4;0;timed;59;20;1;44;40;0;0;0.91000000000000003;0.089999999999999997;0.0;0.0;29;5;80;99;0.25;0.40000000000000002;0.26000000000000001;0.089999999999999997;0;1.6612181156651786;41;68;22;1;
2019_04_04 13:48;61;4;0;timed;60;80;1;47;39;45;10;0.13;0.76000000000000001;0.059999999999999998;0.050000000000000003;2;87;0;0;0.48999999999999999;0.51000000000000001;0.0;0.0;0;2.1614525734548806;41;68;22;1;
2019_04_04 13:48;61;4;0;timed;61;120;1;64;40;48;51;0.19;0.02;0.070000000000000007;0.71999999999999997;97;9;79;94;0.23000000000000001;0.54000000000000004;0.01;0.22;0;2.3215673583436;41;68;22;1;
2019_04_04 13:48;61;4;0;timed;62;103;0;38;49;89;50;0.89000000000000001;0.070000000000000007;0.01;0.029999999999999999;6;64;99;27;0.70999999999999996;0.17999999999999999;0.059999999999999998;0.050000000000000003;0;2.041374583364359;41;68;22;1;
2019_04_04 13:48;61;4;0;timed;63;101;1;30;96;61;45;0.65000000000000002;0.14000000000000001;0.11;0.10000000000000001;3;98;63;89;0.75;0.19;0.040000000000000001;0.02;0;2.281630312345442;41;68;22;1;
2019_04_04 13:48;61;4;0;timed;64;88;1;77;13;12;7;0.12;0.19;0.66000000000000003;0.029999999999999898;94;2;0;0;0.40999999999999998;0.58999999999999997;0.0;0.0;0;1.881227724906239;41;68;22;1;
2019_04_04 13:48;61;4;0;timed;65;109;1;75;28;16;56;0.19;0.070000000000000007;0.059999999999999998;0.68000000000000005;3;50;98;44;0.5;0.02;0.34999999999999998;0.13;0;1.7211443721148498;41;68;22;1;
2019_04_04 13:48;61;4;0;timed;66;126;1;16;55;51;42;0.68999999999999995;0.23999999999999999;0.01;0.060000000000000102;66;4;1;5;0.46999999999999997;0.38;0.089999999999999997;0.059999999999999998;1;2.2016115685514706;41;68;22;1;
2019_04_04 13:48;61;4;0;timed;67;76;0;39;62;9;28;0.01;0.51000000000000001;0.26000000000000001;0.22;77;7;0;0;0.57999999999999996;0.41999999999999998;0.0;0.0;0;3.1121038593487356;41;68;22;1;
2019_04_04 13:48;61;4;0;timed;68;93;1;87;81;73;98;0.80000000000000004;0.040000000000000001;0.14999999999999999;0.0099999999999999499;5;71;0;0;0.51000000000000001;0.48999999999999999;0.0;0.0;0;2.2015923244098303;41;68;22;1;
2019_04_04 13:48;61;4;0;timed;69;17;1;81;52;0;0;0.059999999999999998;0.93999999999999995;0.0;0.0;34;3;69;41;0.01;0.22;0.75;0.02;0;1.5810486260966172;41;68;22;1;
2019_04_04 13:48;61;4;0;timed;70;6;0;9;51;0;0;0.14999999999999999;0.84999999999999998;0.0;0.0;6;40;50;73;0.42999999999999999;0.26000000000000001;0.059999999999999998;0.25;0;2.792014451067189;41;68;22;1;
2019_04_04 13:48;61;4;0;timed;71;34;1;32;48;0;0;0.28000000000000003;0.71999999999999997;0.0;0.0;97;83;7;62;0.040000000000000001;0.54000000000000004;0.35999999999999999;0.059999999999999901;0;1.6310747339821319;41;68;22;1;
2019_04_04 13:48;61;4;0;timed;72;29;0;44;51;0;0;0.78000000000000003;0.22;0.0;0.0;74;1;68;82;0.69999999999999996;0.28000000000000003;0.01;0.01;0;1.3508992787296847;41;68;22;1;
2019_04_04 13:48;61;4;0;timed;73;45;0;97;87;0;0;0.71999999999999997;0.28000000000000003;0.0;0.0;96;11;14;4;0.25;0.029999999999999999;0.14000000000000001;0.57999999999999996;0;1.4811141203244915;41;68;22;1;
2019_04_04 13:48;61;4;0;timed;74;90;0;27;44;50;72;0.68000000000000005;0.28999999999999998;0.02;0.0099999999999999707;6;96;0;0;0.46999999999999997;0.53000000000000003;0.0;0.0;0;2.261504789225455;41;68;22;1;
2019_04_04 13:48;61;4;0;timed;75;13;0;52;56;0;0;0.46999999999999997;0.53000000000000003;0.0;0.0;94;71;27;2;0.089999999999999997;0.31;0.57999999999999996;0.020000000000000101;0;1.8213300139327657;41;68;22;1;
