date;id;block;order;cond;trial;gameid;leftright;oa1;oa2;oa3;oa4;pa1;pa2;pa3;pa4;ob1;ob2;ob3;ob4;pb1;pb2;pb3;pb4;choice;rt;paytrial;payout;alter;geschlecht;comment
2019_02_22 10:02;8;0;1;practice;1;49;1;14;31;42;22;0.77000000000000002;0.089999999999999997;0.02;0.12;87;28;0;0;0.68000000000000005;0.32000000000000001;0.0;0.0;0;5.869293847889821;22;6;22;2;nein
2019_02_22 10:02;8;0;1;practice;2;39;0;53;65;48;75;0.92000000000000004;0.029999999999999999;0.01;0.040000000000000001;16;83;0;0;0.31;0.68999999999999995;0.0;0.0;0;2.1514503144962873;22;6;22;2;nein
2019_02_22 10:02;8;0;1;practice;3;40;0;29;65;30;41;0.70999999999999996;0.01;0.14999999999999999;0.13;2;59;0;0;0.32000000000000001;0.68000000000000005;0.0;0.0;0;1.460967060218536;22;6;22;2;nein
2019_02_22 10:02;8;0;1;practice;4;10;0;34;59;0;0;0.16;0.83999999999999997;0.0;0.0;21;61;96;7;0.19;0.01;0.5;0.29999999999999999;1;3.1821401412062187;22;6;22;2;nein
2019_02_22 10:02;8;0;1;practice;5;12;0;45;86;0;0;0.97999999999999998;0.02;0.0;0.0;6;23;95;81;0.14999999999999999;0.40999999999999998;0.050000000000000003;0.39000000000000001;1;8.525807121017351;22;6;22;2;nein
2019_02_22 10:02;8;0;1;practice;6;32;0;21;86;16;78;0.45000000000000001;0.41999999999999998;0.050000000000000003;0.080000000000000099;95;9;0;0;0.42999999999999999;0.56999999999999995;0.0;0.0;0;8.15554994626109;22;6;22;2;nein
2019_02_22 10:02;8;0;1;practice;7;55;0;53;11;80;74;0.31;0.37;0.28000000000000003;0.039999999999999897;6;93;98;96;0.69999999999999996;0.22;0.050000000000000003;0.029999999999999999;0;9.97688945651771;22;6;22;2;nein
2019_02_22 10:02;8;0;1;practice;8;16;1;50;42;0;0;0.32000000000000001;0.68000000000000005;0.0;0.0;97;2;56;31;0.35999999999999999;0.16;0.16;0.32000000000000001;1;1.4408977237781073;22;6;22;2;nein
2019_02_22 10:02;8;0;1;practice;9;61;0;51;48;56;88;0.91000000000000003;0.02;0.01;0.059999999999999998;78;21;14;82;0.55000000000000004;0.29999999999999999;0.070000000000000007;0.080000000000000002;1;1.3310018054162356;22;6;22;2;nein
2019_02_22 10:02;8;0;1;practice;10;56;1;47;52;64;10;0.77000000000000002;0.040000000000000001;0.11;0.080000000000000002;1;5;12;99;0.14000000000000001;0.28999999999999998;0.27000000000000002;0.29999999999999999;1;1.2007873397005824;22;6;22;2;nein
2019_02_22 10:02;8;0;1;practice;11;28;1;37;83;75;8;0.83999999999999997;0.070000000000000007;0.01;0.080000000000000002;94;2;0;0;0.19;0.81000000000000005;0.0;0.0;0;4.7132830057717;22;6;22;2;nein
2019_02_22 10:02;8;0;1;practice;12;27;1;68;43;98;36;0.54000000000000004;0.44;0.01;0.0099999999999999603;97;13;0;0;0.27000000000000002;0.72999999999999998;0.0;0.0;0;7.535280984501696;22;6;22;2;nein
2019_02_22 10:02;8;0;1;practice;13;71;0;94;87;26;75;0.71999999999999997;0.23999999999999999;0.02;0.02;90;27;12;83;0.16;0.73999999999999999;0.02;0.080000000000000002;1;18.61270796041208;22;6;22;2;nein
2019_02_22 10:02;8;0;1;practice;14;74;0;36;46;10;12;0.11;0.19;0.65000000000000002;0.049999999999999899;92;24;79;19;0.51000000000000001;0.40999999999999998;0.02;0.059999999999999998;1;13.499352596877543;22;6;22;2;nein
2019_02_22 10:02;8;0;1;practice;15;67;0;74;31;10;77;0.11;0.070000000000000007;0.77000000000000002;0.050000000000000003;2;23;8;97;0.56999999999999995;0.01;0.059999999999999998;0.35999999999999999;0;9.966756162357342;22;6;22;2;nein
2019_02_22 10:02;8;0;1;practice;16;22;1;84;87;0;0;0.17000000000000001;0.82999999999999996;0.0;0.0;3;24;41;83;0.68000000000000005;0.11;0.10000000000000001;0.11;1;2.8018041971990897;22;6;22;2;nein
2019_02_22 10:02;8;0;1;practice;17;65;0;35;15;77;1;0.62;0.33000000000000002;0.029999999999999999;0.02;68;3;25;96;0.38;0.28000000000000003;0.28000000000000003;0.059999999999999901;1;9.376555764068144;22;6;22;2;nein
2019_02_22 10:02;8;0;1;practice;18;59;0;13;27;48;51;0.56999999999999995;0.13;0.13;0.17000000000000001;8;37;97;1;0.65000000000000002;0.16;0.14999999999999999;0.040000000000000001;0;8.695894370495807;22;6;22;2;nein
2019_02_22 10:02;8;0;1;practice;19;18;0;47;36;0;0;0.089999999999999997;0.91000000000000003;0.0;0.0;2;44;81;9;0.20000000000000001;0.25;0.51000000000000001;0.040000000000000001;1;4.623129915861682;22;6;22;2;nein
2019_02_22 10:02;8;0;1;practice;20;13;0;15;25;0;0;0.29999999999999999;0.69999999999999996;0.0;0.0;3;43;35;73;0.44;0.40000000000000002;0.01;0.14999999999999999;1;7.955530766321317;22;6;22;2;nein
2019_02_22 10:02;8;0;1;practice;21;41;1;19;54;51;8;0.76000000000000001;0.070000000000000007;0.16;0.0099999999999999794;2;77;0;0;0.54000000000000004;0.46000000000000002;0.0;0.0;1;10.437134222046552;22;6;22;2;nein
2019_02_22 10:02;8;0;1;practice;22;38;1;51;89;10;60;0.57999999999999996;0.029999999999999999;0.080000000000000002;0.31;8;84;0;0;0.33000000000000002;0.67000000000000004;0.0;0.0;0;8.836049048043606;22;6;22;2;nein
2019_02_22 10:02;8;0;1;practice;23;9;1;57;44;0;0;0.14999999999999999;0.84999999999999998;0.0;0.0;38;35;64;95;0.34000000000000002;0.45000000000000001;0.089999999999999997;0.12;0;10.437286250325997;22;6;22;2;nein
2019_02_22 10:02;8;0;1;practice;24;25;0;7;18;0;0;0.20999999999999999;0.79000000000000004;0.0;0.0;92;45;33;13;0.41999999999999998;0.17999999999999999;0.22;0.17999999999999999;1;9.556459101026121;22;6;22;2;nein
2019_02_22 10:02;8;0;1;practice;25;30;0;54;78;85;25;0.20999999999999999;0.60999999999999999;0.089999999999999997;0.090000000000000094;87;20;0;0;0.58999999999999997;0.40999999999999998;0.0;0.0;1;9.686747015000947;22;6;22;2;nein
2019_02_22 10:02;8;0;1;practice;26;36;0;56;89;86;77;0.66000000000000003;0.080000000000000002;0.14999999999999999;0.11;29;91;0;0;0.40999999999999998;0.58999999999999997;0.0;0.0;1;7.435209813456822;22;6;22;2;nein
2019_02_22 10:02;8;0;1;practice;27;47;1;91;99;90;78;0.93000000000000005;0.040000000000000001;0.02;0.0099999999999999499;10;87;0;0;0.23000000000000001;0.77000000000000002;0.0;0.0;1;12.198468427351145;22;6;22;2;nein
2019_02_22 10:02;8;0;1;practice;28;19;1;25;73;0;0;0.69999999999999996;0.29999999999999999;0.0;0.0;87;84;1;86;0.040000000000000001;0.59999999999999998;0.28000000000000003;0.080000000000000002;1;7.435086009838415;22;6;22;2;nein
2019_02_22 10:02;8;0;1;practice;29;70;1;21;42;14;63;0.96999999999999997;0.01;0.01;0.01;70;2;6;76;0.23999999999999999;0.42999999999999999;0.01;0.32000000000000001;0;18.012321025991696;22;6;22;2;nein
2019_02_22 10:02;8;0;1;practice;30;7;1;13;31;0;0;0.51000000000000001;0.48999999999999999;0.0;0.0;8;79;42;18;0.85999999999999999;0.089999999999999997;0.02;0.029999999999999999;1;4.47320405370283;22;6;22;2;nein
2019_02_22 10:02;8;0;1;practice;31;6;1;42;59;0;0;0.35999999999999999;0.64000000000000001;0.0;0.0;77;19;6;7;0.44;0.14999999999999999;0.17999999999999999;0.23000000000000001;0;9.396405076461633;22;6;22;2;nein
2019_02_22 10:02;8;0;1;practice;32;46;1;79;57;98;81;0.67000000000000004;0.070000000000000007;0.20999999999999999;0.050000000000000003;1;76;0;0;0.56000000000000005;0.44;0.0;0.0;0;6.914791036489078;22;6;22;2;nein
2019_02_22 10:02;8;0;1;practice;33;11;0;10;44;0;0;0.48999999999999999;0.51000000000000001;0.0;0.0;88;12;54;50;0.17000000000000001;0.75;0.02;0.059999999999999998;0;9.236306790499839;22;6;22;2;nein
2019_02_22 10:02;8;0;1;practice;34;44;1;69;48;22;63;0.39000000000000001;0.40999999999999998;0.19;0.01;1;94;0;0;0.22;0.78000000000000003;0.0;0.0;1;6.004208040115373;22;6;22;2;nein
2019_02_22 10:02;8;0;1;practice;35;31;1;72;59;40;92;0.59999999999999998;0.34999999999999998;0.02;0.029999999999999999;97;29;0;0;0.38;0.62;0.0;0.0;0;8.996164974416388;22;6;22;2;nein
2019_02_22 10:02;8;0;1;practice;36;5;0;23;58;0;0;0.71999999999999997;0.28000000000000003;0.0;0.0;94;12;52;3;0.11;0.84999999999999998;0.029999999999999999;0.01;0;8.315658816469295;22;6;22;2;nein
2019_02_22 10:02;8;0;1;practice;37;45;0;37;40;75;23;0.54000000000000004;0.38;0.059999999999999998;0.02;1;90;0;0;0.28000000000000003;0.71999999999999997;0.0;0.0;1;12.999015344272266;22;6;22;2;nein
2019_02_22 10:02;8;0;1;practice;38;35;1;84;95;4;35;0.89000000000000001;0.050000000000000003;0.01;0.050000000000000003;5;98;0;0;0.19;0.81000000000000005;0.0;0.0;1;5.1936779329034835;22;6;22;2;nein
2019_02_22 10:02;8;0;1;practice;39;62;0;65;52;74;55;0.16;0.12;0.14999999999999999;0.56999999999999995;72;86;2;68;0.12;0.53000000000000003;0.22;0.13;1;28.749720720203186;22;6;22;2;nein
2019_02_22 10:02;8;0;1;practice;40;72;1;86;85;97;43;0.51000000000000001;0.14999999999999999;0.33000000000000002;0.0099999999999999499;72;29;10;90;0.01;0.11;0.65000000000000002;0.23000000000000001;0;13.419184621666318;22;6;22;2;nein
2019_02_22 10:02;8;0;1;practice;41;66;0;44;18;63;36;0.47999999999999998;0.10000000000000001;0.029999999999999999;0.39000000000000001;13;93;61;53;0.52000000000000002;0.45000000000000001;0.02;0.0099999999999999707;1;6.93484561913192;22;6;22;2;nein
2019_02_22 10:02;8;0;1;practice;42;21;0;59;69;0;0;0.34000000000000002;0.66000000000000003;0.0;0.0;64;18;5;24;0.14999999999999999;0.040000000000000001;0.51000000000000001;0.29999999999999999;0;4.7933970975427656;22;6;22;2;nein
2019_02_22 10:02;8;0;1;practice;43;73;0;99;88;95;28;0.83999999999999997;0.14000000000000001;0.01;0.01;90;93;10;74;0.080000000000000002;0.46000000000000002;0.34999999999999998;0.11;0;7.685247579976021;22;6;22;2;nein
2019_02_22 10:02;8;0;1;practice;44;33;1;54;82;55;71;0.56000000000000005;0.20999999999999999;0.02;0.20999999999999999;13;99;0;0;0.5;0.5;0.0;0.0;0;12.728838000398355;22;6;22;2;nein
2019_02_22 10:02;8;0;1;practice;45;20;0;32;11;0;0;0.40999999999999998;0.58999999999999997;0.0;0.0;1;86;42;65;0.45000000000000001;0.38;0.050000000000000003;0.12;0;9.276450595139977;22;6;22;2;nein
2019_02_22 10:02;8;0;1;practice;46;52;0;17;61;57;59;0.070000000000000007;0.050000000000000003;0.33000000000000002;0.55000000000000004;12;93;94;62;0.71999999999999997;0.16;0.080000000000000002;0.040000000000000001;0;6.694890470681457;22;6;22;2;nein
2019_02_22 10:02;8;0;1;practice;47;14;0;92;56;0;0;0.11;0.89000000000000001;0.0;0.0;97;31;51;4;0.58999999999999997;0.22;0.080000000000000002;0.11;1;9.756711775873555;22;6;22;2;nein
2019_02_22 10:02;8;0;1;practice;48;58;0;44;50;85;42;0.38;0.57999999999999996;0.02;0.02;37;88;19;12;0.20000000000000001;0.29999999999999999;0.46000000000000002;0.040000000000000001;0;10.537184224595876;22;6;22;2;nein
2019_02_22 10:02;8;0;1;practice;49;75;0;21;86;27;62;0.88;0.040000000000000001;0.070000000000000007;0.0099999999999999794;13;3;49;87;0.28999999999999998;0.39000000000000001;0.070000000000000007;0.25;0;7.93556214059663;22;6;22;2;nein
2019_02_22 10:02;8;0;1;practice;50;53;0;47;24;95;38;0.57999999999999996;0.28000000000000003;0.02;0.12;8;22;93;96;0.54000000000000004;0.34000000000000002;0.10000000000000001;0.0199999999999999;0;11.738017108634267;22;6;22;2;nein
2019_02_22 10:02;8;0;1;practice;51;63;0;24;82;6;96;0.91000000000000003;0.070000000000000007;0.01;0.0099999999999999603;73;10;71;22;0.31;0.51000000000000001;0.050000000000000003;0.13;0;11.45779274825054;22;6;22;2;nein
2019_02_22 10:02;8;0;1;practice;52;69;0;38;74;27;73;0.22;0.19;0.45000000000000001;0.14000000000000001;1;97;79;84;0.28000000000000003;0.45000000000000001;0.17000000000000001;0.10000000000000001;1;6.174528143032148;22;6;22;2;nein
2019_02_22 10:02;8;0;1;practice;53;3;1;20;70;0;0;0.13;0.87;0.0;0.0;95;19;80;73;0.31;0.57999999999999996;0.029999999999999999;0.080000000000000002;0;5.073596119879767;22;6;22;2;nein
2019_02_22 10:02;8;0;1;practice;54;4;1;40;59;0;0;0.19;0.81000000000000005;0.0;0.0;10;88;13;45;0.56000000000000005;0.28999999999999998;0.01;0.14000000000000001;0;6.844783938629007;22;6;22;2;nein
2019_02_22 10:02;8;0;1;practice;55;2;1;41;60;0;0;0.97999999999999998;0.02;0.0;0.0;10;14;97;6;0.54000000000000004;0.17000000000000001;0.12;0.17000000000000001;0;7.165084428615955;22;6;22;2;nein
2019_02_22 10:02;8;0;1;practice;56;60;0;39;93;27;78;0.85999999999999999;0.02;0.11;0.01;22;5;62;95;0.059999999999999998;0.56999999999999995;0.14000000000000001;0.23000000000000001;1;22.58548848385817;22;6;22;2;nein
2019_02_22 10:02;8;0;1;practice;57;23;1;99;93;0;0;0.57999999999999996;0.41999999999999998;0.0;0.0;64;10;80;81;0.13;0.55000000000000004;0.02;0.29999999999999999;0;2.4316349037680993;22;6;22;2;nein
2019_02_22 10:02;8;0;1;practice;58;42;1;23;45;91;22;0.72999999999999998;0.02;0.20000000000000001;0.050000000000000003;2;86;0;0;0.40999999999999998;0.58999999999999997;0.0;0.0;0;4.63326481369586;22;6;22;2;nein
2019_02_22 10:02;8;0;1;practice;59;8;0;20;44;0;0;0.26000000000000001;0.73999999999999999;0.0;0.0;99;3;69;24;0.20999999999999999;0.60999999999999999;0.12;0.060000000000000102;0;2.3215273004616392;22;6;22;2;nein
2019_02_22 10:02;8;0;1;practice;60;57;1;39;68;59;91;0.73999999999999999;0.040000000000000001;0.14999999999999999;0.070000000000000007;9;22;40;84;0.29999999999999999;0.32000000000000001;0.040000000000000001;0.34000000000000002;0;14.52991380894673;22;6;22;2;nein
2019_02_22 10:02;8;0;1;practice;61;26;1;24;46;74;59;0.29999999999999999;0.11;0.25;0.34000000000000002;91;6;0;0;0.28999999999999998;0.70999999999999996;0.0;0.0;0;5.353604946500127;22;6;22;2;nein
2019_02_22 10:02;8;0;1;practice;62;15;1;24;59;0;0;0.56999999999999995;0.42999999999999999;0.0;0.0;9;8;80;22;0.31;0.10000000000000001;0.55000000000000004;0.039999999999999897;0;6.87469341765609;22;6;22;2;nein
2019_02_22 10:02;8;0;1;practice;63;50;1;17;12;21;14;0.55000000000000004;0.34000000000000002;0.059999999999999998;0.049999999999999899;13;93;0;0;0.28999999999999998;0.70999999999999996;0.0;0.0;1;12.858790105075968;22;6;22;2;nein
2019_02_22 10:02;8;0;1;practice;64;64;1;44;60;96;45;0.53000000000000003;0.10000000000000001;0.029999999999999999;0.34000000000000002;88;20;43;31;0.47999999999999998;0.38;0.050000000000000003;0.089999999999999997;1;9.266350336659343;22;6;22;2;nein
2019_02_22 10:02;8;0;1;practice;65;54;1;69;80;22;55;0.27000000000000002;0.31;0.059999999999999998;0.35999999999999999;52;2;49;90;0.059999999999999998;0.33000000000000002;0.20000000000000001;0.40999999999999998;1;9.656588645797456;22;6;22;2;nein
2019_02_22 10:02;8;0;1;practice;66;1;1;67;36;0;0;0.14999999999999999;0.84999999999999998;0.0;0.0;1;4;81;77;0.25;0.54000000000000004;0.14000000000000001;0.070000000000000007;0;8.996139315635446;22;6;22;2;nein
2019_02_22 10:02;8;0;1;practice;67;68;0;39;58;40;8;0.48999999999999999;0.44;0.02;0.050000000000000003;92;83;51;2;0.57999999999999996;0.13;0.02;0.27000000000000002;1;11.738152137970246;22;6;22;2;nein
2019_02_22 10:02;8;0;1;practice;68;43;0;11;17;21;44;0.16;0.46000000000000002;0.25;0.13;2;66;0;0;0.44;0.56000000000000005;0.0;0.0;0;7.10495082975649;22;6;22;2;nein
2019_02_22 10:02;8;0;1;practice;69;48;0;20;25;24;35;0.32000000000000001;0.13;0.48999999999999999;0.059999999999999901;44;76;0;0;0.29999999999999999;0.69999999999999996;0.0;0.0;1;7.435185116880348;22;6;22;2;nein
2019_02_22 10:02;8;0;1;practice;70;34;0;57;23;66;79;0.56000000000000005;0.23000000000000001;0.13;0.079999999999999905;85;9;0;0;0.56000000000000005;0.44;0.0;0.0;0;10.927465832927737;22;6;22;2;nein
2019_02_22 10:02;8;0;1;practice;71;29;1;66;40;92;49;0.46999999999999997;0.10000000000000001;0.34000000000000002;0.089999999999999997;8;94;0;0;0.44;0.56000000000000005;0.0;0.0;0;7.014774005473555;22;6;22;2;nein
2019_02_22 10:02;8;0;1;practice;72;17;0;27;61;0;0;0.68999999999999995;0.31;0.0;0.0;3;91;69;43;0.29999999999999999;0.33000000000000002;0.27000000000000002;0.099999999999999895;1;17.892402466963176;22;6;22;2;nein
2019_02_22 10:02;8;0;1;practice;73;51;1;38;13;51;84;0.91000000000000003;0.070000000000000007;0.01;0.0099999999999999603;4;89;35;16;0.80000000000000004;0.089999999999999997;0.059999999999999998;0.050000000000000003;0;5.0233658483548425;22;6;22;2;nein
2019_02_22 10:02;8;0;1;practice;74;37;1;50;66;99;12;0.26000000000000001;0.71999999999999997;0.01;0.01;22;90;0;0;0.37;0.63;0.0;0.0;0;9.236326034585545;22;6;22;2;nein
2019_02_22 10:02;8;0;1;practice;75;24;1;19;38;0;0;0.89000000000000001;0.11;0.0;0.0;45;76;95;57;0.29999999999999999;0.22;0.40000000000000002;0.080000000000000002;1;10.557352347344931;22;6;22;2;nein
2019_02_22 10:02;8;1;1;timed;1;12;1;53;68;0;0;0.31;0.68999999999999995;0.0;0.0;69;54;97;29;0.25;0.20999999999999999;0.20000000000000001;0.34000000000000002;1;5.201720357132217;22;6;22;2;nein
2019_02_22 10:02;8;1;1;timed;2;41;0;99;40;0;0;0.89000000000000001;0.11;0.0;0.0;1;67;52;46;0.51000000000000001;0.38;0.029999999999999999;0.080000000000000002;0;3.7225259402257507;22;6;22;2;nein
2019_02_22 10:02;8;1;1;timed;3;33;1;27;70;0;0;0.88;0.12;0.0;0.0;93;3;77;16;0.080000000000000002;0.40000000000000002;0.5;0.02;NA;5.9140174242375;22;6;22;2;nein
2019_02_22 10:02;8;1;1;timed;4;107;0;52;48;13;63;0.68000000000000005;0.19;0.050000000000000003;0.079999999999999905;54;91;33;3;0.19;0.17999999999999999;0.33000000000000002;0.29999999999999999;0;2.651974876204804;22;6;22;2;nein
2019_02_22 10:02;8;1;1;timed;5;61;0;43;18;39;70;0.75;0.089999999999999997;0.089999999999999997;0.070000000000000007;16;66;0;0;0.64000000000000001;0.35999999999999999;0.0;0.0;0;2.952122638711444;22;6;22;2;nein
2019_02_22 10:02;8;1;1;timed;6;38;1;40;70;0;0;0.53000000000000003;0.46999999999999997;0.0;0.0;97;90;6;96;0.56999999999999995;0.070000000000000007;0.27000000000000002;0.089999999999999997;0;1.921406191015194;22;6;22;2;nein
2019_02_22 10:02;8;1;1;timed;7;37;0;14;98;0;0;0.93000000000000005;0.070000000000000007;0.0;0.0;41;2;87;66;0.17999999999999999;0.48999999999999999;0.32000000000000001;0.010000000000000101;0;3.912768483061882;22;6;22;2;nein
2019_02_22 10:02;8;1;1;timed;8;45;1;97;87;0;0;0.71999999999999997;0.28000000000000003;0.0;0.0;96;11;14;4;0.25;0.029999999999999999;0.14000000000000001;0.57999999999999996;0;3.9928466525389013;22;6;22;2;nein
2019_02_22 10:02;8;1;1;timed;9;5;1;70;5;0;0;0.98999999999999999;0.01;0.0;0.0;92;87;47;1;0.44;0.02;0.16;0.38;0;2.8720544120114937;22;6;22;2;nein
2019_02_22 10:02;8;1;1;timed;10;130;1;37;79;23;95;0.94999999999999996;0.029999999999999999;0.01;0.01;94;4;58;49;0.46000000000000002;0.5;0.029999999999999999;0.01;0;4.44313965978381;22;6;22;2;nein
2019_02_22 10:02;8;1;1;timed;11;72;0;63;82;51;61;0.01;0.96999999999999997;0.01;0.01;92;12;0;0;0.89000000000000001;0.11;0.0;0.0;1;4.473043365584999;22;6;22;2;nein
2019_02_22 10:02;8;1;1;timed;12;119;1;60;58;11;18;0.25;0.72999999999999998;0.01;0.01;96;23;42;85;0.44;0.48999999999999999;0.059999999999999998;0.010000000000000101;0;3.2422791925564525;22;6;22;2;nein
2019_02_22 10:02;8;1;1;timed;13;63;0;56;78;42;36;0.93000000000000005;0.040000000000000001;0.01;0.0199999999999999;2;72;0;0;0.32000000000000001;0.68000000000000005;0.0;0.0;1;3.6726674002939035;22;6;22;2;nein
2019_02_22 10:02;8;1;1;timed;14;126;1;16;55;51;42;0.68999999999999995;0.23999999999999999;0.01;0.060000000000000102;66;4;1;5;0.46999999999999997;0.38;0.089999999999999997;0.059999999999999998;0;3.892639810689616;22;6;22;2;nein
2019_02_22 10:02;8;1;1;timed;15;2;1;59;32;0;0;0.080000000000000002;0.92000000000000004;0.0;0.0;33;38;85;1;0.28999999999999998;0.050000000000000003;0.070000000000000007;0.58999999999999997;1;3.2723246631239817;22;6;22;2;nein
2019_02_22 10:02;8;1;1;timed;16;83;1;17;12;7;41;0.65000000000000002;0.19;0.089999999999999997;0.070000000000000007;6;84;0;0;0.72999999999999998;0.27000000000000002;0.0;0.0;1;4.192858455578971;22;6;22;2;nein
2019_02_22 10:02;8;1;1;timed;17;8;0;50;36;0;0;0.080000000000000002;0.92000000000000004;0.0;0.0;6;19;84;29;0.54000000000000004;0.070000000000000007;0.17000000000000001;0.22;0;2.5918550689402764;22;6;22;2;nein
2019_02_22 10:02;8;1;1;timed;18;44;1;79;74;0;0;0.71999999999999997;0.28000000000000003;0.0;0.0;3;67;15;36;0.41999999999999998;0.53000000000000003;0.02;0.029999999999999999;0;3.7525451105429966;22;6;22;2;nein
2019_02_22 10:02;8;1;1;timed;19;60;0;64;59;57;96;0.83999999999999997;0.13;0.02;0.01;83;6;0;0;0.54000000000000004;0.46000000000000002;0.0;0.0;0;2.711816606427419;22;6;22;2;nein
2019_02_22 10:02;8;1;1;timed;20;73;0;65;68;70;47;0.25;0.23000000000000001;0.20999999999999999;0.31;27;95;0;0;0.45000000000000001;0.55000000000000004;0.0;0.0;1;2.8418405556922153;22;6;22;2;nein
2019_02_22 10:02;8;1;1;timed;21;106;0;85;69;22;61;0.10000000000000001;0.58999999999999997;0.17999999999999999;0.13;20;79;91;84;0.55000000000000004;0.14999999999999999;0.26000000000000001;0.039999999999999897;1;4.493060422260896;22;6;22;2;nein
2019_02_22 10:02;8;1;1;timed;22;55;1;74;55;47;48;0.60999999999999999;0.31;0.070000000000000007;0.01;97;6;0;0;0.42999999999999999;0.56999999999999995;0.0;0.0;1;2.9920066481899994;22;6;22;2;nein
2019_02_22 10:02;8;1;1;timed;23;148;0;37;63;55;10;0.72999999999999998;0.070000000000000007;0.029999999999999999;0.17000000000000001;80;14;23;70;0.46999999999999997;0.10000000000000001;0.23000000000000001;0.20000000000000001;1;3.532547682835684;22;6;22;2;nein
2019_02_22 10:02;8;1;1;timed;24;128;1;70;49;27;54;0.27000000000000002;0.53000000000000003;0.02;0.17999999999999999;72;97;6;20;0.29999999999999999;0.39000000000000001;0.22;0.0899999999999999;1;3.532478404125868;22;6;22;2;nein
2019_02_22 10:02;8;1;1;timed;25;133;0;59;88;60;36;0.67000000000000004;0.070000000000000007;0.12;0.14000000000000001;7;91;66;61;0.25;0.68999999999999995;0.01;0.0500000000000001;1;3.612558498011822;22;6;22;2;nein
2019_02_22 10:02;8;1;1;timed;26;6;1;9;51;0;0;0.14999999999999999;0.84999999999999998;0.0;0.0;6;40;50;73;0.42999999999999999;0.26000000000000001;0.059999999999999998;0.25;0;2.3517174224089104;22;6;22;2;nein
2019_02_22 10:02;8;1;1;timed;27;66;0;89;23;27;15;0.070000000000000007;0.54000000000000004;0.17000000000000001;0.22;9;73;0;0;0.72999999999999998;0.27000000000000002;0.0;0.0;0;3.1921611781999673;22;6;22;2;nein
2019_02_22 10:02;8;1;1;timed;28;9;1;61;69;0;0;0.93999999999999995;0.060000000000000102;0.0;0.0;18;93;72;16;0.40999999999999998;0.34999999999999998;0.089999999999999997;0.14999999999999999;0;2.912099751078131;22;6;22;2;nein
2019_02_22 10:02;8;1;1;timed;29;7;1;49;29;0;0;0.95999999999999996;0.040000000000000001;0.0;0.0;23;99;64;25;0.68999999999999995;0.12;0.059999999999999998;0.13;0;2.1614530696078873;22;6;22;2;nein
2019_02_22 10:02;8;1;1;timed;30;18;1;68;50;0;0;0.029999999999999999;0.96999999999999997;0.0;0.0;34;64;15;89;0.65000000000000002;0.029999999999999999;0.050000000000000003;0.27000000000000002;0;2.7118352090428743;22;6;22;2;nein
2019_02_22 10:02;8;1;1;timed;31;22;0;32;55;0;0;0.39000000000000001;0.60999999999999999;0.0;0.0;93;72;59;22;0.20000000000000001;0.11;0.14000000000000001;0.55000000000000004;0;4.553081122481672;22;6;22;2;nein
2019_02_22 10:02;8;1;1;timed;32;121;0;42;51;47;70;0.41999999999999998;0.17000000000000001;0.23999999999999999;0.17000000000000001;21;76;48;9;0.14999999999999999;0.34000000000000002;0.40999999999999998;0.10000000000000001;1;4.412992516295162;22;6;22;2;nein
2019_02_22 10:02;8;1;1;timed;33;64;1;48;39;34;19;0.46000000000000002;0.5;0.02;0.02;13;92;0;0;0.68999999999999995;0.31;0.0;0.0;0;4.192952751599478;22;6;22;2;nein
2019_02_22 10:02;8;1;1;timed;34;16;1;64;53;0;0;0.65000000000000002;0.34999999999999998;0.0;0.0;29;17;81;46;0.10000000000000001;0.01;0.44;0.45000000000000001;0;3.3122221434641688;22;6;22;2;nein
2019_02_22 10:02;8;1;1;timed;35;67;1;44;42;8;89;0.88;0.070000000000000007;0.029999999999999999;0.02;10;63;0;0;0.39000000000000001;0.60999999999999999;0.0;0.0;0;3.5925026324312057;22;6;22;2;nein
2019_02_22 10:02;8;1;1;timed;36;48;0;13;32;0;0;0.90000000000000002;0.10000000000000001;0.0;0.0;24;99;84;94;0.62;0.14999999999999999;0.20000000000000001;0.029999999999999999;0;3.1922731146323713;22;6;22;2;nein
2019_02_22 10:02;8;1;1;timed;37;28;1;47;30;0;0;0.97999999999999998;0.02;0.0;0.0;55;48;77;13;0.070000000000000007;0.26000000000000001;0.42999999999999999;0.23999999999999999;0;1.8712583483247727;22;6;22;2;nein
2019_02_22 10:02;8;1;1;timed;38;65;1;75;64;59;52;0.59999999999999998;0.22;0.14000000000000001;0.040000000000000001;1;99;0;0;0.35999999999999999;0.64000000000000001;0.0;0.0;1;1.9412410703434944;22;6;22;2;nein
2019_02_22 10:02;8;1;1;timed;39;120;1;64;40;48;51;0.19;0.02;0.070000000000000007;0.71999999999999997;97;9;79;94;0.23000000000000001;0.54000000000000004;0.01;0.22;1;2.201482371936436;22;6;22;2;nein
2019_02_22 10:02;8;1;1;timed;40;88;0;77;13;12;7;0.12;0.19;0.66000000000000003;0.029999999999999898;94;2;0;0;0.40999999999999998;0.58999999999999997;0.0;0.0;1;1.6712250560567554;22;6;22;2;nein
2019_02_22 10:02;8;1;1;timed;41;116;0;53;65;43;99;0.56999999999999995;0.37;0.050000000000000003;0.010000000000000101;57;72;11;87;0.67000000000000004;0.13;0.14999999999999999;0.050000000000000003;0;2.611770131959929;22;6;22;2;nein
2019_02_22 10:02;8;1;1;timed;42;110;0;47;44;23;52;0.13;0.27000000000000002;0.040000000000000001;0.56000000000000005;99;2;30;22;0.28999999999999998;0.5;0.11;0.10000000000000001;1;3.092073008213447;22;6;22;2;nein
2019_02_22 10:02;8;1;1;timed;43;11;1;17;36;0;0;0.14000000000000001;0.85999999999999999;0.0;0.0;19;41;34;95;0.88;0.02;0.050000000000000003;0.050000000000000003;0;3.06207211977744;22;6;22;2;nein
2019_02_22 10:02;8;1;1;timed;44;13;0;52;56;0;0;0.46999999999999997;0.53000000000000003;0.0;0.0;94;71;27;2;0.089999999999999997;0.31;0.57999999999999996;0.020000000000000101;1;3.3522735764909157;22;6;22;2;nein
2019_02_22 10:02;8;1;1;timed;45;39;0;14;33;0;0;0.78000000000000003;0.22;0.0;0.0;93;84;1;25;0.14000000000000001;0.23999999999999999;0.39000000000000001;0.23000000000000001;1;4.673191480899732;22;6;22;2;nein
2019_02_22 10:02;8;1;1;timed;46;123;1;26;24;51;92;0.72999999999999998;0.16;0.070000000000000007;0.040000000000000001;6;90;82;49;0.64000000000000001;0.25;0.050000000000000003;0.059999999999999998;1;2.881948117303182;22;6;22;2;nein
2019_02_22 10:02;8;1;1;timed;47;101;1;30;96;61;45;0.65000000000000002;0.14000000000000001;0.11;0.10000000000000001;3;98;63;89;0.75;0.19;0.040000000000000001;0.02;0;2.891941571107054;22;6;22;2;nein
2019_02_22 10:02;8;1;1;timed;48;109;0;75;28;16;56;0.19;0.070000000000000007;0.059999999999999998;0.68000000000000005;3;50;98;44;0.5;0.02;0.34999999999999998;0.13;0;3.7225823895441863;22;6;22;2;nein
2019_02_22 10:02;8;1;1;timed;49;24;0;35;27;0;0;0.070000000000000007;0.93000000000000005;0.0;0.0;62;3;81;95;0.35999999999999999;0.55000000000000004;0.01;0.080000000000000002;1;4.0327203985061715;22;6;22;2;nein
2019_02_22 10:02;8;1;1;timed;50;97;1;17;33;32;74;0.94999999999999996;0.01;0.029999999999999999;0.01;76;23;0;0;0.33000000000000002;0.67000000000000004;0.0;0.0;1;3.512613375730325;22;6;22;2;nein
2019_02_22 10:02;8;1;1;timed;51;135;0;48;60;41;51;0.14000000000000001;0.40000000000000002;0.089999999999999997;0.37;94;1;85;65;0.64000000000000001;0.29999999999999999;0.01;0.050000000000000003;1;3.012160979345026;22;6;22;2;nein
2019_02_22 10:02;8;1;1;timed;52;96;0;51;54;39;7;0.17000000000000001;0.26000000000000001;0.10000000000000001;0.46999999999999997;24;96;0;0;0.28000000000000003;0.71999999999999997;0.0;0.0;1;3.592501028757397;22;6;22;2;nein
2019_02_22 10:02;8;1;1;timed;53;75;1;67;80;36;81;0.81999999999999995;0.080000000000000002;0.059999999999999998;0.040000000000000001;3;97;0;0;0.32000000000000001;0.68000000000000005;0.0;0.0;1;3.592408657144915;22;6;22;2;nein
2019_02_22 10:02;8;1;1;timed;54;93;0;87;81;73;98;0.80000000000000004;0.040000000000000001;0.14999999999999999;0.0099999999999999499;5;71;0;0;0.51000000000000001;0.48999999999999999;0.0;0.0;0;3.312409131831373;22;6;22;2;nein
2019_02_22 10:02;8;1;1;timed;55;47;1;2;40;0;0;0.45000000000000001;0.55000000000000004;0.0;0.0;93;89;11;56;0.58999999999999997;0.070000000000000007;0.28000000000000003;0.059999999999999998;1;2.8018766832565234;22;6;22;2;nein
2019_02_22 10:02;8;1;1;timed;56;114;1;57;39;79;97;0.77000000000000002;0.02;0.13;0.080000000000000002;92;36;6;1;0.54000000000000004;0.12;0.13;0.20999999999999999;1;4.253253132535974;22;6;22;2;nein
2019_02_22 10:02;8;1;1;timed;57;17;1;81;52;0;0;0.059999999999999998;0.93999999999999995;0.0;0.0;34;3;69;41;0.01;0.22;0.75;0.02;0;2.8719049496112348;22;6;22;2;nein
2019_02_22 10:02;8;1;1;timed;58;111;1;51;36;48;27;0.93000000000000005;0.01;0.01;0.049999999999999899;31;78;30;53;0.55000000000000004;0.16;0.029999999999999999;0.26000000000000001;0;4.172866416215584;22;6;22;2;nein
2019_02_22 10:02;8;1;1;timed;59;104;1;55;85;93;3;0.87;0.02;0.089999999999999997;0.02;1;2;90;8;0.35999999999999999;0.070000000000000007;0.40000000000000002;0.17000000000000001;0;2.7718652105741057;22;6;22;2;nein
2019_02_22 10:02;8;1;1;timed;60;134;1;57;48;50;55;0.02;0.62;0.17999999999999999;0.17999999999999999;80;96;15;18;0.23999999999999999;0.35999999999999999;0.33000000000000002;0.070000000000000007;1;2.1013544308380006;22;6;22;2;nein
2019_02_22 10:02;8;1;1;timed;61;23;1;54;40;0;0;0.93000000000000005;0.070000000000000007;0.0;0.0;36;23;71;86;0.02;0.41999999999999998;0.19;0.37;0;1.6310860624389534;22;6;22;2;nein
2019_02_22 10:02;8;1;1;timed;62;113;1;85;65;39;64;0.44;0.34000000000000002;0.13;0.089999999999999997;87;2;4;35;0.67000000000000004;0.17000000000000001;0.11;0.049999999999999899;1;3.522519910412484;22;6;22;2;nein
2019_02_22 10:02;8;1;1;timed;63;40;0;45;49;0;0;0.68999999999999995;0.31;0.0;0.0;2;92;65;73;0.23999999999999999;0.59999999999999998;0.11;0.050000000000000003;0;2.1515885511798842;22;6;22;2;nein
2019_02_22 10:02;8;1;1;timed;64;82;0;78;66;30;27;0.28999999999999998;0.58999999999999997;0.080000000000000002;0.040000000000000001;90;6;0;0;0.82999999999999996;0.17000000000000001;0.0;0.0;0;2.151562250929601;22;6;22;2;nein
2019_02_22 10:02;8;1;1;timed;65;115;0;50;28;61;79;0.83999999999999997;0.040000000000000001;0.059999999999999998;0.059999999999999998;1;26;97;55;0.45000000000000001;0.080000000000000002;0.40999999999999998;0.060000000000000102;1;3.2521209388169154;22;6;22;2;nein
2019_02_22 10:02;8;1;1;timed;66;127;0;89;26;62;79;0.02;0.28999999999999998;0.53000000000000003;0.16;96;6;60;13;0.53000000000000003;0.25;0.17000000000000001;0.050000000000000003;1;2.091525193234702;22;6;22;2;nein
2019_02_22 10:02;8;1;1;timed;67;68;0;84;27;55;62;0.01;0.050000000000000003;0.40999999999999998;0.53000000000000003;9;82;0;0;0.37;0.63;0.0;0.0;1;1.5009835331566137;22;6;22;2;nein
2019_02_22 10:02;8;1;1;timed;68;35;1;33;37;0;0;0.88;0.12;0.0;0.0;63;4;79;98;0.16;0.46000000000000002;0.17000000000000001;0.20999999999999999;0;1.6312040928323768;22;6;22;2;nein
2019_02_22 10:02;8;1;1;timed;69;70;0;66;55;69;50;0.22;0.29999999999999999;0.29999999999999999;0.17999999999999999;2;90;0;0;0.34000000000000002;0.66000000000000003;0.0;0.0;1;1.7511691584013533;22;6;22;2;nein
2019_02_22 10:02;8;1;1;timed;70;147;0;39;43;76;28;0.14000000000000001;0.10000000000000001;0.10000000000000001;0.66000000000000003;6;31;68;85;0.27000000000000002;0.20000000000000001;0.22;0.31;1;2.811882645715741;22;6;22;2;nein
2019_02_22 10:02;8;1;1;timed;71;95;1;93;88;68;85;0.83999999999999997;0.14000000000000001;0.01;0.01;2;82;0;0;0.41999999999999998;0.57999999999999996;0.0;0.0;0;1.8614284692521323;22;6;22;2;nein
2019_02_22 10:02;8;1;1;timed;72;136;0;29;67;14;75;0.46000000000000002;0.29999999999999999;0.20999999999999999;0.0300000000000001;70;86;1;85;0.31;0.39000000000000001;0.27000000000000002;0.029999999999999898;1;2.371779381950546;22;6;22;2;nein
2019_02_22 10:02;8;1;1;timed;73;85;0;31;22;82;50;0.11;0.69999999999999996;0.01;0.17999999999999999;3;99;0;0;0.62;0.38;0.0;0.0;1;2.2715154493125738;22;6;22;2;nein
2019_02_22 10:02;8;1;1;timed;74;140;1;36;32;26;27;0.39000000000000001;0.14999999999999999;0.19;0.27000000000000002;44;3;99;25;0.29999999999999999;0.34000000000000002;0.34000000000000002;0.0199999999999999;0;2.3315711096238374;22;6;22;2;nein
2019_02_22 10:02;8;1;1;timed;75;54;1;44;79;78;52;0.79000000000000004;0.19;0.01;0.0099999999999999603;96;1;0;0;0.28000000000000003;0.71999999999999997;0.0;0.0;1;1.67121639621746;22;6;22;2;nein
2019_02_22 10:02;8;2;1;control;1;120;1;64;40;48;51;0.19;0.02;0.070000000000000007;0.71999999999999997;97;9;79;94;0.23000000000000001;0.54000000000000004;0.01;0.22;0;8.573049106737926;22;6;22;2;nein
2019_02_22 10:02;8;2;1;control;2;64;1;48;39;34;19;0.46000000000000002;0.5;0.02;0.02;13;92;0;0;0.68999999999999995;0.31;0.0;0.0;0;3.3123549276569975;22;6;22;2;nein
2019_02_22 10:02;8;2;1;control;3;109;0;75;28;16;56;0.19;0.070000000000000007;0.059999999999999998;0.68000000000000005;3;50;98;44;0.5;0.02;0.34999999999999998;0.13;0;11.497927893051383;22;6;22;2;nein
2019_02_22 10:02;8;2;1;control;4;41;0;99;40;0;0;0.89000000000000001;0.11;0.0;0.0;1;67;52;46;0.51000000000000001;0.38;0.029999999999999999;0.080000000000000002;0;6.2742509961217365;22;6;22;2;nein
2019_02_22 10:02;8;2;1;control;5;104;0;55;85;93;3;0.87;0.02;0.089999999999999997;0.02;1;2;90;8;0.35999999999999999;0.070000000000000007;0.40000000000000002;0.17000000000000001;0;8.295696605438934;22;6;22;2;nein
2019_02_22 10:02;8;2;1;control;6;11;1;17;36;0;0;0.14000000000000001;0.85999999999999999;0.0;0.0;19;41;34;95;0.88;0.02;0.050000000000000003;0.050000000000000003;0;8.395736985946314;22;6;22;2;nein
2019_02_22 10:02;8;2;1;control;7;146;0;25;5;64;35;0.94999999999999996;0.02;0.01;0.02;47;97;12;79;0.20999999999999999;0.029999999999999999;0.02;0.73999999999999999;1;7.244940970370408;22;6;22;2;nein
2019_02_22 10:02;8;2;1;control;8;105;1;49;74;63;58;0.84999999999999998;0.080000000000000002;0.02;0.050000000000000003;97;5;86;8;0.25;0.52000000000000002;0.070000000000000007;0.16;0;5.603810457300824;22;6;22;2;nein
2019_02_22 10:02;8;2;1;control;9;4;1;40;43;0;0;0.58999999999999997;0.40999999999999998;0.0;0.0;2;33;88;81;0.69999999999999996;0.14000000000000001;0.13;0.029999999999999999;0;6.434415674179945;22;6;22;2;nein
2019_02_22 10:02;8;2;1;control;10;94;0;84;86;93;39;0.78000000000000003;0.20000000000000001;0.01;0.0099999999999999603;9;83;0;0;0.46999999999999997;0.53000000000000003;0.0;0.0;0;5.033558157712832;22;6;22;2;nein
2019_02_22 10:02;8;2;1;control;11;121;1;42;51;47;70;0.41999999999999998;0.17000000000000001;0.23999999999999999;0.17000000000000001;21;76;48;9;0.14999999999999999;0.34000000000000002;0.40999999999999998;0.10000000000000001;0;18.94311897239095;22;6;22;2;nein
2019_02_22 10:02;8;2;1;control;12;22;1;32;55;0;0;0.39000000000000001;0.60999999999999999;0.0;0.0;93;72;59;22;0.20000000000000001;0.11;0.14000000000000001;0.55000000000000004;0;2.6920631937291546;22;6;22;2;nein
2019_02_22 10:02;8;2;1;control;13;131;0;83;41;81;88;0.23999999999999999;0.58999999999999997;0.10000000000000001;0.070000000000000007;82;97;4;17;0.26000000000000001;0.46999999999999997;0.11;0.16;1;6.014240944294215;22;6;22;2;nein
2019_02_22 10:02;8;2;1;control;14;16;0;64;53;0;0;0.65000000000000002;0.34999999999999998;0.0;0.0;29;17;81;46;0.10000000000000001;0.01;0.44;0.45000000000000001;0;5.233541094622524;22;6;22;2;nein
2019_02_22 10:02;8;2;1;control;15;127;0;89;26;62;79;0.02;0.28999999999999998;0.53000000000000003;0.16;96;6;60;13;0.53000000000000003;0.25;0.17000000000000001;0.050000000000000003;0;7.815317073577717;22;6;22;2;nein
2019_02_22 10:02;8;2;1;control;16;12;1;53;68;0;0;0.31;0.68999999999999995;0.0;0.0;69;54;97;29;0.25;0.20999999999999999;0.20000000000000001;0.34000000000000002;0;7.645189090784697;22;6;22;2;nein
2019_02_22 10:02;8;2;1;control;17;122;1;35;58;25;31;0.81999999999999995;0.070000000000000007;0.080000000000000002;0.029999999999999999;18;64;68;89;0.63;0.17000000000000001;0.11;0.089999999999999997;0;5.814074547098244;22;6;22;2;nein
2019_02_22 10:02;8;2;1;control;18;138;0;8;20;43;51;0.38;0.5;0.02;0.10000000000000001;72;82;70;1;0.39000000000000001;0.050000000000000003;0.070000000000000007;0.48999999999999999;1;9.966801706694241;22;6;22;2;nein
2019_02_22 10:02;8;2;1;control;19;123;1;26;24;51;92;0.72999999999999998;0.16;0.070000000000000007;0.040000000000000001;6;90;82;49;0.64000000000000001;0.25;0.050000000000000003;0.059999999999999998;1;5.493873164154138;22;6;22;2;nein
2019_02_22 10:02;8;2;1;control;20;36;1;70;17;0;0;0.33000000000000002;0.67000000000000004;0.0;0.0;84;1;12;88;0.22;0.27000000000000002;0.14000000000000001;0.37;0;3.2221777826380276;22;6;22;2;nein
2019_02_22 10:02;8;2;1;control;21;87;1;10;30;63;4;0.56999999999999995;0.12;0.16;0.14999999999999999;86;2;0;0;0.42999999999999999;0.56999999999999995;0.0;0.0;0;6.204231710340537;22;6;22;2;nein
2019_02_22 10:02;8;2;1;control;22;40;0;45;49;0;0;0.68999999999999995;0.31;0.0;0.0;2;92;65;73;0.23999999999999999;0.59999999999999998;0.11;0.050000000000000003;1;4.112830962194494;22;6;22;2;nein
2019_02_22 10:02;8;2;1;control;23;91;0;74;81;86;48;0.93000000000000005;0.02;0.01;0.039999999999999897;7;64;0;0;0.13;0.87;0.0;0.0;0;5.313641074064435;22;6;22;2;nein
2019_02_22 10:02;8;2;1;control;24;108;0;48;72;39;70;0.14000000000000001;0.66000000000000003;0.02;0.17999999999999999;81;44;98;8;0.59999999999999998;0.029999999999999999;0.050000000000000003;0.32000000000000001;0;3.972834086151124;22;6;22;2;nein
2019_02_22 10:02;8;2;1;control;25;50;1;15;20;0;0;0.82999999999999996;0.17000000000000001;0.0;0.0;97;18;88;87;0.56999999999999995;0.39000000000000001;0.01;0.029999999999999999;1;3.5225776426705124;22;6;22;2;nein
2019_02_22 10:02;8;2;1;control;26;62;1;12;45;16;50;0.20999999999999999;0.76000000000000001;0.02;0.01;92;15;0;0;0.20999999999999999;0.79000000000000004;0.0;0.0;1;4.313043865930922;22;6;22;2;nein
2019_02_22 10:02;8;2;1;control;27;137;0;71;22;28;17;0.25;0.46000000000000002;0.050000000000000003;0.23999999999999999;3;98;92;69;0.42999999999999999;0.23999999999999999;0.20000000000000001;0.13;1;6.454544667287337;22;6;22;2;nein
2019_02_22 10:02;8;2;1;control;28;19;0;22;53;0;0;0.13;0.87;0.0;0.0;4;93;96;65;0.46999999999999997;0.059999999999999998;0.26000000000000001;0.20999999999999999;1;3.872964336539553;22;6;22;2;nein
2019_02_22 10:02;8;2;1;control;29;147;0;39;43;76;28;0.14000000000000001;0.10000000000000001;0.10000000000000001;0.66000000000000003;6;31;68;85;0.27000000000000002;0.20000000000000001;0.22;0.31;1;6.214362117889323;22;6;22;2;nein
2019_02_22 10:02;8;2;1;control;30;27;1;44;26;0;0;0.35999999999999999;0.64000000000000001;0.0;0.0;63;10;3;5;0.58999999999999997;0.19;0.14999999999999999;0.070000000000000007;0;2.9622026909009946;22;6;22;2;nein
2019_02_22 10:02;8;2;1;control;31;47;0;2;40;0;0;0.45000000000000001;0.55000000000000004;0.0;0.0;93;89;11;56;0.58999999999999997;0.070000000000000007;0.28000000000000003;0.059999999999999998;0;3.532410087621429;22;6;22;2;nein
2019_02_22 10:02;8;2;1;control;32;81;0;67;38;52;65;0.27000000000000002;0.35999999999999999;0.01;0.35999999999999999;2;77;0;0;0.14000000000000001;0.85999999999999999;0.0;0.0;1;2.3515698844166764;22;6;22;2;nein
2019_02_22 10:02;8;2;1;control;33;101;0;30;96;61;45;0.65000000000000002;0.14000000000000001;0.11;0.10000000000000001;3;98;63;89;0.75;0.19;0.040000000000000001;0.02;1;2.011350482593116;22;6;22;2;nein
2019_02_22 10:02;8;2;1;control;34;8;1;50;36;0;0;0.080000000000000002;0.92000000000000004;0.0;0.0;6;19;84;29;0.54000000000000004;0.070000000000000007;0.17000000000000001;0.22;0;9.166389498373974;22;6;22;2;nein
2019_02_22 10:02;8;2;1;control;35;35;1;33;37;0;0;0.88;0.12;0.0;0.0;63;4;79;98;0.16;0.46000000000000002;0.17000000000000001;0.20999999999999999;1;6.87483133360638;22;6;22;2;nein
2019_02_22 10:02;8;2;1;control;36;67;0;44;42;8;89;0.88;0.070000000000000007;0.029999999999999999;0.02;10;63;0;0;0.39000000000000001;0.60999999999999999;0.0;0.0;1;4.753348230394295;22;6;22;2;nein
2019_02_22 10:02;8;2;1;control;37;139;0;44;31;16;8;0.79000000000000004;0.070000000000000007;0.13;0.0099999999999999499;92;58;2;88;0.55000000000000004;0.070000000000000007;0.34000000000000002;0.039999999999999897;1;10.577363630794935;22;6;22;2;nein
2019_02_22 10:02;8;2;1;control;38;2;1;59;32;0;0;0.080000000000000002;0.92000000000000004;0.0;0.0;33;38;85;1;0.28999999999999998;0.050000000000000003;0.070000000000000007;0.58999999999999997;0;4.19284947500546;22;6;22;2;nein
2019_02_22 10:02;8;2;1;control;39;14;1;36;40;0;0;0.54000000000000004;0.46000000000000002;0.0;0.0;99;70;1;11;0.16;0.089999999999999997;0.080000000000000002;0.67000000000000004;0;3.3723560630578504;22;6;22;2;nein
2019_02_22 10:02;8;2;1;control;40;49;1;21;30;0;0;0.53000000000000003;0.46999999999999997;0.0;0.0;93;99;89;25;0.44;0.02;0.11;0.42999999999999999;1;8.616003510121118;22;6;22;2;nein
2019_02_22 10:02;8;2;1;control;41;73;0;65;68;70;47;0.25;0.23000000000000001;0.20999999999999999;0.31;27;95;0;0;0.45000000000000001;0.55000000000000004;0.0;0.0;1;12.398468683938518;22;6;22;2;nein
2019_02_22 10:02;8;2;1;control;42;134;0;57;48;50;55;0.02;0.62;0.17999999999999999;0.17999999999999999;80;96;15;18;0.23999999999999999;0.35999999999999999;0.33000000000000002;0.070000000000000007;0;5.693875345150445;22;6;22;2;nein
2019_02_22 10:02;8;2;1;control;43;92;0;90;86;65;94;0.16;0.34000000000000002;0.28000000000000003;0.22;79;22;0;0;0.35999999999999999;0.64000000000000001;0.0;0.0;0;3.842747593606873;22;6;22;2;nein
2019_02_22 10:02;8;2;1;control;44;54;1;44;79;78;52;0.79000000000000004;0.19;0.01;0.0099999999999999603;96;1;0;0;0.28000000000000003;0.71999999999999997;0.0;0.0;0;1.6712279426692476;22;6;22;2;nein
2019_02_22 10:02;8;2;1;control;45;143;1;88;44;56;73;0.95999999999999996;0.02;0.01;0.01;20;3;87;32;0.19;0.40000000000000002;0.28000000000000003;0.13;0;4.083086020102201;22;6;22;2;nein
2019_02_22 10:02;8;2;1;control;46;107;1;52;48;13;63;0.68000000000000005;0.19;0.050000000000000003;0.079999999999999905;54;91;33;3;0.19;0.17999999999999999;0.33000000000000002;0.29999999999999999;1;3.933548567742946;22;6;22;2;nein
2019_02_22 10:02;8;2;1;control;47;86;0;56;30;57;88;0.20000000000000001;0.35999999999999999;0.080000000000000002;0.35999999999999999;98;2;0;0;0.77000000000000002;0.23000000000000001;0.0;0.0;1;3.0722054139378088;22;6;22;2;nein
2019_02_22 10:02;8;2;1;control;48;20;0;44;40;0;0;0.91000000000000003;0.089999999999999997;0.0;0.0;29;5;80;99;0.25;0.40000000000000002;0.26000000000000001;0.089999999999999997;1;1.6310305753240755;22;6;22;2;nein
2019_02_22 10:02;8;2;1;control;49;110;0;47;44;23;52;0.13;0.27000000000000002;0.040000000000000001;0.56000000000000005;99;2;30;22;0.28999999999999998;0.5;0.11;0.10000000000000001;1;1.4510711097836975;22;6;22;2;nein
2019_02_22 10:02;8;2;1;control;50;63;0;56;78;42;36;0.93000000000000005;0.040000000000000001;0.01;0.0199999999999999;2;72;0;0;0.32000000000000001;0.68000000000000005;0.0;0.0;0;4.833267315428202;22;6;22;2;nein
2019_02_22 10:02;8;2;1;control;51;132;0;27;70;21;19;0.64000000000000001;0.23000000000000001;0.029999999999999999;0.10000000000000001;11;85;55;6;0.39000000000000001;0.46999999999999997;0.029999999999999999;0.11;1;2.9320991673403114;22;6;22;2;nein
2019_02_22 10:02;8;2;1;control;52;56;1;28;84;37;41;0.68000000000000005;0.28000000000000003;0.02;0.0199999999999999;6;95;0;0;0.72999999999999998;0.27000000000000002;0.0;0.0;0;7.295185033489361;22;6;22;2;nein
2019_02_22 10:02;8;2;1;control;53;72;0;63;82;51;61;0.01;0.96999999999999997;0.01;0.01;92;12;0;0;0.89000000000000001;0.11;0.0;0.0;0;9.95696669586414;22;6;22;2;nein
2019_02_22 10:02;8;2;1;control;54;13;1;52;56;0;0;0.46999999999999997;0.53000000000000003;0.0;0.0;94;71;27;2;0.089999999999999997;0.31;0.57999999999999996;0.020000000000000101;0;4.4729840296540715;22;6;22;2;nein
2019_02_22 10:02;8;2;1;control;55;6;1;9;51;0;0;0.14999999999999999;0.84999999999999998;0.0;0.0;6;40;50;73;0.42999999999999999;0.26000000000000001;0.059999999999999998;0.25;1;4.232874607781923;22;6;22;2;nein
2019_02_22 10:02;8;2;1;control;56;112;0;70;44;98;64;0.02;0.75;0.12;0.11;33;2;63;85;0.23999999999999999;0.31;0.080000000000000002;0.37;0;6.574488885096798;22;6;22;2;nein
2019_02_22 10:02;8;2;1;control;57;116;0;53;65;43;99;0.56999999999999995;0.37;0.050000000000000003;0.010000000000000101;57;72;11;87;0.67000000000000004;0.13;0.14999999999999999;0.050000000000000003;1;3.982718169399959;22;6;22;2;nein
2019_02_22 10:02;8;2;1;control;58;75;0;67;80;36;81;0.81999999999999995;0.080000000000000002;0.059999999999999998;0.040000000000000001;3;97;0;0;0.32000000000000001;0.68000000000000005;0.0;0.0;0;6.194429735191989;22;6;22;2;nein
2019_02_22 10:02;8;2;1;control;59;1;1;22;51;0;0;0.26000000000000001;0.73999999999999999;0.0;0.0;14;11;92;31;0.29999999999999999;0.40999999999999998;0.14999999999999999;0.14000000000000001;0;4.393128770839212;22;6;22;2;nein
2019_02_22 10:02;8;2;1;control;60;57;0;52;35;23;47;0.22;0.68000000000000005;0.040000000000000001;0.059999999999999998;71;7;0;0;0.28999999999999998;0.70999999999999996;0.0;0.0;1;6.954878712544996;22;6;22;2;nein
2019_02_22 10:02;8;2;1;control;61;135;0;48;60;41;51;0.14000000000000001;0.40000000000000002;0.089999999999999997;0.37;94;1;85;65;0.64000000000000001;0.29999999999999999;0.01;0.050000000000000003;1;3.492374049863429;22;6;22;2;nein
2019_02_22 10:02;8;2;1;control;62;34;1;32;48;0;0;0.28000000000000003;0.71999999999999997;0.0;0.0;97;83;7;62;0.040000000000000001;0.54000000000000004;0.35999999999999999;0.059999999999999901;0;4.032719436302614;22;6;22;2;nein
2019_02_22 10:02;8;2;1;control;63;15;1;77;81;0;0;0.28000000000000003;0.71999999999999997;0.0;0.0;98;14;87;18;0.55000000000000004;0.23000000000000001;0.16;0.059999999999999901;0;5.954062763303227;22;6;22;2;nein
2019_02_22 10:02;8;2;1;control;64;46;1;5;19;0;0;0.32000000000000001;0.68000000000000005;0.0;0.0;88;38;97;66;0.60999999999999999;0.20000000000000001;0.040000000000000001;0.14999999999999999;1;3.7528847686580775;22;6;22;2;nein
2019_02_22 10:02;8;2;1;control;65;128;1;70;49;27;54;0.27000000000000002;0.53000000000000003;0.02;0.17999999999999999;72;97;6;20;0.29999999999999999;0.39000000000000001;0.22;0.0899999999999999;1;9.776690985845562;22;6;22;2;nein
2019_02_22 10:02;8;2;1;control;66;9;1;61;69;0;0;0.93999999999999995;0.060000000000000102;0.0;0.0;18;93;72;16;0.40999999999999998;0.34999999999999998;0.089999999999999997;0.14999999999999999;0;2.2813523845507007;22;6;22;2;nein
2019_02_22 10:02;8;2;1;control;67;115;0;50;28;61;79;0.83999999999999997;0.040000000000000001;0.059999999999999998;0.059999999999999998;1;26;97;55;0.45000000000000001;0.080000000000000002;0.40999999999999998;0.060000000000000102;0;3.8125513777004016;22;6;22;2;nein
2019_02_22 10:02;8;2;1;control;68;80;0;47;39;45;10;0.13;0.76000000000000001;0.059999999999999998;0.050000000000000003;2;87;0;0;0.48999999999999999;0.51000000000000001;0.0;0.0;0;3.232282531405872;22;6;22;2;nein
2019_02_22 10:02;8;2;1;control;69;103;1;38;49;89;50;0.89000000000000001;0.070000000000000007;0.01;0.029999999999999999;6;64;99;27;0.70999999999999996;0.17999999999999999;0.059999999999999998;0.050000000000000003;0;2.4116236203190056;22;6;22;2;nein
2019_02_22 10:02;8;2;1;control;70;140;0;36;32;26;27;0.39000000000000001;0.14999999999999999;0.19;0.27000000000000002;44;3;99;25;0.29999999999999999;0.34000000000000002;0.34000000000000002;0.0199999999999999;1;7.104863269166344;22;6;22;2;nein
2019_02_22 10:02;8;2;1;control;71;74;1;66;47;52;44;0.41999999999999998;0.26000000000000001;0.17999999999999999;0.14000000000000001;17;99;0;0;0.47999999999999998;0.52000000000000002;0.0;0.0;1;3.9928258047802956;22;6;22;2;nein
2019_02_22 10:02;8;2;1;control;72;71;1;68;55;36;51;0.20000000000000001;0.75;0.02;0.029999999999999999;38;81;0;0;0.52000000000000002;0.47999999999999998;0.0;0.0;0;5.033363792444106;22;6;22;2;nein
2019_02_22 10:02;8;2;1;control;73;76;0;39;62;9;28;0.01;0.51000000000000001;0.26000000000000001;0.22;77;7;0;0;0.57999999999999996;0.41999999999999998;0.0;0.0;1;9.276307226698918;22;6;22;2;nein
2019_02_22 10:02;8;2;1;control;74;48;1;13;32;0;0;0.90000000000000002;0.10000000000000001;0.0;0.0;24;99;84;94;0.62;0.14999999999999999;0.20000000000000001;0.029999999999999999;1;4.953493459095625;22;6;22;2;nein
2019_02_22 10:02;8;2;1;control;75;102;0;40;56;53;17;0.28000000000000003;0.26000000000000001;0.14999999999999999;0.31;1;76;29;62;0.68000000000000005;0.23000000000000001;0.050000000000000003;0.039999999999999897;0;4.092878693943021;22;6;22;2;nein
2019_02_22 10:02;8;3;1;timed;1;141;0;93;28;60;91;0.81999999999999995;0.10000000000000001;0.01;0.070000000000000007;14;85;7;89;0.45000000000000001;0.070000000000000007;0.23999999999999999;0.23999999999999999;0;3.447844197315135;22;6;22;2;nein
2019_02_22 10:02;8;3;1;timed;2;105;0;49;74;63;58;0.84999999999999998;0.080000000000000002;0.02;0.050000000000000003;97;5;86;8;0.25;0.52000000000000002;0.070000000000000007;0.16;0;1.6910708403665922;22;6;22;2;nein
2019_02_22 10:02;8;3;1;timed;3;129;0;12;29;81;36;0.17999999999999999;0.79000000000000004;0.01;0.02;5;19;95;92;0.47999999999999998;0.26000000000000001;0.13;0.13;0;2.6419086156092817;22;6;22;2;nein
2019_02_22 10:02;8;3;1;timed;4;86;1;56;30;57;88;0.20000000000000001;0.35999999999999999;0.080000000000000002;0.35999999999999999;98;2;0;0;0.77000000000000002;0.23000000000000001;0.0;0.0;1;2.881937853790987;22;6;22;2;nein
2019_02_22 10:02;8;3;1;timed;5;57;0;52;35;23;47;0.22;0.68000000000000005;0.040000000000000001;0.059999999999999998;71;7;0;0;0.28999999999999998;0.70999999999999996;0.0;0.0;0;3.592436240333882;22;6;22;2;nein
2019_02_22 10:02;8;3;1;timed;6;103;0;38;49;89;50;0.89000000000000001;0.070000000000000007;0.01;0.029999999999999999;6;64;99;27;0.70999999999999996;0.17999999999999999;0.059999999999999998;0.050000000000000003;0;3.212291454246042;22;6;22;2;nein
2019_02_22 10:02;8;3;1;timed;7;46;1;5;19;0;0;0.32000000000000001;0.68000000000000005;0.0;0.0;88;38;97;66;0.60999999999999999;0.20000000000000001;0.040000000000000001;0.14999999999999999;1;3.592602060207355;22;6;22;2;nein
2019_02_22 10:02;8;3;1;timed;8;49;1;21;30;0;0;0.53000000000000003;0.46999999999999997;0.0;0.0;93;99;89;25;0.44;0.02;0.11;0.42999999999999999;0;2.9719982513543073;22;6;22;2;nein
2019_02_22 10:02;8;3;1;timed;9;80;1;47;39;45;10;0.13;0.76000000000000001;0.059999999999999998;0.050000000000000003;2;87;0;0;0.48999999999999999;0.51000000000000001;0.0;0.0;0;3.042304274014896;22;6;22;2;nein
2019_02_22 10:02;8;3;1;timed;10;150;0;25;21;78;38;0.84999999999999998;0.059999999999999998;0.050000000000000003;0.040000000000000001;31;43;64;95;0.059999999999999998;0.45000000000000001;0.13;0.35999999999999999;1;3.8126071855494956;22;6;22;2;nein
2019_02_22 10:02;8;3;1;timed;11;91;1;74;81;86;48;0.93000000000000005;0.02;0.01;0.039999999999999897;7;64;0;0;0.13;0.87;0.0;0.0;0;3.4324412309679246;22;6;22;2;nein
2019_02_22 10:02;8;3;1;timed;12;76;1;39;62;9;28;0.01;0.51000000000000001;0.26000000000000001;0.22;77;7;0;0;0.57999999999999996;0.41999999999999998;0.0;0.0;0;3.352359533408162;22;6;22;2;nein
2019_02_22 10:02;8;3;1;timed;13;112;1;70;44;98;64;0.02;0.75;0.12;0.11;33;2;63;85;0.23999999999999999;0.31;0.080000000000000002;0.37;0;3.33237390874001;22;6;22;2;nein
2019_02_22 10:02;8;3;1;timed;14;4;0;40;43;0;0;0.58999999999999997;0.40999999999999998;0.0;0.0;2;33;88;81;0.69999999999999996;0.14000000000000001;0.13;0.029999999999999999;0;2.751970995313968;22;6;22;2;nein
2019_02_22 10:02;8;3;1;timed;15;27;0;44;26;0;0;0.35999999999999999;0.64000000000000001;0.0;0.0;63;10;3;5;0.58999999999999997;0.19;0.14999999999999999;0.070000000000000007;0;3.032183809244998;22;6;22;2;nein
2019_02_22 10:02;8;3;1;timed;16;118;1;62;52;65;68;0.40999999999999998;0.44;0.10000000000000001;0.0500000000000001;79;20;14;37;0.56999999999999995;0.23999999999999999;0.14000000000000001;0.050000000000000003;1;4.132924033008749;22;6;22;2;nein
2019_02_22 10:02;8;3;1;timed;17;59;0;56;47;83;90;0.31;0.12;0.54000000000000004;0.029999999999999898;10;98;0;0;0.46999999999999997;0.53000000000000003;0.0;0.0;0;2.5917476227941734;22;6;22;2;nein
2019_02_22 10:02;8;3;1;timed;18;144;1;99;93;90;71;0.65000000000000002;0.32000000000000001;0.01;0.02;97;14;48;73;0.23000000000000001;0.46000000000000002;0.13;0.17999999999999999;0;1.811235723695063;22;6;22;2;nein
2019_02_22 10:02;8;3;1;timed;19;77;1;24;17;99;41;0.17999999999999999;0.13;0.10000000000000001;0.58999999999999997;12;97;0;0;0.59999999999999998;0.40000000000000002;0.0;0.0;0;3.592421807269602;22;6;22;2;nein
2019_02_22 10:02;8;3;1;timed;20;81;1;67;38;52;65;0.27000000000000002;0.35999999999999999;0.01;0.35999999999999999;2;77;0;0;0.14000000000000001;0.85999999999999999;0.0;0.0;1;3.7024707161135666;22;6;22;2;nein
2019_02_22 10:02;8;3;1;timed;21;98;0;27;10;31;79;0.23000000000000001;0.67000000000000004;0.070000000000000007;0.029999999999999999;25;99;0;0;0.38;0.62;0.0;0.0;1;2.0713622022421987;22;6;22;2;nein
2019_02_22 10:02;8;3;1;timed;22;90;0;27;44;50;72;0.68000000000000005;0.28999999999999998;0.02;0.0099999999999999707;6;96;0;0;0.46999999999999997;0.53000000000000003;0.0;0.0;1;2.841956340942488;22;6;22;2;nein
2019_02_22 10:02;8;3;1;timed;23;30;1;33;30;0;0;0.71999999999999997;0.28000000000000003;0.0;0.0;9;88;1;14;0.55000000000000004;0.39000000000000001;0.01;0.049999999999999899;0;3.0822007921506156;22;6;22;2;nein
2019_02_22 10:02;8;3;1;timed;24;138;1;8;20;43;51;0.38;0.5;0.02;0.10000000000000001;72;82;70;1;0.39000000000000001;0.050000000000000003;0.070000000000000007;0.48999999999999999;0;3.0521813010991536;22;6;22;2;nein
2019_02_22 10:02;8;3;1;timed;25;71;0;68;55;36;51;0.20000000000000001;0.75;0.02;0.029999999999999999;38;81;0;0;0.52000000000000002;0.47999999999999998;0.0;0.0;0;2.751868039454166;22;6;22;2;nein
2019_02_22 10:02;8;3;1;timed;26;143;0;88;44;56;73;0.95999999999999996;0.02;0.01;0.01;20;3;87;32;0.19;0.40000000000000002;0.28000000000000003;0.13;0;3.1723888421502124;22;6;22;2;nein
2019_02_22 10:02;8;3;1;timed;27;131;0;83;41;81;88;0.23999999999999999;0.58999999999999997;0.10000000000000001;0.070000000000000007;82;97;4;17;0.26000000000000001;0.46999999999999997;0.11;0.16;0;3.9328326877475774;22;6;22;2;nein
2019_02_22 10:02;8;3;1;timed;28;146;1;25;5;64;35;0.94999999999999996;0.02;0.01;0.02;47;97;12;79;0.20999999999999999;0.029999999999999999;0.02;0.73999999999999999;0;1.9612978981294873;22;6;22;2;nein
2019_02_22 10:02;8;3;1;timed;29;99;0;8;24;15;73;0.56000000000000005;0.35999999999999999;0.070000000000000007;0.0099999999999999499;88;12;0;0;0.52000000000000002;0.47999999999999998;0.0;0.0;1;1.5910849847705322;22;6;22;2;nein
2019_02_22 10:02;8;3;1;timed;30;137;0;71;22;28;17;0.25;0.46000000000000002;0.050000000000000003;0.23999999999999999;3;98;92;69;0.42999999999999999;0.23999999999999999;0.20000000000000001;0.13;0;1.8113293782462279;22;6;22;2;nein
2019_02_22 10:02;8;3;1;timed;31;100;1;27;14;59;52;0.02;0.95999999999999996;0.01;0.01;17;98;0;0;0.48999999999999999;0.51000000000000001;0.0;0.0;0;1.040820875728059;22;6;22;2;nein
2019_02_22 10:02;8;3;1;timed;32;36;1;70;17;0;0;0.33000000000000002;0.67000000000000004;0.0;0.0;84;1;12;88;0.22;0.27000000000000002;0.14000000000000001;0.37;0;2.511836876864436;22;6;22;2;nein
2019_02_22 10:02;8;3;1;timed;33;94;0;84;86;93;39;0.78000000000000003;0.20000000000000001;0.01;0.0099999999999999603;9;83;0;0;0.46999999999999997;0.53000000000000003;0.0;0.0;0;2.2914834335688283;22;6;22;2;nein
2019_02_22 10:02;8;3;1;timed;34;52;0;71;51;10;54;0.22;0.12;0.19;0.46999999999999997;91;1;0;0;0.29999999999999999;0.69999999999999996;0.0;0.0;0;3.6425609901216376;22;6;22;2;nein
2019_02_22 10:02;8;3;1;timed;35;62;1;12;45;16;50;0.20999999999999999;0.76000000000000001;0.02;0.01;92;15;0;0;0.20999999999999999;0.79000000000000004;0.0;0.0;1;3.112091027091992;22;6;22;2;nein
2019_02_22 10:02;8;3;1;timed;36;10;1;45;62;0;0;0.059999999999999998;0.93999999999999995;0.0;0.0;17;99;28;67;0.58999999999999997;0.34000000000000002;0.01;0.059999999999999998;0;3.1122427346354016;22;6;22;2;nein
2019_02_22 10:02;8;3;1;timed;37;142;0;98;65;64;84;0.88;0.070000000000000007;0.01;0.040000000000000001;5;68;60;16;0.46000000000000002;0.080000000000000002;0.27000000000000002;0.19;0;4.72324246169137;22;6;22;2;nein
2019_02_22 10:02;8;3;1;timed;38;108;0;48;72;39;70;0.14000000000000001;0.66000000000000003;0.02;0.17999999999999999;81;44;98;8;0.59999999999999998;0.029999999999999999;0.050000000000000003;0.32000000000000001;0;3.6924997137439277;22;6;22;2;nein
2019_02_22 10:02;8;3;1;timed;39;34;0;32;48;0;0;0.28000000000000003;0.71999999999999997;0.0;0.0;97;83;7;62;0.040000000000000001;0.54000000000000004;0.35999999999999999;0.059999999999999901;0;4.833421588848978;22;6;22;2;nein
2019_02_22 10:02;8;3;1;timed;40;58;1;37;58;76;34;0.20999999999999999;0.57999999999999996;0.19;0.020000000000000101;86;5;0;0;0.47999999999999998;0.52000000000000002;0.0;0.0;0;3.5223755797687772;22;6;22;2;nein
2019_02_22 10:02;8;3;1;timed;41;89;1;26;41;13;56;0.059999999999999998;0.40999999999999998;0.050000000000000003;0.47999999999999998;5;97;0;0;0.37;0.63;0.0;0.0;0;4.312897931613406;22;6;22;2;nein
2019_02_22 10:02;8;3;1;timed;42;145;1;91;89;90;74;0.57999999999999996;0.29999999999999999;0.11;0.010000000000000101;2;75;84;39;0.32000000000000001;0.27000000000000002;0.39000000000000001;0.0199999999999999;0;4.453048760344245;22;6;22;2;nein
2019_02_22 10:02;8;3;1;timed;43;31;1;10;59;0;0;0.23999999999999999;0.76000000000000001;0.0;0.0;1;79;53;73;0.23000000000000001;0.58999999999999997;0.050000000000000003;0.13;1;4.352962835499966;22;6;22;2;nein
2019_02_22 10:02;8;3;1;timed;44;69;0;54;34;64;49;0.34000000000000002;0.25;0.20999999999999999;0.20000000000000001;14;98;0;0;0.62;0.38;0.0;0.0;1;3.282308174150785;22;6;22;2;nein
2019_02_22 10:02;8;3;1;timed;45;102;1;40;56;53;17;0.28000000000000003;0.26000000000000001;0.14999999999999999;0.31;1;76;29;62;0.68000000000000005;0.23000000000000001;0.050000000000000003;0.039999999999999897;0;2.731955221577664;22;6;22;2;nein
2019_02_22 10:02;8;3;1;timed;46;3;1;53;40;0;0;0.31;0.68999999999999995;0.0;0.0;96;24;7;88;0.11;0.27000000000000002;0.58999999999999997;0.029999999999999999;0;2.111344998029381;22;6;22;2;nein
2019_02_22 10:02;8;3;1;timed;47;19;0;22;53;0;0;0.13;0.87;0.0;0.0;4;93;96;65;0.46999999999999997;0.059999999999999998;0.26000000000000001;0.20999999999999999;1;3.8726208296066034;22;6;22;2;nein
2019_02_22 10:02;8;3;1;timed;48;21;0;64;28;0;0;0.080000000000000002;0.92000000000000004;0.0;0.0;50;1;88;13;0.57999999999999996;0.13;0.02;0.27000000000000002;1;3.8126039782009684;22;6;22;2;nein
2019_02_22 10:02;8;3;1;timed;49;125;0;37;41;10;35;0.91000000000000003;0.040000000000000001;0.029999999999999999;0.02;7;13;91;93;0.26000000000000001;0.39000000000000001;0.16;0.19;0;3.262405940521603;22;6;22;2;nein
2019_02_22 10:02;8;3;1;timed;50;26;1;76;41;0;0;0.57999999999999996;0.41999999999999998;0.0;0.0;61;79;84;2;0.13;0.029999999999999999;0.67000000000000004;0.17000000000000001;0;4.072750663038278;22;6;22;2;nein
2019_02_22 10:02;8;3;1;timed;51;25;0;50;53;0;0;0.82999999999999996;0.17000000000000001;0.0;0.0;83;16;97;4;0.45000000000000001;0.29999999999999999;0.11;0.14000000000000001;0;2.912094619320669;22;6;22;2;nein
2019_02_22 10:02;8;3;1;timed;52;84;1;43;10;5;45;0.78000000000000003;0.13;0.059999999999999998;0.029999999999999999;87;1;0;0;0.57999999999999996;0.41999999999999998;0.0;0.0;0;4.2029587140586955;22;6;22;2;nein
2019_02_22 10:02;8;3;1;timed;53;78;1;74;36;34;3;0.14999999999999999;0.64000000000000001;0.13;0.080000000000000002;1;83;0;0;0.41999999999999998;0.57999999999999996;0.0;0.0;0;3.442340709484597;22;6;22;2;nein
2019_02_22 10:02;8;3;1;timed;54;51;0;52;23;43;16;0.60999999999999999;0.20999999999999999;0.01;0.17000000000000001;92;7;0;0;0.14999999999999999;0.84999999999999998;0.0;0.0;0;2.8318852693255394;22;6;22;2;nein
2019_02_22 10:02;8;3;1;timed;55;56;0;28;84;37;41;0.68000000000000005;0.28000000000000003;0.02;0.0199999999999999;6;95;0;0;0.72999999999999998;0.27000000000000002;0.0;0.0;0;3.192302622231182;22;6;22;2;nein
2019_02_22 10:02;8;3;1;timed;56;79;1;52;46;29;22;0.17999999999999999;0.51000000000000001;0.23999999999999999;0.070000000000000104;93;14;0;0;0.45000000000000001;0.55000000000000004;0.0;0.0;0;3.4321968310759985;22;6;22;2;nein
2019_02_22 10:02;8;3;1;timed;57;50;0;15;20;0;0;0.82999999999999996;0.17000000000000001;0.0;0.0;97;18;88;87;0.56999999999999995;0.39000000000000001;0.01;0.029999999999999999;1;3.7926773687304376;22;6;22;2;nein
2019_02_22 10:02;8;3;1;timed;58;29;0;44;51;0;0;0.78000000000000003;0.22;0.0;0.0;74;1;68;82;0.69999999999999996;0.28000000000000003;0.01;0.01;0;3.322251198826052;22;6;22;2;nein
2019_02_22 10:02;8;3;1;timed;59;117;0;65;85;92;41;0.23000000000000001;0.17999999999999999;0.54000000000000004;0.050000000000000003;99;93;10;13;0.64000000000000001;0.16;0.01;0.19;0;4.012698530809757;22;6;22;2;nein
2019_02_22 10:02;8;3;1;timed;60;14;0;36;40;0;0;0.54000000000000004;0.46000000000000002;0.0;0.0;99;70;1;11;0.16;0.089999999999999997;0.080000000000000002;0.67000000000000004;0;5.193725401647498;22;6;22;2;nein
2019_02_22 10:02;8;3;1;timed;61;74;0;66;47;52;44;0.41999999999999998;0.26000000000000001;0.17999999999999999;0.14000000000000001;17;99;0;0;0.47999999999999998;0.52000000000000002;0.0;0.0;0;4.152936599396526;22;6;22;2;nein
2019_02_22 10:02;8;3;1;timed;62;20;0;44;40;0;0;0.91000000000000003;0.089999999999999997;0.0;0.0;29;5;80;99;0.25;0.40000000000000002;0.26000000000000001;0.089999999999999997;1;4.483036819388872;22;6;22;2;nein
2019_02_22 10:02;8;3;1;timed;63;43;1;60;83;0;0;0.23000000000000001;0.77000000000000002;0.0;0.0;72;5;70;12;0.29999999999999999;0.40999999999999998;0.12;0.17000000000000001;1;4.152802853000139;22;6;22;2;nein
2019_02_22 10:02;8;3;1;timed;64;132;1;27;70;21;19;0.64000000000000001;0.23000000000000001;0.029999999999999999;0.10000000000000001;11;85;55;6;0.39000000000000001;0.46999999999999997;0.029999999999999999;0.11;1;2.8919569663748916;22;6;22;2;nein
2019_02_22 10:02;8;3;1;timed;65;42;1;70;48;0;0;0.79000000000000004;0.20999999999999999;0.0;0.0;51;8;12;67;0.19;0.26000000000000001;0.28999999999999998;0.26000000000000001;0;2.0715889617204084;22;6;22;2;nein
2019_02_22 10:02;8;3;1;timed;66;122;0;35;58;25;31;0.81999999999999995;0.070000000000000007;0.080000000000000002;0.029999999999999999;18;64;68;89;0.63;0.17000000000000001;0.11;0.089999999999999997;1;3.9728363312942747;22;6;22;2;nein
2019_02_22 10:02;8;3;1;timed;67;32;0;19;81;0;0;0.93000000000000005;0.070000000000000007;0.0;0.0;1;65;41;68;0.45000000000000001;0.050000000000000003;0.059999999999999998;0.44;1;3.242173350085068;22;6;22;2;nein
2019_02_22 10:02;8;3;1;timed;68;124;1;37;65;15;41;0.17999999999999999;0.45000000000000001;0.02;0.34999999999999998;40;7;98;30;0.070000000000000007;0.45000000000000001;0.45000000000000001;0.029999999999999898;0;3.6024361088329897;22;6;22;2;nein
2019_02_22 10:02;8;3;1;timed;69;15;0;77;81;0;0;0.28000000000000003;0.71999999999999997;0.0;0.0;98;14;87;18;0.55000000000000004;0.23000000000000001;0.16;0.059999999999999901;1;2.1514124677942164;22;6;22;2;nein
2019_02_22 10:02;8;3;1;timed;70;149;0;14;89;73;53;0.93999999999999995;0.01;0.01;0.040000000000000001;97;45;6;13;0.34000000000000002;0.01;0.40999999999999998;0.23999999999999999;1;2.6517866048970973;22;6;22;2;nein
2019_02_22 10:02;8;3;1;timed;71;1;0;22;51;0;0;0.26000000000000001;0.73999999999999999;0.0;0.0;14;11;92;31;0.29999999999999999;0.40999999999999998;0.14999999999999999;0.14000000000000001;0;1.7611581219180152;22;6;22;2;nein
2019_02_22 10:02;8;3;1;timed;72;53;0;26;70;50;80;0.29999999999999999;0.59999999999999998;0.040000000000000001;0.059999999999999998;89;1;0;0;0.40999999999999998;0.58999999999999997;0.0;0.0;0;2.2314470173423615;22;6;22;2;nein
2019_02_22 10:02;8;3;1;timed;73;92;1;90;86;65;94;0.16;0.34000000000000002;0.28000000000000003;0.22;79;22;0;0;0.35999999999999999;0.64000000000000001;0.0;0.0;0;3.9928001459984443;22;6;22;2;nein
2019_02_22 10:02;8;3;1;timed;74;139;0;44;31;16;8;0.79000000000000004;0.070000000000000007;0.13;0.0099999999999999499;92;58;2;88;0.55000000000000004;0.070000000000000007;0.34000000000000002;0.039999999999999897;1;4.012861784804954;22;6;22;2;nein
2019_02_22 10:02;8;3;1;timed;75;87;1;10;30;63;4;0.56999999999999995;0.12;0.16;0.14999999999999999;86;2;0;0;0.42999999999999999;0.56999999999999995;0.0;0.0;0;3.9927196415719663;22;6;22;2;nein
2019_02_22 10:02;8;4;1;control;1;84;1;43;10;5;45;0.78000000000000003;0.13;0.059999999999999998;0.029999999999999999;87;1;0;0;0.57999999999999996;0.41999999999999998;0.0;0.0;0;3.288371344145162;22;6;22;2;nein
2019_02_22 10:02;8;4;1;control;2;136;0;29;67;14;75;0.46000000000000002;0.29999999999999999;0.20999999999999999;0.0300000000000001;70;86;1;85;0.31;0.39000000000000001;0.27000000000000002;0.029999999999999898;1;9.536492720442766;22;6;22;2;nein
2019_02_22 10:02;8;4;1;control;3;117;0;65;85;92;41;0.23000000000000001;0.17999999999999999;0.54000000000000004;0.050000000000000003;99;93;10;13;0.64000000000000001;0.16;0.01;0.19;0;5.733909137765295;22;6;22;2;nein
2019_02_22 10:02;8;4;1;control;4;52;0;71;51;10;54;0.22;0.12;0.19;0.46999999999999997;91;1;0;0;0.29999999999999999;0.69999999999999996;0.0;0.0;0;2.2715683705491756;22;6;22;2;nein
2019_02_22 10:02;8;4;1;control;5;60;1;64;59;57;96;0.83999999999999997;0.13;0.02;0.01;83;6;0;0;0.54000000000000004;0.46000000000000002;0.0;0.0;0;4.483188847667407;22;6;22;2;nein
2019_02_22 10:02;8;4;1;control;6;97;1;17;33;32;74;0.94999999999999996;0.01;0.029999999999999999;0.01;76;23;0;0;0.33000000000000002;0.67000000000000004;0.0;0.0;0;7.95554648232519;22;6;22;2;nein
2019_02_22 10:02;8;4;1;control;7;17;0;81;52;0;0;0.059999999999999998;0.93999999999999995;0.0;0.0;34;3;69;41;0.01;0.22;0.75;0.02;1;5.673869834927245;22;6;22;2;nein
2019_02_22 10:02;8;4;1;control;8;118;0;62;52;65;68;0.40999999999999998;0.44;0.10000000000000001;0.0500000000000001;79;20;14;37;0.56999999999999995;0.23999999999999999;0.14000000000000001;0.050000000000000003;1;6.654514454072341;22;6;22;2;nein
2019_02_22 10:02;8;4;1;control;9;125;0;37;41;10;35;0.91000000000000003;0.040000000000000001;0.029999999999999999;0.02;7;13;91;93;0.26000000000000001;0.39000000000000001;0.16;0.19;0;9.69661602371616;22;6;22;2;nein
2019_02_22 10:02;8;4;1;control;10;32;1;19;81;0;0;0.93000000000000005;0.070000000000000007;0.0;0.0;1;65;41;68;0.45000000000000001;0.050000000000000003;0.059999999999999998;0.44;1;7.294901824691806;22;6;22;2;nein
2019_02_22 10:02;8;4;1;control;11;30;0;33;30;0;0;0.71999999999999997;0.28000000000000003;0.0;0.0;9;88;1;14;0.55000000000000004;0.39000000000000001;0.01;0.049999999999999899;1;3.6724800911915736;22;6;22;2;nein
2019_02_22 10:02;8;4;1;control;12;93;0;87;81;73;98;0.80000000000000004;0.040000000000000001;0.14999999999999999;0.0099999999999999499;5;71;0;0;0.51000000000000001;0.48999999999999999;0.0;0.0;1;2.2316224592586877;22;6;22;2;nein
2019_02_22 10:02;8;4;1;control;13;7;0;49;29;0;0;0.95999999999999996;0.040000000000000001;0.0;0.0;23;99;64;25;0.68999999999999995;0.12;0.059999999999999998;0.13;1;3.072059158886077;22;6;22;2;nein
2019_02_22 10:02;8;4;1;control;14;88;0;77;13;12;7;0.12;0.19;0.66000000000000003;0.029999999999999898;94;2;0;0;0.40999999999999998;0.58999999999999997;0.0;0.0;1;8.796007237059712;22;6;22;2;nein
2019_02_22 10:02;8;4;1;control;15;98;0;27;10;31;79;0.23000000000000001;0.67000000000000004;0.070000000000000007;0.029999999999999999;25;99;0;0;0.38;0.62;0.0;0.0;1;3.1121064223616486;22;6;22;2;nein
2019_02_22 10:02;8;4;1;control;16;23;0;54;40;0;0;0.93000000000000005;0.070000000000000007;0.0;0.0;36;23;71;86;0.02;0.41999999999999998;0.19;0.37;1;5.0335453283223615;22;6;22;2;nein
2019_02_22 10:02;8;4;1;control;17;26;0;76;41;0;0;0.57999999999999996;0.41999999999999998;0.0;0.0;61;79;84;2;0.13;0.029999999999999999;0.67000000000000004;0.17000000000000001;0;4.353189915714211;22;6;22;2;nein
2019_02_22 10:02;8;4;1;control;18;100;0;27;14;59;52;0.02;0.95999999999999996;0.01;0.01;17;98;0;0;0.48999999999999999;0.51000000000000001;0.0;0.0;1;4.673181538121753;22;6;22;2;nein
2019_02_22 10:02;8;4;1;control;19;150;1;25;21;78;38;0.84999999999999998;0.059999999999999998;0.050000000000000003;0.040000000000000001;31;43;64;95;0.059999999999999998;0.45000000000000001;0.13;0.35999999999999999;0;6.544601216034607;22;6;22;2;nein
2019_02_22 10:02;8;4;1;control;20;149;0;14;89;73;53;0.93999999999999995;0.01;0.01;0.040000000000000001;97;45;6;13;0.34000000000000002;0.01;0.40999999999999998;0.23999999999999999;0;7.725478945206305;22;6;22;2;nein
2019_02_22 10:02;8;4;1;control;21;59;1;56;47;83;90;0.31;0.12;0.54000000000000004;0.029999999999999898;10;98;0;0;0.46999999999999997;0.53000000000000003;0.0;0.0;0;5.994213624107033;22;6;22;2;nein
2019_02_22 10:02;8;4;1;control;22;25;0;50;53;0;0;0.82999999999999996;0.17000000000000001;0.0;0.0;83;16;97;4;0.45000000000000001;0.29999999999999999;0.11;0.14000000000000001;0;3.432586844551224;22;6;22;2;nein
2019_02_22 10:02;8;4;1;control;23;69;0;54;34;64;49;0.34000000000000002;0.25;0.20999999999999999;0.20000000000000001;14;98;0;0;0.62;0.38;0.0;0.0;0;3.9628268407532232;22;6;22;2;nein
2019_02_22 10:02;8;4;1;control;24;142;0;98;65;64;84;0.88;0.070000000000000007;0.01;0.040000000000000001;5;68;60;16;0.46000000000000002;0.080000000000000002;0.27000000000000002;0.19;0;5.393659586874492;22;6;22;2;nein
2019_02_22 10:02;8;4;1;control;25;89;0;26;41;13;56;0.059999999999999998;0.40999999999999998;0.050000000000000003;0.47999999999999998;5;97;0;0;0.37;0.63;0.0;0.0;0;3.5924490697252622;22;6;22;2;nein
2019_02_22 10:02;8;4;1;control;26;10;0;45;62;0;0;0.059999999999999998;0.93999999999999995;0.0;0.0;17;99;28;67;0.58999999999999997;0.34000000000000002;0.01;0.059999999999999998;0;6.464390583098975;22;6;22;2;nein
2019_02_22 10:02;8;4;1;control;27;55;1;74;55;47;48;0.60999999999999999;0.31;0.070000000000000007;0.01;97;6;0;0;0.42999999999999999;0.56999999999999995;0.0;0.0;0;7.275116979987615;22;6;22;2;nein
2019_02_22 10:02;8;4;1;control;28;114;1;57;39;79;97;0.77000000000000002;0.02;0.13;0.080000000000000002;92;36;6;1;0.54000000000000004;0.12;0.13;0.20999999999999999;1;9.136359743810317;22;6;22;2;nein
2019_02_22 10:02;8;4;1;control;29;28;1;47;30;0;0;0.97999999999999998;0.02;0.0;0.0;55;48;77;13;0.070000000000000007;0.26000000000000001;0.42999999999999999;0.23999999999999999;0;3.4722963743179207;22;6;22;2;nein
2019_02_22 10:02;8;4;1;control;30;65;1;75;64;59;52;0.59999999999999998;0.22;0.14000000000000001;0.040000000000000001;1;99;0;0;0.35999999999999999;0.64000000000000001;0.0;0.0;1;3.4724843248905017;22;6;22;2;nein
2019_02_22 10:02;8;4;1;control;31;144;1;99;93;90;71;0.65000000000000002;0.32000000000000001;0.01;0.02;97;14;48;73;0.23000000000000001;0.46000000000000002;0.13;0.17999999999999999;0;2.65177954873252;22;6;22;2;nein
2019_02_22 10:02;8;4;1;control;32;3;0;53;40;0;0;0.31;0.68999999999999995;0.0;0.0;96;24;7;88;0.11;0.27000000000000002;0.58999999999999997;0.029999999999999999;0;8.205724089200885;22;6;22;2;nein
2019_02_22 10:02;8;4;1;control;33;51;1;52;23;43;16;0.60999999999999999;0.20999999999999999;0.01;0.17000000000000001;92;7;0;0;0.14999999999999999;0.84999999999999998;0.0;0.0;0;2.7918469864234794;22;6;22;2;nein
2019_02_22 10:02;8;4;1;control;34;29;1;44;51;0;0;0.78000000000000003;0.22;0.0;0.0;74;1;68;82;0.69999999999999996;0.28000000000000003;0.01;0.01;0;3.2721966899525796;22;6;22;2;nein
2019_02_22 10:02;8;4;1;control;35;83;0;17;12;7;41;0.65000000000000002;0.19;0.089999999999999997;0.070000000000000007;6;84;0;0;0.72999999999999998;0.27000000000000002;0.0;0.0;0;5.033636096261034;22;6;22;2;nein
2019_02_22 10:02;8;4;1;control;36;70;1;66;55;69;50;0.22;0.29999999999999999;0.29999999999999999;0.17999999999999999;2;90;0;0;0.34000000000000002;0.66000000000000003;0.0;0.0;0;3.832752536131011;22;6;22;2;nein
2019_02_22 10:02;8;4;1;control;37;106;1;85;69;22;61;0.10000000000000001;0.58999999999999997;0.17999999999999999;0.13;20;79;91;84;0.55000000000000004;0.14999999999999999;0.26000000000000001;0.039999999999999897;0;7.625341061329891;22;6;22;2;nein
2019_02_22 10:02;8;4;1;control;38;85;0;31;22;82;50;0.11;0.69999999999999996;0.01;0.17999999999999999;3;99;0;0;0.62;0.38;0.0;0.0;0;4.863323370243961;22;6;22;2;nein
2019_02_22 10:02;8;4;1;control;39;24;1;35;27;0;0;0.070000000000000007;0.93000000000000005;0.0;0.0;62;3;81;95;0.35999999999999999;0.55000000000000004;0.01;0.080000000000000002;0;8.596016923249408;22;6;22;2;nein
2019_02_22 10:02;8;4;1;control;40;37;1;14;98;0;0;0.93000000000000005;0.070000000000000007;0.0;0.0;41;2;87;66;0.17999999999999999;0.48999999999999999;0.32000000000000001;0.010000000000000101;1;9.236427386771538;22;6;22;2;nein
2019_02_22 10:02;8;4;1;control;41;66;1;89;23;27;15;0.070000000000000007;0.54000000000000004;0.17000000000000001;0.22;9;73;0;0;0.72999999999999998;0.27000000000000002;0.0;0.0;0;7.60519603148532;22;6;22;2;nein
2019_02_22 10:02;8;4;1;control;42;126;1;16;55;51;42;0.68999999999999995;0.23999999999999999;0.01;0.060000000000000102;66;4;1;5;0.46999999999999997;0.38;0.089999999999999997;0.059999999999999998;0;2.5216609827111824;22;6;22;2;nein
2019_02_22 10:02;8;4;1;control;43;18;0;68;50;0;0;0.029999999999999999;0.96999999999999997;0.0;0.0;34;64;15;89;0.65000000000000002;0.029999999999999999;0.050000000000000003;0.27000000000000002;0;3.272392338159989;22;6;22;2;nein
2019_02_22 10:02;8;4;1;control;44;33;1;27;70;0;0;0.88;0.12;0.0;0.0;93;3;77;16;0.080000000000000002;0.40000000000000002;0.5;0.02;1;5.513834412979122;22;6;22;2;nein
2019_02_22 10:02;8;4;1;control;45;44;1;79;74;0;0;0.71999999999999997;0.28000000000000003;0.0;0.0;3;67;15;36;0.41999999999999998;0.53000000000000003;0.02;0.029999999999999999;0;2.5118076900016604;22;6;22;2;nein
2019_02_22 10:02;8;4;1;control;46;45;1;97;87;0;0;0.71999999999999997;0.28000000000000003;0.0;0.0;96;11;14;4;0.25;0.029999999999999999;0.14000000000000001;0.57999999999999996;0;2.3215276211976743;22;6;22;2;nein
2019_02_22 10:02;8;4;1;control;47;96;0;51;54;39;7;0.17000000000000001;0.26000000000000001;0.10000000000000001;0.46999999999999997;24;96;0;0;0.28000000000000003;0.71999999999999997;0.0;0.0;1;5.513767058680969;22;6;22;2;nein
2019_02_22 10:02;8;4;1;control;48;78;1;74;36;34;3;0.14999999999999999;0.64000000000000001;0.13;0.080000000000000002;1;83;0;0;0.41999999999999998;0.57999999999999996;0.0;0.0;0;5.353654660388202;22;6;22;2;nein
2019_02_22 10:02;8;4;1;control;49;99;0;8;24;15;73;0.56000000000000005;0.35999999999999999;0.070000000000000007;0.0099999999999999499;88;12;0;0;0.52000000000000002;0.47999999999999998;0.0;0.0;1;3.112086857539907;22;6;22;2;nein
2019_02_22 10:02;8;4;1;control;50;61;0;43;18;39;70;0.75;0.089999999999999997;0.089999999999999997;0.070000000000000007;16;66;0;0;0.64000000000000001;0.35999999999999999;0.0;0.0;0;6.244393796860095;22;6;22;2;nein
2019_02_22 10:02;8;4;1;control;51;133;0;59;88;60;36;0.67000000000000004;0.070000000000000007;0.12;0.14000000000000001;7;91;66;61;0.25;0.68999999999999995;0.01;0.0500000000000001;1;6.2143592312768305;22;6;22;2;nein
2019_02_22 10:02;8;4;1;control;52;38;0;40;70;0;0;0.53000000000000003;0.46999999999999997;0.0;0.0;97;90;6;96;0.56999999999999995;0.070000000000000007;0.27000000000000002;0.089999999999999997;0;4.993377468576;22;6;22;2;nein
2019_02_22 10:02;8;4;1;control;53;130;0;37;79;23;95;0.94999999999999996;0.029999999999999999;0.01;0.01;94;4;58;49;0.46000000000000002;0.5;0.029999999999999999;0.01;1;3.2121852910386224;22;6;22;2;nein
2019_02_22 10:02;8;4;1;control;54;77;0;24;17;99;41;0.17999999999999999;0.13;0.10000000000000001;0.58999999999999997;12;97;0;0;0.59999999999999998;0.40000000000000002;0.0;0.0;0;10.397228402602195;22;6;22;2;nein
2019_02_22 10:02;8;4;1;control;55;43;0;60;83;0;0;0.23000000000000001;0.77000000000000002;0.0;0.0;72;5;70;12;0.29999999999999999;0.40999999999999998;0.12;0.17000000000000001;0;2.8420804652960214;22;6;22;2;nein
2019_02_22 10:02;8;4;1;control;56;129;0;12;29;81;36;0.17999999999999999;0.79000000000000004;0.01;0.02;5;19;95;92;0.47999999999999998;0.26000000000000001;0.13;0.13;0;3.3322420867516485;22;6;22;2;nein
2019_02_22 10:02;8;4;1;control;57;58;1;37;58;76;34;0.20999999999999999;0.57999999999999996;0.19;0.020000000000000101;86;5;0;0;0.47999999999999998;0.52000000000000002;0.0;0.0;0;3.2323081901868136;22;6;22;2;nein
2019_02_22 10:02;8;4;1;control;58;90;1;27;44;50;72;0.68000000000000005;0.28999999999999998;0.02;0.0099999999999999707;6;96;0;0;0.46999999999999997;0.53000000000000003;0.0;0.0;0;4.593252831045902;22;6;22;2;nein
2019_02_22 10:02;8;4;1;control;59;113;0;85;65;39;64;0.44;0.34000000000000002;0.13;0.089999999999999997;87;2;4;35;0.67000000000000004;0.17000000000000001;0.11;0.049999999999999899;0;3.8225878099619877;22;6;22;2;nein
2019_02_22 10:02;8;4;1;control;60;31;1;10;59;0;0;0.23999999999999999;0.76000000000000001;0.0;0.0;1;79;53;73;0.23000000000000001;0.58999999999999997;0.050000000000000003;0.13;0;3.352254011670084;22;6;22;2;nein
2019_02_22 10:02;8;4;1;control;61;119;1;60;58;11;18;0.25;0.72999999999999998;0.01;0.01;96;23;42;85;0.44;0.48999999999999999;0.059999999999999998;0.010000000000000101;1;5.844034060748527;22;6;22;2;nein
2019_02_22 10:02;8;4;1;control;62;21;0;64;28;0;0;0.080000000000000002;0.92000000000000004;0.0;0.0;50;1;88;13;0.57999999999999996;0.13;0.02;0.27000000000000002;0;5.193648746038889;22;6;22;2;nein
2019_02_22 10:02;8;4;1;control;63;124;1;37;65;15;41;0.17999999999999999;0.45000000000000001;0.02;0.34999999999999998;40;7;98;30;0.070000000000000007;0.45000000000000001;0.45000000000000001;0.029999999999999898;1;8.655903877073797;22;6;22;2;nein
2019_02_22 10:02;8;4;1;control;64;53;1;26;70;50;80;0.29999999999999999;0.59999999999999998;0.040000000000000001;0.059999999999999998;89;1;0;0;0.40999999999999998;0.58999999999999997;0.0;0.0;0;1.8013211706420407;22;6;22;2;nein
2019_02_22 10:02;8;4;1;control;65;42;0;70;48;0;0;0.79000000000000004;0.20999999999999999;0.0;0.0;51;8;12;67;0.19;0.26000000000000001;0.28999999999999998;0.26000000000000001;0;5.553754986221975;22;6;22;2;nein
2019_02_22 10:02;8;4;1;control;66;68;1;84;27;55;62;0.01;0.050000000000000003;0.40999999999999998;0.53000000000000003;9;82;0;0;0.37;0.63;0.0;0.0;0;8.11552000246229;22;6;22;2;nein
2019_02_22 10:02;8;4;1;control;67;148;0;37;63;55;10;0.72999999999999998;0.070000000000000007;0.029999999999999999;0.17000000000000001;80;14;23;70;0.46999999999999997;0.10000000000000001;0.23000000000000001;0.20000000000000001;1;8.776097305795702;22;6;22;2;nein
2019_02_22 10:02;8;4;1;control;68;141;1;93;28;60;91;0.81999999999999995;0.10000000000000001;0.01;0.070000000000000007;14;85;7;89;0.45000000000000001;0.070000000000000007;0.23999999999999999;0.23999999999999999;0;8.295801164973454;22;6;22;2;nein
2019_02_22 10:02;8;4;1;control;69;95;0;93;88;68;85;0.83999999999999997;0.14000000000000001;0.01;0.01;2;82;0;0;0.41999999999999998;0.57999999999999996;0.0;0.0;0;5.353756654043536;22;6;22;2;nein
2019_02_22 10:02;8;4;1;control;70;82;1;78;66;30;27;0.28999999999999998;0.58999999999999997;0.080000000000000002;0.040000000000000001;90;6;0;0;0.82999999999999996;0.17000000000000001;0.0;0.0;0;8.31566747630859;22;6;22;2;nein
2019_02_22 10:02;8;4;1;control;71;79;0;52;46;29;22;0.17999999999999999;0.51000000000000001;0.23999999999999999;0.070000000000000104;93;14;0;0;0.45000000000000001;0.55000000000000004;0.0;0.0;1;3.422298956233135;22;6;22;2;nein
2019_02_22 10:02;8;4;1;control;72;111;0;51;36;48;27;0.93000000000000005;0.01;0.01;0.049999999999999899;31;78;30;53;0.55000000000000004;0.16;0.029999999999999999;0.26000000000000001;1;3.892636924076214;22;6;22;2;nein
2019_02_22 10:02;8;4;1;control;73;145;0;91;89;90;74;0.57999999999999996;0.29999999999999999;0.11;0.010000000000000101;2;75;84;39;0.32000000000000001;0.27000000000000002;0.39000000000000001;0.0199999999999999;0;3.412455285564647;22;6;22;2;nein
2019_02_22 10:02;8;4;1;control;74;5;1;70;5;0;0;0.98999999999999999;0.01;0.0;0.0;92;87;47;1;0.44;0.02;0.16;0.38;1;3.7525810328370426;22;6;22;2;nein
2019_02_22 10:02;8;4;1;control;75;39;0;14;33;0;0;0.78000000000000003;0.22;0.0;0.0;93;84;1;25;0.14000000000000001;0.23999999999999999;0.39000000000000001;0.23000000000000001;1;5.433699473449451;22;6;22;2;nein
