date;id;block;order;cond;trial;gameid;leftright;oa1;oa2;oa3;oa4;pa1;pa2;pa3;pa4;ob1;ob2;ob3;ob4;pb1;pb2;pb3;pb4;choice;rt;paytrial;payout;alter;geschlecht;comment
2019_03_21 12:11;45;0;0;practice;1;26;1;24;46;74;59;0.29999999999999999;0.11;0.25;0.34000000000000002;91;6;0;0;0.28999999999999998;0.70999999999999996;0.0;0.0;1;7.767004019887054;70;9;21;2;es war etwas ermuedend
2019_03_21 12:11;45;0;0;practice;2;29;1;66;40;92;49;0.46999999999999997;0.10000000000000001;0.34000000000000002;0.089999999999999997;8;94;0;0;0.44;0.56000000000000005;0.0;0.0;0;12.898547080530307;70;9;21;2;es war etwas ermuedend
2019_03_21 12:11;45;0;0;practice;3;40;0;29;65;30;41;0.70999999999999996;0.01;0.14999999999999999;0.13;2;59;0;0;0.32000000000000001;0.68000000000000005;0.0;0.0;1;8.03534094633801;70;9;21;2;es war etwas ermuedend
2019_03_21 12:11;45;0;0;practice;4;70;0;21;42;14;63;0.96999999999999997;0.01;0.01;0.01;70;2;6;76;0.23999999999999999;0.42999999999999999;0.01;0.32000000000000001;1;8.6957862064055;70;9;21;2;es war etwas ermuedend
2019_03_21 12:11;45;0;0;practice;5;53;1;47;24;95;38;0.57999999999999996;0.28000000000000003;0.02;0.12;8;22;93;96;0.54000000000000004;0.34000000000000002;0.10000000000000001;0.0199999999999999;0;8.695848105098321;70;9;21;2;es war etwas ermuedend
2019_03_21 12:11;45;0;0;practice;6;54;0;69;80;22;55;0.27000000000000002;0.31;0.059999999999999998;0.35999999999999999;52;2;49;90;0.059999999999999998;0.33000000000000002;0.20000000000000001;0.40999999999999998;0;11.617578330711012;70;9;21;2;es war etwas ermuedend
2019_03_21 12:11;45;0;0;practice;7;12;1;45;86;0;0;0.97999999999999998;0.02;0.0;0.0;6;23;95;81;0.14999999999999999;0.40999999999999998;0.050000000000000003;0.39000000000000001;1;4.272900110904629;70;9;21;2;es war etwas ermuedend
2019_03_21 12:11;45;0;0;practice;8;69;1;38;74;27;73;0.22;0.19;0.45000000000000001;0.14000000000000001;1;97;79;84;0.28000000000000003;0.45000000000000001;0.17000000000000001;0.10000000000000001;0;6.694361574317782;70;9;21;2;es war etwas ermuedend
2019_03_21 12:11;45;0;0;practice;9;64;0;44;60;96;45;0.53000000000000003;0.10000000000000001;0.029999999999999999;0.34000000000000002;88;20;43;31;0.47999999999999998;0.38;0.050000000000000003;0.089999999999999997;0;11.257326335680773;70;9;21;2;es war etwas ermuedend
2019_03_21 12:11;45;0;0;practice;10;71;1;94;87;26;75;0.71999999999999997;0.23999999999999999;0.02;0.02;90;27;12;83;0.16;0.73999999999999999;0.02;0.080000000000000002;0;8.015192761509297;70;9;21;2;es war etwas ermuedend
2019_03_21 12:11;45;0;0;practice;11;59;0;13;27;48;51;0.56999999999999995;0.13;0.13;0.17000000000000001;8;37;97;1;0.65000000000000002;0.16;0.14999999999999999;0.040000000000000001;0;10.767147381108089;70;9;21;2;es war etwas ermuedend
2019_03_21 12:11;45;0;0;practice;12;58;0;44;50;85;42;0.38;0.57999999999999996;0.02;0.02;37;88;19;12;0.20000000000000001;0.29999999999999999;0.46000000000000002;0.040000000000000001;1;6.83437417214509;70;9;21;2;es war etwas ermuedend
2019_03_21 12:11;45;0;0;practice;13;10;1;34;59;0;0;0.16;0.83999999999999997;0.0;0.0;21;61;96;7;0.19;0.01;0.5;0.29999999999999999;1;8.675548861801644;70;9;21;2;es war etwas ermuedend
2019_03_21 12:11;45;0;0;practice;14;9;0;57;44;0;0;0.14999999999999999;0.84999999999999998;0.0;0.0;38;35;64;95;0.34000000000000002;0.45000000000000001;0.089999999999999997;0.12;1;6.034047167445351;70;9;21;2;es war etwas ermuedend
2019_03_21 12:11;45;0;0;practice;15;51;0;38;13;51;84;0.91000000000000003;0.070000000000000007;0.01;0.0099999999999999603;4;89;35;16;0.80000000000000004;0.089999999999999997;0.059999999999999998;0.050000000000000003;1;11.497604231946298;70;9;21;2;es war etwas ermuedend
2019_03_21 12:11;45;0;0;practice;16;45;1;37;40;75;23;0.54000000000000004;0.38;0.059999999999999998;0.02;1;90;0;0;0.28000000000000003;0.71999999999999997;0.0;0.0;0;13.158616843243635;70;9;21;2;es war etwas ermuedend
2019_03_21 12:11;45;0;0;practice;17;1;0;67;36;0;0;0.14999999999999999;0.84999999999999998;0.0;0.0;1;4;81;77;0.25;0.54000000000000004;0.14000000000000001;0.070000000000000007;0;8.99598813084549;70;9;21;2;es war etwas ermuedend
2019_03_21 12:11;45;0;0;practice;18;31;1;72;59;40;92;0.59999999999999998;0.34999999999999998;0.02;0.029999999999999999;97;29;0;0;0.38;0.62;0.0;0.0;1;11.007170947511668;70;9;21;2;es war etwas ermuedend
2019_03_21 12:11;45;0;0;practice;19;19;1;25;73;0;0;0.69999999999999996;0.29999999999999999;0.0;0.0;87;84;1;86;0.040000000000000001;0.59999999999999998;0.28000000000000003;0.080000000000000002;1;11.727573590489783;70;9;21;2;es war etwas ermuedend
2019_03_21 12:11;45;0;0;practice;20;73;1;99;88;95;28;0.83999999999999997;0.14000000000000001;0.01;0.01;90;93;10;74;0.080000000000000002;0.46000000000000002;0.34999999999999998;0.11;0;12.938473020187985;70;9;21;2;es war etwas ermuedend
2019_03_21 12:11;45;0;0;practice;21;68;0;39;58;40;8;0.48999999999999999;0.44;0.02;0.050000000000000003;92;83;51;2;0.57999999999999996;0.13;0.02;0.27000000000000002;1;5.6136238701883485;70;9;21;2;es war etwas ermuedend
2019_03_21 12:11;45;0;0;practice;22;62;0;65;52;74;55;0.16;0.12;0.14999999999999999;0.56999999999999995;72;86;2;68;0.12;0.53000000000000003;0.22;0.13;1;10.4168075155917;70;9;21;2;es war etwas ermuedend
2019_03_21 12:11;45;0;0;practice;23;25;0;7;18;0;0;0.20999999999999999;0.79000000000000004;0.0;0.0;92;45;33;13;0.41999999999999998;0.17999999999999999;0.22;0.17999999999999999;1;6.964723197384956;70;9;21;2;es war etwas ermuedend
2019_03_21 12:11;45;0;0;practice;24;74;0;36;46;10;12;0.11;0.19;0.65000000000000002;0.049999999999999899;92;24;79;19;0.51000000000000001;0.40999999999999998;0.02;0.059999999999999998;1;3.9725618810532524;70;9;21;2;es war etwas ermuedend
2019_03_21 12:11;45;0;0;practice;25;16;0;50;42;0;0;0.32000000000000001;0.68000000000000005;0.0;0.0;97;2;56;31;0.35999999999999999;0.16;0.16;0.32000000000000001;1;5.753860008890342;70;9;21;2;es war etwas ermuedend
2019_03_21 12:11;45;0;0;practice;26;66;1;44;18;63;36;0.47999999999999998;0.10000000000000001;0.029999999999999999;0.39000000000000001;13;93;61;53;0.52000000000000002;0.45000000000000001;0.02;0.0099999999999999707;1;14.699681654702772;70;9;21;2;es war etwas ermuedend
2019_03_21 12:11;45;0;0;practice;27;36;0;56;89;86;77;0.66000000000000003;0.080000000000000002;0.14999999999999999;0.11;29;91;0;0;0.40999999999999998;0.58999999999999997;0.0;0.0;0;4.763053728706836;70;9;21;2;es war etwas ermuedend
2019_03_21 12:11;45;0;0;practice;28;28;0;37;83;75;8;0.83999999999999997;0.070000000000000007;0.01;0.080000000000000002;94;2;0;0;0.19;0.81000000000000005;0.0;0.0;0;4.2328462045195465;70;9;21;2;es war etwas ermuedend
2019_03_21 12:11;45;0;0;practice;29;3;1;20;70;0;0;0.13;0.87;0.0;0.0;95;19;80;73;0.31;0.57999999999999996;0.029999999999999999;0.080000000000000002;1;3.712400713534862;70;9;21;2;es war etwas ermuedend
2019_03_21 12:11;45;0;0;practice;30;56;1;47;52;64;10;0.77000000000000002;0.040000000000000001;0.11;0.080000000000000002;1;5;12;99;0.14000000000000001;0.28999999999999998;0.27000000000000002;0.29999999999999999;0;7.094607822070429;70;9;21;2;es war etwas ermuedend
2019_03_21 12:11;45;0;0;practice;31;15;1;24;59;0;0;0.56999999999999995;0.42999999999999999;0.0;0.0;9;8;80;22;0.31;0.10000000000000001;0.55000000000000004;0.039999999999999897;0;6.2341563400618725;70;9;21;2;es war etwas ermuedend
2019_03_21 12:11;45;0;0;practice;32;65;0;35;15;77;1;0.62;0.33000000000000002;0.029999999999999999;0.02;68;3;25;96;0.38;0.28000000000000003;0.28000000000000003;0.059999999999999901;1;10.016786091588301;70;9;21;2;es war etwas ermuedend
2019_03_21 12:11;45;0;0;practice;33;20;0;32;11;0;0;0.40999999999999998;0.58999999999999997;0.0;0.0;1;86;42;65;0.45000000000000001;0.38;0.050000000000000003;0.12;0;5.643800926107133;70;9;21;2;es war etwas ermuedend
2019_03_21 12:11;45;0;0;practice;34;55;1;53;11;80;74;0.31;0.37;0.28000000000000003;0.039999999999999897;6;93;98;96;0.69999999999999996;0.22;0.050000000000000003;0.029999999999999999;0;5.293408462737943;70;9;21;2;es war etwas ermuedend
2019_03_21 12:11;45;0;0;practice;35;38;1;51;89;10;60;0.57999999999999996;0.029999999999999999;0.080000000000000002;0.31;8;84;0;0;0.33000000000000002;0.67000000000000004;0.0;0.0;1;10.47681108198276;70;9;21;2;es war etwas ermuedend
2019_03_21 12:11;45;0;0;practice;36;72;0;86;85;97;43;0.51000000000000001;0.14999999999999999;0.33000000000000002;0.0099999999999999499;72;29;10;90;0.01;0.11;0.65000000000000002;0.23000000000000001;0;10.647076425321757;70;9;21;2;es war etwas ermuedend
2019_03_21 12:11;45;0;0;practice;37;17;0;27;61;0;0;0.68999999999999995;0.31;0.0;0.0;3;91;69;43;0.29999999999999999;0.33000000000000002;0.27000000000000002;0.099999999999999895;1;6.194154069374008;70;9;21;2;es war etwas ermuedend
2019_03_21 12:11;45;0;0;practice;38;47;0;91;99;90;78;0.93000000000000005;0.040000000000000001;0.02;0.0099999999999999499;10;87;0;0;0.23000000000000001;0.77000000000000002;0.0;0.0;0;5.393617314700123;70;9;21;2;es war etwas ermuedend
2019_03_21 12:11;45;0;0;practice;39;27;0;68;43;98;36;0.54000000000000004;0.44;0.01;0.0099999999999999603;97;13;0;0;0.27000000000000002;0.72999999999999998;0.0;0.0;0;5.353439290211327;70;9;21;2;es war etwas ermuedend
2019_03_21 12:11;45;0;0;practice;40;48;0;20;25;24;35;0.32000000000000001;0.13;0.48999999999999999;0.059999999999999901;44;76;0;0;0.29999999999999999;0.69999999999999996;0.0;0.0;1;10.39674881125643;70;9;21;2;es war etwas ermuedend
2019_03_21 12:11;45;0;0;practice;41;18;1;47;36;0;0;0.089999999999999997;0.91000000000000003;0.0;0.0;2;44;81;9;0.20000000000000001;0.25;0.51000000000000001;0.040000000000000001;1;7.094622895845305;70;9;21;2;es war etwas ermuedend
2019_03_21 12:11;45;0;0;practice;42;13;1;15;25;0;0;0.29999999999999999;0.69999999999999996;0.0;0.0;3;43;35;73;0.44;0.40000000000000002;0.01;0.14999999999999999;1;16.20077883308454;70;9;21;2;es war etwas ermuedend
2019_03_21 12:11;45;0;0;practice;43;23;0;99;93;0;0;0.57999999999999996;0.41999999999999998;0.0;0.0;64;10;80;81;0.13;0.55000000000000004;0.02;0.29999999999999999;0;3.802623029264396;70;9;21;2;es war etwas ermuedend
2019_03_21 12:11;45;0;0;practice;44;75;0;21;86;27;62;0.88;0.040000000000000001;0.070000000000000007;0.0099999999999999794;13;3;49;87;0.28999999999999998;0.39000000000000001;0.070000000000000007;0.25;1;10.696968375220195;70;9;21;2;es war etwas ermuedend
2019_03_21 12:11;45;0;0;practice;45;60;1;39;93;27;78;0.85999999999999999;0.02;0.11;0.01;22;5;62;95;0.059999999999999998;0.56999999999999995;0.14000000000000001;0.23000000000000001;0;9.976897034571493;70;9;21;2;es war etwas ermuedend
2019_03_21 12:11;45;0;0;practice;46;2;0;41;60;0;0;0.97999999999999998;0.02;0.0;0.0;10;14;97;6;0.54000000000000004;0.17000000000000001;0.12;0.17000000000000001;1;2.8319379935458073;70;9;21;2;es war etwas ermuedend
2019_03_21 12:11;45;0;0;practice;47;30;1;54;78;85;25;0.20999999999999999;0.60999999999999999;0.089999999999999997;0.090000000000000094;87;20;0;0;0.58999999999999997;0.40999999999999998;0.0;0.0;0;8.315370632053146;70;9;21;2;es war etwas ermuedend
2019_03_21 12:11;45;0;0;practice;48;24;0;19;38;0;0;0.89000000000000001;0.11;0.0;0.0;45;76;95;57;0.29999999999999999;0.22;0.40000000000000002;0.080000000000000002;1;2.671676825963459;70;9;21;2;es war etwas ermuedend
2019_03_21 12:11;45;0;0;practice;49;14;1;92;56;0;0;0.11;0.89000000000000001;0.0;0.0;97;31;51;4;0.58999999999999997;0.22;0.080000000000000002;0.11;1;7.194671388499955;70;9;21;2;es war etwas ermuedend
2019_03_21 12:11;45;0;0;practice;50;52;1;17;61;57;59;0.070000000000000007;0.050000000000000003;0.33000000000000002;0.55000000000000004;12;93;94;62;0.71999999999999997;0.16;0.080000000000000002;0.040000000000000001;1;9.966504789291093;70;9;21;2;es war etwas ermuedend
2019_03_21 12:11;45;0;0;practice;51;61;1;51;48;56;88;0.91000000000000003;0.02;0.01;0.059999999999999998;78;21;14;82;0.55000000000000004;0.29999999999999999;0.070000000000000007;0.080000000000000002;1;6.174000111609985;70;9;21;2;es war etwas ermuedend
2019_03_21 12:11;45;0;0;practice;52;6;0;42;59;0;0;0.35999999999999999;0.64000000000000001;0.0;0.0;77;19;6;7;0.44;0.14999999999999999;0.17999999999999999;0.23000000000000001;0;5.713706038297687;70;9;21;2;es war etwas ermuedend
2019_03_21 12:11;45;0;0;practice;53;41;0;19;54;51;8;0.76000000000000001;0.070000000000000007;0.16;0.0099999999999999794;2;77;0;0;0.54000000000000004;0.46000000000000002;0.0;0.0;0;2.7117037919842915;70;9;21;2;es war etwas ermuedend
2019_03_21 12:11;45;0;0;practice;54;42;1;23;45;91;22;0.72999999999999998;0.02;0.20000000000000001;0.050000000000000003;2;86;0;0;0.40999999999999998;0.58999999999999997;0.0;0.0;0;3.322125928239757;70;9;21;2;es war etwas ermuedend
2019_03_21 12:11;45;0;0;practice;55;63;0;24;82;6;96;0.91000000000000003;0.070000000000000007;0.01;0.0099999999999999603;73;10;71;22;0.31;0.51000000000000001;0.050000000000000003;0.13;1;6.414275442126609;70;9;21;2;es war etwas ermuedend
2019_03_21 12:11;45;0;0;practice;56;57;0;39;68;59;91;0.73999999999999999;0.040000000000000001;0.14999999999999999;0.070000000000000007;9;22;40;84;0.29999999999999999;0.32000000000000001;0.040000000000000001;0.34000000000000002;1;9.0560718768902;70;9;21;2;es war etwas ermuedend
2019_03_21 12:11;45;0;0;practice;57;5;0;23;58;0;0;0.71999999999999997;0.28000000000000003;0.0;0.0;94;12;52;3;0.11;0.84999999999999998;0.029999999999999999;0.01;1;4.753072003253465;70;9;21;2;es war etwas ermuedend
2019_03_21 12:11;45;0;0;practice;58;35;1;84;95;4;35;0.89000000000000001;0.050000000000000003;0.01;0.050000000000000003;5;98;0;0;0.19;0.81000000000000005;0.0;0.0;0;10.336852044164289;70;9;21;2;es war etwas ermuedend
2019_03_21 12:11;45;0;0;practice;59;32;0;21;86;16;78;0.45000000000000001;0.41999999999999998;0.050000000000000003;0.080000000000000099;95;9;0;0;0.42999999999999999;0.56999999999999995;0.0;0.0;0;4.012745678476904;70;9;21;2;es war etwas ermuedend
2019_03_21 12:11;45;0;0;practice;60;50;0;17;12;21;14;0.55000000000000004;0.34000000000000002;0.059999999999999998;0.049999999999999899;13;93;0;0;0.28999999999999998;0.70999999999999996;0.0;0.0;1;6.564388431294674;70;9;21;2;es war etwas ermuedend
2019_03_21 12:11;45;0;0;practice;61;21;0;59;69;0;0;0.34000000000000002;0.66000000000000003;0.0;0.0;64;18;5;24;0.14999999999999999;0.040000000000000001;0.51000000000000001;0.29999999999999999;0;3.1922214190003615;70;9;21;2;es war etwas ermuedend
2019_03_21 12:11;45;0;0;practice;62;44;1;69;48;22;63;0.39000000000000001;0.40999999999999998;0.19;0.01;1;94;0;0;0.22;0.78000000000000003;0.0;0.0;0;3.152019340615425;70;9;21;2;es war etwas ermuedend
2019_03_21 12:11;45;0;0;practice;63;37;1;50;66;99;12;0.26000000000000001;0.71999999999999997;0.01;0.01;22;90;0;0;0.37;0.63;0.0;0.0;0;2.672023843504576;70;9;21;2;es war etwas ermuedend
2019_03_21 12:11;45;0;0;practice;64;46;0;79;57;98;81;0.67000000000000004;0.070000000000000007;0.20999999999999999;0.050000000000000003;1;76;0;0;0.56000000000000005;0.44;0.0;0.0;0;2.4717106938489906;70;9;21;2;es war etwas ermuedend
2019_03_21 12:11;45;0;0;practice;65;39;0;53;65;48;75;0.92000000000000004;0.029999999999999999;0.01;0.040000000000000001;16;83;0;0;0.31;0.68999999999999995;0.0;0.0;0;2.8818196804488707;70;9;21;2;es war etwas ermuedend
2019_03_21 12:11;45;0;0;practice;66;33;1;54;82;55;71;0.56000000000000005;0.20999999999999999;0.02;0.20999999999999999;13;99;0;0;0.5;0.5;0.0;0.0;0;2.9920481026606467;70;9;21;2;es war etwas ermuedend
2019_03_21 12:11;45;0;0;practice;67;4;1;40;59;0;0;0.19;0.81000000000000005;0.0;0.0;10;88;13;45;0.56000000000000005;0.28999999999999998;0.01;0.14000000000000001;0;5.1134997520846355;70;9;21;2;es war etwas ermuedend
2019_03_21 12:11;45;0;0;practice;68;22;1;84;87;0;0;0.17000000000000001;0.82999999999999996;0.0;0.0;3;24;41;83;0.68000000000000005;0.11;0.10000000000000001;0.11;0;2.1615562293497987;70;9;21;2;es war etwas ermuedend
2019_03_21 12:11;45;0;0;practice;69;7;0;13;31;0;0;0.51000000000000001;0.48999999999999999;0.0;0.0;8;79;42;18;0.85999999999999999;0.089999999999999997;0.02;0.029999999999999999;1;2.4316769927370387;70;9;21;2;es war etwas ermuedend
2019_03_21 12:11;45;0;0;practice;70;43;0;11;17;21;44;0.16;0.46000000000000002;0.25;0.13;2;66;0;0;0.44;0.56000000000000005;0.0;0.0;0;9.03590220391402;70;9;21;2;es war etwas ermuedend
2019_03_21 12:11;45;0;0;practice;71;8;0;20;44;0;0;0.26000000000000001;0.73999999999999999;0.0;0.0;99;3;69;24;0.20999999999999999;0.60999999999999999;0.12;0.060000000000000102;1;2.5516600716227913;70;9;21;2;es war etwas ermuedend
2019_03_21 12:11;45;0;0;practice;72;67;1;74;31;10;77;0.11;0.070000000000000007;0.77000000000000002;0.050000000000000003;2;23;8;97;0.56999999999999995;0.01;0.059999999999999998;0.35999999999999999;1;7.214721754151242;70;9;21;2;es war etwas ermuedend
2019_03_21 12:11;45;0;0;practice;73;34;1;57;23;66;79;0.56000000000000005;0.23000000000000001;0.13;0.079999999999999905;85;9;0;0;0.56000000000000005;0.44;0.0;0.0;0;3.3521798282101827;70;9;21;2;es war etwas ermuedend
2019_03_21 12:11;45;0;0;practice;74;49;1;14;31;42;22;0.77000000000000002;0.089999999999999997;0.02;0.12;87;28;0;0;0.68000000000000005;0.32000000000000001;0.0;0.0;0;8.515682178115412;70;9;21;2;es war etwas ermuedend
2019_03_21 12:11;45;0;0;practice;75;11;0;10;44;0;0;0.48999999999999999;0.51000000000000001;0.0;0.0;88;12;54;50;0.17000000000000001;0.75;0.02;0.059999999999999998;1;3.7125229073269566;70;9;21;2;es war etwas ermuedend
2019_03_21 12:11;45;1;0;control;1;48;0;13;32;0;0;0.90000000000000002;0.10000000000000001;0.0;0.0;24;99;84;94;0.62;0.14999999999999999;0.20000000000000001;0.029999999999999999;1;2.277971634362757;70;9;21;2;es war etwas ermuedend
2019_03_21 12:11;45;1;0;control;2;30;1;33;30;0;0;0.71999999999999997;0.28000000000000003;0.0;0.0;9;88;1;14;0.55000000000000004;0.39000000000000001;0.01;0.049999999999999899;0;4.69297767349417;70;9;21;2;es war etwas ermuedend
2019_03_21 12:11;45;1;0;control;3;143;0;88;44;56;73;0.95999999999999996;0.02;0.01;0.01;20;3;87;32;0.19;0.40000000000000002;0.28000000000000003;0.13;0;3.932669296131735;70;9;21;2;es war etwas ermuedend
2019_03_21 12:11;45;1;0;control;4;21;0;64;28;0;0;0.080000000000000002;0.92000000000000004;0.0;0.0;50;1;88;13;0.57999999999999996;0.13;0.02;0.27000000000000002;0;6.714357417804649;70;9;21;2;es war etwas ermuedend
2019_03_21 12:11;45;1;0;control;5;139;0;44;31;16;8;0.79000000000000004;0.070000000000000007;0.13;0.0099999999999999499;92;58;2;88;0.55000000000000004;0.070000000000000007;0.34000000000000002;0.039999999999999897;1;4.653166551101094;70;9;21;2;es war etwas ermuedend
2019_03_21 12:11;45;1;0;control;6;114;1;57;39;79;97;0.77000000000000002;0.02;0.13;0.080000000000000002;92;36;6;1;0.54000000000000004;0.12;0.13;0.20999999999999999;1;6.103910586215989;70;9;21;2;es war etwas ermuedend
2019_03_21 12:11;45;1;0;control;7;57;0;52;35;23;47;0.22;0.68000000000000005;0.040000000000000001;0.059999999999999998;71;7;0;0;0.28999999999999998;0.70999999999999996;0.0;0.0;0;6.634449733450765;70;9;21;2;es war etwas ermuedend
2019_03_21 12:11;45;1;0;control;8;67;1;44;42;8;89;0.88;0.070000000000000007;0.029999999999999999;0.02;10;63;0;0;0.39000000000000001;0.60999999999999999;0.0;0.0;0;4.47301633933057;70;9;21;2;es war etwas ermuedend
2019_03_21 12:11;45;1;0;control;9;68;1;84;27;55;62;0.01;0.050000000000000003;0.40999999999999998;0.53000000000000003;9;82;0;0;0.37;0.63;0.0;0.0;0;5.703693203138755;70;9;21;2;es war etwas ermuedend
2019_03_21 12:11;45;1;0;control;10;9;1;61;69;0;0;0.93999999999999995;0.060000000000000102;0.0;0.0;18;93;72;16;0.40999999999999998;0.34999999999999998;0.089999999999999997;0.14999999999999999;0;3.9626487893833655;70;9;21;2;es war etwas ermuedend
2019_03_21 12:11;45;1;0;control;11;93;0;87;81;73;98;0.80000000000000004;0.040000000000000001;0.14999999999999999;0.0099999999999999499;5;71;0;0;0.51000000000000001;0.48999999999999999;0.0;0.0;0;3.2420861078167036;70;9;21;2;es war etwas ermuedend
2019_03_21 12:11;45;1;0;control;12;125;0;37;41;10;35;0.91000000000000003;0.040000000000000001;0.029999999999999999;0.02;7;13;91;93;0.26000000000000001;0.39000000000000001;0.16;0.19;1;9.776337573019646;70;9;21;2;es war etwas ermuedend
2019_03_21 12:11;45;1;0;control;13;149;1;14;89;73;53;0.93999999999999995;0.01;0.01;0.040000000000000001;97;45;6;13;0.34000000000000002;0.01;0.40999999999999998;0.23999999999999999;0;8.465571818840317;70;9;21;2;es war etwas ermuedend
2019_03_21 12:11;45;1;0;control;14;142;1;98;65;64;84;0.88;0.070000000000000007;0.01;0.040000000000000001;5;68;60;16;0.46000000000000002;0.080000000000000002;0.27000000000000002;0.19;0;4.492910194297565;70;9;21;2;es war etwas ermuedend
2019_03_21 12:11;45;1;0;control;15;123;1;26;24;51;92;0.72999999999999998;0.16;0.070000000000000007;0.040000000000000001;6;90;82;49;0.64000000000000001;0.25;0.050000000000000003;0.059999999999999998;1;10.386782159577933;70;9;21;2;es war etwas ermuedend
2019_03_21 12:11;45;1;0;control;16;69;1;54;34;64;49;0.34000000000000002;0.25;0.20999999999999999;0.20000000000000001;14;98;0;0;0.62;0.38;0.0;0.0;0;2.8718523873330923;70;9;21;2;es war etwas ermuedend
2019_03_21 12:11;45;1;0;control;17;34;1;32;48;0;0;0.28000000000000003;0.71999999999999997;0.0;0.0;97;83;7;62;0.040000000000000001;0.54000000000000004;0.35999999999999999;0.059999999999999901;1;4.192870874195478;70;9;21;2;es war etwas ermuedend
2019_03_21 12:11;45;1;0;control;18;121;1;42;51;47;70;0.41999999999999998;0.17000000000000001;0.23999999999999999;0.17000000000000001;21;76;48;9;0.14999999999999999;0.34000000000000002;0.40999999999999998;0.10000000000000001;0;4.0126812140354104;70;9;21;2;es war etwas ermuedend
2019_03_21 12:11;45;1;0;control;19;50;0;15;20;0;0;0.82999999999999996;0.17000000000000001;0.0;0.0;97;18;88;87;0.56999999999999995;0.39000000000000001;0.01;0.029999999999999999;1;3.1120238050184525;70;9;21;2;es war etwas ermuedend
2019_03_21 12:11;45;1;0;control;20;33;0;27;70;0;0;0.88;0.12;0.0;0.0;93;3;77;16;0.080000000000000002;0.40000000000000002;0.5;0.02;1;11.247457823898458;70;9;21;2;es war etwas ermuedend
2019_03_21 12:11;45;1;0;control;21;79;0;52;46;29;22;0.17999999999999999;0.51000000000000001;0.23999999999999999;0.070000000000000104;93;14;0;0;0.45000000000000001;0.55000000000000004;0.0;0.0;0;3.312130732604601;70;9;21;2;es war etwas ermuedend
2019_03_21 12:11;45;1;0;control;22;146;1;25;5;64;35;0.94999999999999996;0.02;0.01;0.02;47;97;12;79;0.20999999999999999;0.029999999999999999;0.02;0.73999999999999999;0;4.613128680646923;70;9;21;2;es war etwas ermuedend
2019_03_21 12:11;45;1;0;control;23;87;0;10;30;63;4;0.56999999999999995;0.12;0.16;0.14999999999999999;86;2;0;0;0.42999999999999999;0.56999999999999995;0.0;0.0;0;3.1121520924643846;70;9;21;2;es war etwas ermuedend
2019_03_21 12:11;45;1;0;control;24;81;0;67;38;52;65;0.27000000000000002;0.35999999999999999;0.01;0.35999999999999999;2;77;0;0;0.14000000000000001;0.85999999999999999;0.0;0.0;0;3.152052695351358;70;9;21;2;es war etwas ermuedend
2019_03_21 12:11;45;1;0;control;25;47;0;2;40;0;0;0.45000000000000001;0.55000000000000004;0.0;0.0;93;89;11;56;0.58999999999999997;0.070000000000000007;0.28000000000000003;0.059999999999999998;1;6.424169932116683;70;9;21;2;es war etwas ermuedend
2019_03_21 12:11;45;1;0;control;26;70;1;66;55;69;50;0.22;0.29999999999999999;0.29999999999999999;0.17999999999999999;2;90;0;0;0.34000000000000002;0.66000000000000003;0.0;0.0;0;2.551763343017001;70;9;21;2;es war etwas ermuedend
2019_03_21 12:11;45;1;0;control;27;51;1;52;23;43;16;0.60999999999999999;0.20999999999999999;0.01;0.17000000000000001;92;7;0;0;0.14999999999999999;0.84999999999999998;0.0;0.0;0;2.3114783909418293;70;9;21;2;es war etwas ermuedend
2019_03_21 12:11;45;1;0;control;28;117;0;65;85;92;41;0.23000000000000001;0.17999999999999999;0.54000000000000004;0.050000000000000003;99;93;10;13;0.64000000000000001;0.16;0.01;0.19;1;4.4929156465141205;70;9;21;2;es war etwas ermuedend
2019_03_21 12:11;45;1;0;control;29;77;1;24;17;99;41;0.17999999999999999;0.13;0.10000000000000001;0.58999999999999997;12;97;0;0;0.59999999999999998;0.40000000000000002;0.0;0.0;0;2.891831874170748;70;9;21;2;es war etwas ermuedend
2019_03_21 12:11;45;1;0;control;30;38;0;40;70;0;0;0.53000000000000003;0.46999999999999997;0.0;0.0;97;90;6;96;0.56999999999999995;0.070000000000000007;0.27000000000000002;0.089999999999999997;1;4.873197801922743;70;9;21;2;es war etwas ermuedend
2019_03_21 12:11;45;1;0;control;31;16;0;64;53;0;0;0.65000000000000002;0.34999999999999998;0.0;0.0;29;17;81;46;0.10000000000000001;0.01;0.44;0.45000000000000001;0;4.042601053624821;70;9;21;2;es war etwas ermuedend
2019_03_21 12:11;45;1;0;control;32;25;0;50;53;0;0;0.82999999999999996;0.17000000000000001;0.0;0.0;83;16;97;4;0.45000000000000001;0.29999999999999999;0.11;0.14000000000000001;0;4.3928321955304455;70;9;21;2;es war etwas ermuedend
2019_03_21 12:11;45;1;0;control;33;103;0;38;49;89;50;0.89000000000000001;0.070000000000000007;0.01;0.029999999999999999;6;64;99;27;0.70999999999999996;0.17999999999999999;0.059999999999999998;0.050000000000000003;0;4.08281307428706;70;9;21;2;es war etwas ermuedend
2019_03_21 12:11;45;1;0;control;34;116;1;53;65;43;99;0.56999999999999995;0.37;0.050000000000000003;0.010000000000000101;57;72;11;87;0.67000000000000004;0.13;0.14999999999999999;0.050000000000000003;0;5.093294158623394;70;9;21;2;es war etwas ermuedend
2019_03_21 12:11;45;1;0;control;35;27;1;44;26;0;0;0.35999999999999999;0.64000000000000001;0.0;0.0;63;10;3;5;0.58999999999999997;0.19;0.14999999999999999;0.070000000000000007;1;2.0713066525377144;70;9;21;2;es war etwas ermuedend
2019_03_21 12:11;45;1;0;control;36;32;1;19;81;0;0;0.93000000000000005;0.070000000000000007;0.0;0.0;1;65;41;68;0.45000000000000001;0.050000000000000003;0.059999999999999998;0.44;0;6.073918905656683;70;9;21;2;es war etwas ermuedend
2019_03_21 12:11;45;1;0;control;37;54;0;44;79;78;52;0.79000000000000004;0.19;0.01;0.0099999999999999603;96;1;0;0;0.28000000000000003;0.71999999999999997;0.0;0.0;0;2.6718096034701375;70;9;21;2;es war etwas ermuedend
2019_03_21 12:11;45;1;0;control;38;17;1;81;52;0;0;0.059999999999999998;0.93999999999999995;0.0;0.0;34;3;69;41;0.01;0.22;0.75;0.02;0;7.414957289901849;70;9;21;2;es war etwas ermuedend
2019_03_21 12:11;45;1;0;control;39;7;0;49;29;0;0;0.95999999999999996;0.040000000000000001;0.0;0.0;23;99;64;25;0.68999999999999995;0.12;0.059999999999999998;0.13;0;8.915820343695032;70;9;21;2;es war etwas ermuedend
2019_03_21 12:11;45;1;0;control;40;80;0;47;39;45;10;0.13;0.76000000000000001;0.059999999999999998;0.050000000000000003;2;87;0;0;0.48999999999999999;0.51000000000000001;0.0;0.0;0;1.9512257544747627;70;9;21;2;es war etwas ermuedend
2019_03_21 12:11;45;1;0;control;41;130;0;37;79;23;95;0.94999999999999996;0.029999999999999999;0.01;0.01;94;4;58;49;0.46000000000000002;0.5;0.029999999999999999;0.01;0;4.8531525677694844;70;9;21;2;es war etwas ermuedend
2019_03_21 12:11;45;1;0;control;42;66;1;89;23;27;15;0.070000000000000007;0.54000000000000004;0.17000000000000001;0.22;9;73;0;0;0.72999999999999998;0.27000000000000002;0.0;0.0;0;4.522911817133718;70;9;21;2;es war etwas ermuedend
2019_03_21 12:11;45;1;0;control;43;105;0;49;74;63;58;0.84999999999999998;0.080000000000000002;0.02;0.050000000000000003;97;5;86;8;0.25;0.52000000000000002;0.070000000000000007;0.16;0;6.85451016966681;70;9;21;2;es war etwas ermuedend
2019_03_21 12:11;45;1;0;control;44;11;1;17;36;0;0;0.14000000000000001;0.85999999999999999;0.0;0.0;19;41;34;95;0.88;0.02;0.050000000000000003;0.050000000000000003;1;1.881327698093628;70;9;21;2;es war etwas ermuedend
2019_03_21 12:11;45;1;0;control;45;90;0;27;44;50;72;0.68000000000000005;0.28999999999999998;0.02;0.0099999999999999707;6;96;0;0;0.46999999999999997;0.53000000000000003;0.0;0.0;0;4.242858398241879;70;9;21;2;es war etwas ermuedend
2019_03_21 12:11;45;1;0;control;46;148;1;37;63;55;10;0.72999999999999998;0.070000000000000007;0.029999999999999999;0.17000000000000001;80;14;23;70;0.46999999999999997;0.10000000000000001;0.23000000000000001;0.20000000000000001;1;3.8125893602241376;70;9;21;2;es war etwas ermuedend
2019_03_21 12:11;45;1;0;control;47;124;1;37;65;15;41;0.17999999999999999;0.45000000000000001;0.02;0.34999999999999998;40;7;98;30;0.070000000000000007;0.45000000000000001;0.45000000000000001;0.029999999999999898;1;8.055365975219047;70;9;21;2;es war etwas ermuedend
2019_03_21 12:11;45;1;0;control;48;115;1;50;28;61;79;0.83999999999999997;0.040000000000000001;0.059999999999999998;0.059999999999999998;1;26;97;55;0.45000000000000001;0.080000000000000002;0.40999999999999998;0.060000000000000102;0;4.09265657001697;70;9;21;2;es war etwas ermuedend
2019_03_21 12:11;45;1;0;control;49;113;0;85;65;39;64;0.44;0.34000000000000002;0.13;0.089999999999999997;87;2;4;35;0.67000000000000004;0.17000000000000001;0.11;0.049999999999999899;0;3.33209354207429;70;9;21;2;es war etwas ermuedend
2019_03_21 12:11;45;1;0;control;50;36;1;70;17;0;0;0.33000000000000002;0.67000000000000004;0.0;0.0;84;1;12;88;0.22;0.27000000000000002;0.14000000000000001;0.37;1;2.031384561504183;70;9;21;2;es war etwas ermuedend
2019_03_21 12:11;45;1;0;control;51;59;0;56;47;83;90;0.31;0.12;0.54000000000000004;0.029999999999999898;10;98;0;0;0.46999999999999997;0.53000000000000003;0.0;0.0;0;3.9526824584236238;70;9;21;2;es war etwas ermuedend
2019_03_21 12:11;45;1;0;control;52;94;0;84;86;93;39;0.78000000000000003;0.20000000000000001;0.01;0.0099999999999999603;9;83;0;0;0.46999999999999997;0.53000000000000003;0.0;0.0;0;3.031937480396209;70;9;21;2;es war etwas ermuedend
2019_03_21 12:11;45;1;0;control;53;73;0;65;68;70;47;0.25;0.23000000000000001;0.20999999999999999;0.31;27;95;0;0;0.45000000000000001;0.55000000000000004;0.0;0.0;0;3.79262430572453;70;9;21;2;es war etwas ermuedend
2019_03_21 12:11;45;1;0;control;54;53;1;26;70;50;80;0.29999999999999999;0.59999999999999998;0.040000000000000001;0.059999999999999998;89;1;0;0;0.40999999999999998;0.58999999999999997;0.0;0.0;0;2.351640700218468;70;9;21;2;es war etwas ermuedend
2019_03_21 12:11;45;1;0;control;55;129;0;12;29;81;36;0.17999999999999999;0.79000000000000004;0.01;0.02;5;19;95;92;0.47999999999999998;0.26000000000000001;0.13;0.13;1;9.726469677017121;70;9;21;2;es war etwas ermuedend
2019_03_21 12:11;45;1;0;control;56;75;0;67;80;36;81;0.81999999999999995;0.080000000000000002;0.059999999999999998;0.040000000000000001;3;97;0;0;0.32000000000000001;0.68000000000000005;0.0;0.0;0;2.4816969093631087;70;9;21;2;es war etwas ermuedend
2019_03_21 12:11;45;1;0;control;57;101;1;30;96;61;45;0.65000000000000002;0.14000000000000001;0.11;0.10000000000000001;3;98;63;89;0.75;0.19;0.040000000000000001;0.02;0;3.212130668460759;70;9;21;2;es war etwas ermuedend
2019_03_21 12:11;45;1;0;control;58;31;0;10;59;0;0;0.23999999999999999;0.76000000000000001;0.0;0.0;1;79;53;73;0.23000000000000001;0.58999999999999997;0.050000000000000003;0.13;1;4.833253260585479;70;9;21;2;es war etwas ermuedend
2019_03_21 12:11;45;1;0;control;59;64;1;48;39;34;19;0.46000000000000002;0.5;0.02;0.02;13;92;0;0;0.68999999999999995;0.31;0.0;0.0;0;3.5524115153375533;70;9;21;2;es war etwas ermuedend
2019_03_21 12:11;45;1;0;control;60;78;1;74;36;34;3;0.14999999999999999;0.64000000000000001;0.13;0.080000000000000002;1;83;0;0;0.41999999999999998;0.57999999999999996;0.0;0.0;0;2.281443413369743;70;9;21;2;es war etwas ermuedend
2019_03_21 12:11;45;1;0;control;61;102;1;40;56;53;17;0.28000000000000003;0.26000000000000001;0.14999999999999999;0.31;1;76;29;62;0.68000000000000005;0.23000000000000001;0.050000000000000003;0.039999999999999897;0;2.25142960322637;70;9;21;2;es war etwas ermuedend
2019_03_21 12:11;45;1;0;control;62;106;0;85;69;22;61;0.10000000000000001;0.58999999999999997;0.17999999999999999;0.13;20;79;91;84;0.55000000000000004;0.14999999999999999;0.26000000000000001;0.039999999999999897;0;3.5722832407204805;70;9;21;2;es war etwas ermuedend
2019_03_21 12:11;45;1;0;control;63;18;0;68;50;0;0;0.029999999999999999;0.96999999999999997;0.0;0.0;34;64;15;89;0.65000000000000002;0.029999999999999999;0.050000000000000003;0.27000000000000002;1;1.661051738968581;70;9;21;2;es war etwas ermuedend
2019_03_21 12:11;45;1;0;control;64;8;1;50;36;0;0;0.080000000000000002;0.92000000000000004;0.0;0.0;6;19;84;29;0.54000000000000004;0.070000000000000007;0.17000000000000001;0.22;1;2.992107435604339;70;9;21;2;es war etwas ermuedend
2019_03_21 12:11;45;1;0;control;65;72;0;63;82;51;61;0.01;0.96999999999999997;0.01;0.01;92;12;0;0;0.89000000000000001;0.11;0.0;0.0;0;3.041946146212922;70;9;21;2;es war etwas ermuedend
2019_03_21 12:11;45;1;0;control;66;138;1;8;20;43;51;0.38;0.5;0.02;0.10000000000000001;72;82;70;1;0.39000000000000001;0.050000000000000003;0.070000000000000007;0.48999999999999999;0;3.4421673779138473;70;9;21;2;es war etwas ermuedend
2019_03_21 12:11;45;1;0;control;67;98;0;27;10;31;79;0.23000000000000001;0.67000000000000004;0.070000000000000007;0.029999999999999999;25;99;0;0;0.38;0.62;0.0;0.0;1;3.672502997115771;70;9;21;2;es war etwas ermuedend
2019_03_21 12:11;45;1;0;control;68;132;0;27;70;21;19;0.64000000000000001;0.23000000000000001;0.029999999999999999;0.10000000000000001;11;85;55;6;0.39000000000000001;0.46999999999999997;0.029999999999999999;0.11;0;9.01588679659153;70;9;21;2;es war etwas ermuedend
2019_03_21 12:11;45;1;0;control;69;45;1;97;87;0;0;0.71999999999999997;0.28000000000000003;0.0;0.0;96;11;14;4;0.25;0.029999999999999999;0.14000000000000001;0.57999999999999996;0;2.8017974995495933;70;9;21;2;es war etwas ermuedend
2019_03_21 12:11;45;1;0;control;70;100;1;27;14;59;52;0.02;0.95999999999999996;0.01;0.01;17;98;0;0;0.48999999999999999;0.51000000000000001;0.0;0.0;1;5.6336280523591995;70;9;21;2;es war etwas ermuedend
2019_03_21 12:11;45;1;0;control;71;97;1;17;33;32;74;0.94999999999999996;0.01;0.029999999999999999;0.01;76;23;0;0;0.33000000000000002;0.67000000000000004;0.0;0.0;1;5.32340816126225;70;9;21;2;es war etwas ermuedend
2019_03_21 12:11;45;1;0;control;72;86;0;56;30;57;88;0.20000000000000001;0.35999999999999999;0.080000000000000002;0.35999999999999999;98;2;0;0;0.77000000000000002;0.23000000000000001;0.0;0.0;0;10.677065540131935;70;9;21;2;es war etwas ermuedend
2019_03_21 12:11;45;1;0;control;73;127;1;89;26;62;79;0.02;0.28999999999999998;0.53000000000000003;0.16;96;6;60;13;0.53000000000000003;0.25;0.17000000000000001;0.050000000000000003;1;6.254048912154758;70;9;21;2;es war etwas ermuedend
2019_03_21 12:11;45;1;0;control;74;120;0;64;40;48;51;0.19;0.02;0.070000000000000007;0.71999999999999997;97;9;79;94;0.23000000000000001;0.54000000000000004;0.01;0.22;1;8.005222581925864;70;9;21;2;es war etwas ermuedend
2019_03_21 12:11;45;1;0;control;75;23;0;54;40;0;0;0.93000000000000005;0.070000000000000007;0.0;0.0;36;23;71;86;0.02;0.41999999999999998;0.19;0.37;0;6.594271708961969;70;9;21;2;es war etwas ermuedend
2019_03_21 12:11;45;2;0;timed;1;81;0;67;38;52;65;0.27000000000000002;0.35999999999999999;0.01;0.35999999999999999;2;77;0;0;0.14000000000000001;0.85999999999999999;0.0;0.0;0;1.4761750969692002;70;9;21;2;es war etwas ermuedend
2019_03_21 12:11;45;2;0;timed;2;113;1;85;65;39;64;0.44;0.34000000000000002;0.13;0.089999999999999997;87;2;4;35;0.67000000000000004;0.17000000000000001;0.11;0.049999999999999899;0;1.4510358890543102;70;9;21;2;es war etwas ermuedend
2019_03_21 12:11;45;2;0;timed;3;42;0;70;48;0;0;0.79000000000000004;0.20999999999999999;0.0;0.0;51;8;12;67;0.19;0.26000000000000001;0.28999999999999998;0.26000000000000001;1;1.641222027724325;70;9;21;2;es war etwas ermuedend
2019_03_21 12:11;45;2;0;timed;4;76;0;39;62;9;28;0.01;0.51000000000000001;0.26000000000000001;0.22;77;7;0;0;0.57999999999999996;0.41999999999999998;0.0;0.0;0;1.5509740545053319;70;9;21;2;es war etwas ermuedend
2019_03_21 12:11;45;2;0;timed;5;96;1;51;54;39;7;0.17000000000000001;0.26000000000000001;0.10000000000000001;0.46999999999999997;24;96;0;0;0.28000000000000003;0.71999999999999997;0.0;0.0;1;1.7610777813197274;70;9;21;2;es war etwas ermuedend
2019_03_21 12:11;45;2;0;timed;6;138;1;8;20;43;51;0.38;0.5;0.02;0.10000000000000001;72;82;70;1;0.39000000000000001;0.050000000000000003;0.070000000000000007;0.48999999999999999;0;1.6512024703029056;70;9;21;2;es war etwas ermuedend
2019_03_21 12:11;45;2;0;timed;7;43;1;60;83;0;0;0.23000000000000001;0.77000000000000002;0.0;0.0;72;5;70;12;0.29999999999999999;0.40999999999999998;0.12;0.17000000000000001;0;1.7112066781314752;70;9;21;2;es war etwas ermuedend
2019_03_21 12:11;45;2;0;timed;8;2;1;59;32;0;0;0.080000000000000002;0.92000000000000004;0.0;0.0;33;38;85;1;0.28999999999999998;0.050000000000000003;0.070000000000000007;0.58999999999999997;0;1.5509416619256626;70;9;21;2;es war etwas ermuedend
2019_03_21 12:11;45;2;0;timed;9;12;0;53;68;0;0;0.31;0.68999999999999995;0.0;0.0;69;54;97;29;0.25;0.20999999999999999;0.20000000000000001;0.34000000000000002;1;1.4709804175627141;70;9;21;2;es war etwas ermuedend
2019_03_21 12:11;45;2;0;timed;10;19;0;22;53;0;0;0.13;0.87;0.0;0.0;4;93;96;65;0.46999999999999997;0.059999999999999998;0.26000000000000001;0.20999999999999999;1;1.5409801417445124;70;9;21;2;es war etwas ermuedend
2019_03_21 12:11;45;2;0;timed;11;123;0;26;24;51;92;0.72999999999999998;0.16;0.070000000000000007;0.040000000000000001;6;90;82;49;0.64000000000000001;0.25;0.050000000000000003;0.059999999999999998;0;2.0613053632491756;70;9;21;2;es war etwas ermuedend
2019_03_21 12:11;45;2;0;timed;12;50;0;15;20;0;0;0.82999999999999996;0.17000000000000001;0.0;0.0;97;18;88;87;0.56999999999999995;0.39000000000000001;0.01;0.029999999999999999;1;1.4208822455948393;70;9;21;2;es war etwas ermuedend
2019_03_21 12:11;45;2;0;timed;13;72;1;63;82;51;61;0.01;0.96999999999999997;0.01;0.01;92;12;0;0;0.89000000000000001;0.11;0.0;0.0;0;1.6310225343313505;70;9;21;2;es war etwas ermuedend
2019_03_21 12:11;45;2;0;timed;14;36;0;70;17;0;0;0.33000000000000002;0.67000000000000004;0.0;0.0;84;1;12;88;0.22;0.27000000000000002;0.14000000000000001;0.37;1;1.9112799302629355;70;9;21;2;es war etwas ermuedend
2019_03_21 12:11;45;2;0;timed;15;37;1;14;98;0;0;0.93000000000000005;0.070000000000000007;0.0;0.0;41;2;87;66;0.17999999999999999;0.48999999999999999;0.32000000000000001;0.010000000000000101;1;1.5911735671411407;70;9;21;2;es war etwas ermuedend
2019_03_21 12:11;45;2;0;timed;16;22;1;32;55;0;0;0.39000000000000001;0.60999999999999999;0.0;0.0;93;72;59;22;0.20000000000000001;0.11;0.14000000000000001;0.55000000000000004;1;1.4810715080639056;70;9;21;2;es war etwas ermuedend
2019_03_21 12:11;45;2;0;timed;17;132;0;27;70;21;19;0.64000000000000001;0.23000000000000001;0.029999999999999999;0.10000000000000001;11;85;55;6;0.39000000000000001;0.46999999999999997;0.029999999999999999;0.11;0;1.6610360237564237;70;9;21;2;es war etwas ermuedend
2019_03_21 12:11;45;2;0;timed;18;107;1;52;48;13;63;0.68000000000000005;0.19;0.050000000000000003;0.079999999999999905;54;91;33;3;0.19;0.17999999999999999;0.33000000000000002;0.29999999999999999;1;2.011287050216197;70;9;21;2;es war etwas ermuedend
2019_03_21 12:11;45;2;0;timed;19;49;0;21;30;0;0;0.53000000000000003;0.46999999999999997;0.0;0.0;93;99;89;25;0.44;0.02;0.11;0.42999999999999999;1;1.3509720019064844;70;9;21;2;es war etwas ermuedend
2019_03_21 12:11;45;2;0;timed;20;65;0;75;64;59;52;0.59999999999999998;0.22;0.14000000000000001;0.040000000000000001;1;99;0;0;0.35999999999999999;0.64000000000000001;0.0;0.0;0;1.4308880249441245;70;9;21;2;es war etwas ermuedend
2019_03_21 12:11;45;2;0;timed;21;104;0;55;85;93;3;0.87;0.02;0.089999999999999997;0.02;1;2;90;8;0.35999999999999999;0.070000000000000007;0.40000000000000002;0.17000000000000001;0;1.5409269024548848;70;9;21;2;es war etwas ermuedend
2019_03_21 12:11;45;2;0;timed;22;21;0;64;28;0;0;0.080000000000000002;0.92000000000000004;0.0;0.0;50;1;88;13;0.57999999999999996;0.13;0.02;0.27000000000000002;1;1.5509897697174893;70;9;21;2;es war etwas ermuedend
2019_03_21 12:11;45;2;0;timed;23;150;1;25;21;78;38;0.84999999999999998;0.059999999999999998;0.050000000000000003;0.040000000000000001;31;43;64;95;0.059999999999999998;0.45000000000000001;0.13;0.35999999999999999;1;1.5709827267369292;70;9;21;2;es war etwas ermuedend
2019_03_21 12:11;45;2;0;timed;24;129;1;12;29;81;36;0.17999999999999999;0.79000000000000004;0.01;0.02;5;19;95;92;0.47999999999999998;0.26000000000000001;0.13;0.13;1;1.9212263766685282;70;9;21;2;es war etwas ermuedend
2019_03_21 12:11;45;2;0;timed;25;15;1;77;81;0;0;0.28000000000000003;0.71999999999999997;0.0;0.0;98;14;87;18;0.55000000000000004;0.23000000000000001;0.16;0.059999999999999901;0;2.2714302574918293;70;9;21;2;es war etwas ermuedend
2019_03_21 12:11;45;2;0;timed;26;80;1;47;39;45;10;0.13;0.76000000000000001;0.059999999999999998;0.050000000000000003;2;87;0;0;0.48999999999999999;0.51000000000000001;0.0;0.0;0;1.5711203150226538;70;9;21;2;es war etwas ermuedend
2019_03_21 12:11;45;2;0;timed;27;130;0;37;79;23;95;0.94999999999999996;0.029999999999999999;0.01;0.01;94;4;58;49;0.46000000000000002;0.5;0.029999999999999999;0.01;0;1.5711052412480058;70;9;21;2;es war etwas ermuedend
2019_03_21 12:11;45;2;0;timed;28;142;1;98;65;64;84;0.88;0.070000000000000007;0.01;0.040000000000000001;5;68;60;16;0.46000000000000002;0.080000000000000002;0.27000000000000002;0.19;0;1.6512111297056435;70;9;21;2;es war etwas ermuedend
2019_03_21 12:11;45;2;0;timed;29;101;0;30;96;61;45;0.65000000000000002;0.14000000000000001;0.11;0.10000000000000001;3;98;63;89;0.75;0.19;0.040000000000000001;0.02;0;1.6711983137897732;70;9;21;2;es war etwas ermuedend
2019_03_21 12:11;45;2;0;timed;30;75;0;67;80;36;81;0.81999999999999995;0.080000000000000002;0.059999999999999998;0.040000000000000001;3;97;0;0;0.32000000000000001;0.68000000000000005;0.0;0.0;0;1.52094613274312;70;9;21;2;es war etwas ermuedend
2019_03_21 12:11;45;2;0;timed;31;121;0;42;51;47;70;0.41999999999999998;0.17000000000000001;0.23999999999999999;0.17000000000000001;21;76;48;9;0.14999999999999999;0.34000000000000002;0.40999999999999998;0.10000000000000001;1;1.7710960686949875;70;9;21;2;es war etwas ermuedend
2019_03_21 12:11;45;2;0;timed;32;46;0;5;19;0;0;0.32000000000000001;0.68000000000000005;0.0;0.0;88;38;97;66;0.60999999999999999;0.20000000000000001;0.040000000000000001;0.14999999999999999;1;1.1908869088433676;70;9;21;2;es war etwas ermuedend
2019_03_21 12:11;45;2;0;timed;33;57;0;52;35;23;47;0.22;0.68000000000000005;0.040000000000000001;0.059999999999999998;71;7;0;0;0.28999999999999998;0.70999999999999996;0.0;0.0;0;1.3109360557641594;70;9;21;2;es war etwas ermuedend
2019_03_21 12:11;45;2;0;timed;34;18;0;68;50;0;0;0.029999999999999999;0.96999999999999997;0.0;0.0;34;64;15;89;0.65000000000000002;0.029999999999999999;0.050000000000000003;0.27000000000000002;1;1.6712165947506037;70;9;21;2;es war etwas ermuedend
2019_03_21 12:11;45;2;0;timed;35;30;0;33;30;0;0;0.71999999999999997;0.28000000000000003;0.0;0.0;9;88;1;14;0.55000000000000004;0.39000000000000001;0.01;0.049999999999999899;1;1.6410449910486022;70;9;21;2;es war etwas ermuedend
2019_03_21 12:11;45;2;0;timed;36;112;1;70;44;98;64;0.02;0.75;0.12;0.11;33;2;63;85;0.23999999999999999;0.31;0.080000000000000002;0.37;0;2.211473516018941;70;9;21;2;es war etwas ermuedend
2019_03_21 12:11;45;2;0;timed;37;39;1;14;33;0;0;0.78000000000000003;0.22;0.0;0.0;93;84;1;25;0.14000000000000001;0.23999999999999999;0.39000000000000001;0.23000000000000001;1;1.3509780955600945;70;9;21;2;es war etwas ermuedend
2019_03_21 12:11;45;2;0;timed;38;78;1;74;36;34;3;0.14999999999999999;0.64000000000000001;0.13;0.080000000000000002;1;83;0;0;0.41999999999999998;0.57999999999999996;0.0;0.0;0;1.5109560686055374;70;9;21;2;es war etwas ermuedend
2019_03_21 12:11;45;2;0;timed;39;64;0;48;39;34;19;0.46000000000000002;0.5;0.02;0.02;13;92;0;0;0.68999999999999995;0.31;0.0;0.0;0;1.711211809629276;70;9;21;2;es war etwas ermuedend
2019_03_21 12:11;45;2;0;timed;40;54;1;44;79;78;52;0.79000000000000004;0.19;0.01;0.0099999999999999603;96;1;0;0;0.28000000000000003;0.71999999999999997;0.0;0.0;0;2.2415456969501975;70;9;21;2;es war etwas ermuedend
2019_03_21 12:11;45;2;0;timed;41;44;0;79;74;0;0;0.71999999999999997;0.28000000000000003;0.0;0.0;3;67;15;36;0.41999999999999998;0.53000000000000003;0.02;0.029999999999999999;0;1.9613611041445438;70;9;21;2;es war etwas ermuedend
2019_03_21 12:11;45;2;0;timed;42;128;0;70;49;27;54;0.27000000000000002;0.53000000000000003;0.02;0.17999999999999999;72;97;6;20;0.29999999999999999;0.39000000000000001;0.22;0.0899999999999999;1;2.0512896416225885;70;9;21;2;es war etwas ermuedend
2019_03_21 12:11;45;2;0;timed;43;148;0;37;63;55;10;0.72999999999999998;0.070000000000000007;0.029999999999999999;0.17000000000000001;80;14;23;70;0.46999999999999997;0.10000000000000001;0.23000000000000001;0.20000000000000001;0;1.650999776138633;70;9;21;2;es war etwas ermuedend
2019_03_21 12:11;45;2;0;timed;44;40;1;45;49;0;0;0.68999999999999995;0.31;0.0;0.0;2;92;65;73;0.23999999999999999;0.59999999999999998;0.11;0.050000000000000003;1;1.1908657414146546;70;9;21;2;es war etwas ermuedend
2019_03_21 12:11;45;2;0;timed;45;47;1;2;40;0;0;0.45000000000000001;0.55000000000000004;0.0;0.0;93;89;11;56;0.58999999999999997;0.070000000000000007;0.28000000000000003;0.059999999999999998;1;1.6511585318526159;70;9;21;2;es war etwas ermuedend
2019_03_21 12:11;45;2;0;timed;46;41;1;99;40;0;0;0.89000000000000001;0.11;0.0;0.0;1;67;52;46;0.51000000000000001;0.38;0.029999999999999999;0.080000000000000002;0;1.9412276723719515;70;9;21;2;es war etwas ermuedend
2019_03_21 12:11;45;2;0;timed;47;3;1;53;40;0;0;0.31;0.68999999999999995;0.0;0.0;96;24;7;88;0.11;0.27000000000000002;0.58999999999999997;0.029999999999999999;1;1.9512257544747627;70;9;21;2;es war etwas ermuedend
2019_03_21 12:11;45;2;0;timed;48;144;1;99;93;90;71;0.65000000000000002;0.32000000000000001;0.01;0.02;97;14;48;73;0.23000000000000001;0.46000000000000002;0.13;0.17999999999999999;0;1.6510440353072227;70;9;21;2;es war etwas ermuedend
2019_03_21 12:11;45;2;0;timed;49;60;0;64;59;57;96;0.83999999999999997;0.13;0.02;0.01;83;6;0;0;0.54000000000000004;0.46000000000000002;0.0;0.0;0;1.6010314952095541;70;9;21;2;es war etwas ermuedend
2019_03_21 12:11;45;2;0;timed;50;25;0;50;53;0;0;0.82999999999999996;0.17000000000000001;0.0;0.0;83;16;97;4;0.45000000000000001;0.29999999999999999;0.11;0.14000000000000001;0;2.0414929708099407;70;9;21;2;es war etwas ermuedend
2019_03_21 12:11;45;2;0;timed;51;87;1;10;30;63;4;0.56999999999999995;0.12;0.16;0.14999999999999999;86;2;0;0;0.42999999999999999;0.56999999999999995;0.0;0.0;0;2.1113522202385866;70;9;21;2;es war etwas ermuedend
2019_03_21 12:11;45;2;0;timed;52;82;0;78;66;30;27;0.28999999999999998;0.58999999999999997;0.080000000000000002;0.040000000000000001;90;6;0;0;0.82999999999999996;0.17000000000000001;0.0;0.0;0;1.380853034543179;70;9;21;2;es war etwas ermuedend
2019_03_21 12:11;45;2;0;timed;53;98;1;27;10;31;79;0.23000000000000001;0.67000000000000004;0.070000000000000007;0.029999999999999999;25;99;0;0;0.38;0.62;0.0;0.0;0;1.1508243430562288;70;9;21;2;es war etwas ermuedend
2019_03_21 12:11;45;2;0;timed;54;147;1;39;43;76;28;0.14000000000000001;0.10000000000000001;0.10000000000000001;0.66000000000000003;6;31;68;85;0.27000000000000002;0.20000000000000001;0.22;0.31;1;1.6310376081064533;70;9;21;2;es war etwas ermuedend
2019_03_21 12:11;45;2;0;timed;55;32;1;19;81;0;0;0.93000000000000005;0.070000000000000007;0.0;0.0;1;65;41;68;0.45000000000000001;0.050000000000000003;0.059999999999999998;0.44;1;1.1408269023904722;70;9;21;2;es war etwas ermuedend
2019_03_21 12:11;45;2;0;timed;56;97;1;17;33;32;74;0.94999999999999996;0.01;0.029999999999999999;0.01;76;23;0;0;0.33000000000000002;0.67000000000000004;0.0;0.0;0;1.1506819439910032;70;9;21;2;es war etwas ermuedend
2019_03_21 12:11;45;2;0;timed;57;102;0;40;56;53;17;0.28000000000000003;0.26000000000000001;0.14999999999999999;0.31;1;76;29;62;0.68000000000000005;0.23000000000000001;0.050000000000000003;0.039999999999999897;0;1.4510160045001612;70;9;21;2;es war etwas ermuedend
2019_03_21 12:11;45;2;0;timed;58;114;0;57;39;79;97;0.77000000000000002;0.02;0.13;0.080000000000000002;92;36;6;1;0.54000000000000004;0.12;0.13;0.20999999999999999;1;1.6111755042820732;70;9;21;2;es war etwas ermuedend
2019_03_21 12:11;45;2;0;timed;59;58;1;37;58;76;34;0.20999999999999999;0.57999999999999996;0.19;0.020000000000000101;86;5;0;0;0.47999999999999998;0.52000000000000002;0.0;0.0;0;1.7312131053322446;70;9;21;2;es war etwas ermuedend
2019_03_21 12:11;45;2;0;timed;60;79;0;52;46;29;22;0.17999999999999999;0.51000000000000001;0.23999999999999999;0.070000000000000104;93;14;0;0;0.45000000000000001;0.55000000000000004;0.0;0.0;0;1.0506350549294439;70;9;21;2;es war etwas ermuedend
2019_03_21 12:11;45;2;0;timed;61;106;0;85;69;22;61;0.10000000000000001;0.58999999999999997;0.17999999999999999;0.13;20;79;91;84;0.55000000000000004;0.14999999999999999;0.26000000000000001;0.039999999999999897;0;1.7310851386050672;70;9;21;2;es war etwas ermuedend
2019_03_21 12:11;45;2;0;timed;62;67;1;44;42;8;89;0.88;0.070000000000000007;0.029999999999999999;0.02;10;63;0;0;0.39000000000000001;0.60999999999999999;0.0;0.0;0;1.030380070802039;70;9;21;2;es war etwas ermuedend
2019_03_21 12:11;45;2;0;timed;63;69;1;54;34;64;49;0.34000000000000002;0.25;0.20999999999999999;0.20000000000000001;14;98;0;0;0.62;0.38;0.0;0.0;0;1.110817261588636;70;9;21;2;es war etwas ermuedend
2019_03_21 12:11;45;2;0;timed;64;62;0;12;45;16;50;0.20999999999999999;0.76000000000000001;0.02;0.01;92;15;0;0;0.20999999999999999;0.79000000000000004;0.0;0.0;0;1.1307213795516873;70;9;21;2;es war etwas ermuedend
2019_03_21 12:11;45;2;0;timed;65;48;0;13;32;0;0;0.90000000000000002;0.10000000000000001;0.0;0.0;24;99;84;94;0.62;0.14999999999999999;0.20000000000000001;0.029999999999999999;1;0.990715516815726;70;9;21;2;es war etwas ermuedend
2019_03_21 12:11;45;2;0;timed;66;84;1;43;10;5;45;0.78000000000000003;0.13;0.059999999999999998;0.029999999999999999;87;1;0;0;0.57999999999999996;0.41999999999999998;0.0;0.0;0;1.7110719763131783;70;9;21;2;es war etwas ermuedend
2019_03_21 12:11;45;2;0;timed;67;110;1;47;44;23;52;0.13;0.27000000000000002;0.040000000000000001;0.56000000000000005;99;2;30;22;0.28999999999999998;0.5;0.11;0.10000000000000001;1;1.410885767084892;70;9;21;2;es war etwas ermuedend
2019_03_21 12:11;45;2;0;timed;68;13;1;52;56;0;0;0.46999999999999997;0.53000000000000003;0.0;0.0;94;71;27;2;0.089999999999999997;0.31;0.57999999999999996;0.020000000000000101;1;0.9907684353870536;70;9;21;2;es war etwas ermuedend
2019_03_21 12:11;45;2;0;timed;69;10;1;45;62;0;0;0.059999999999999998;0.93999999999999995;0.0;0.0;17;99;28;67;0.58999999999999997;0.34000000000000002;0.01;0.059999999999999998;1;1.050302469725466;70;9;21;2;es war etwas ermuedend
2019_03_21 12:11;45;2;0;timed;70;59;1;56;47;83;90;0.31;0.12;0.54000000000000004;0.029999999999999898;10;98;0;0;0.46999999999999997;0.53000000000000003;0.0;0.0;0;1.1908557991378075;70;9;21;2;es war etwas ermuedend
2019_03_21 12:11;45;2;0;timed;71;17;1;81;52;0;0;0.059999999999999998;0.93999999999999995;0.0;0.0;34;3;69;41;0.01;0.22;0.75;0.02;1;0.9105028290587143;70;9;21;2;es war etwas ermuedend
2019_03_21 12:11;45;2;0;timed;72;70;0;66;55;69;50;0.22;0.29999999999999999;0.29999999999999999;0.17999999999999999;2;90;0;0;0.34000000000000002;0.66000000000000003;0.0;0.0;0;1.4710301289478593;70;9;21;2;es war etwas ermuedend
2019_03_21 12:11;45;2;0;timed;73;24;1;35;27;0;0;0.070000000000000007;0.93000000000000005;0.0;0.0;62;3;81;95;0.35999999999999999;0.55000000000000004;0.01;0.080000000000000002;1;2.151369243982572;70;9;21;2;es war etwas ermuedend
2019_03_21 12:11;45;2;0;timed;74;14;0;36;40;0;0;0.54000000000000004;0.46000000000000002;0.0;0.0;99;70;1;11;0.16;0.089999999999999997;0.080000000000000002;0.67000000000000004;1;1.3209444008625724;70;9;21;2;es war etwas ermuedend
2019_03_21 12:11;45;2;0;timed;75;88;1;77;13;12;7;0.12;0.19;0.66000000000000003;0.029999999999999898;94;2;0;0;0.40999999999999998;0.58999999999999997;0.0;0.0;0;2.121329776350194;70;9;21;2;es war etwas ermuedend
2019_03_21 12:11;45;3;0;control;1;15;1;77;81;0;0;0.28000000000000003;0.71999999999999997;0.0;0.0;98;14;87;18;0.55000000000000004;0.23000000000000001;0.16;0.059999999999999901;0;3.3198292622382723;70;9;21;2;es war etwas ermuedend
2019_03_21 12:11;45;3;0;control;2;4;0;40;43;0;0;0.58999999999999997;0.40999999999999998;0.0;0.0;2;33;88;81;0.69999999999999996;0.14000000000000001;0.13;0.029999999999999999;0;3.472354055390497;70;9;21;2;es war etwas ermuedend
2019_03_21 12:11;45;3;0;control;3;63;0;56;78;42;36;0.93000000000000005;0.040000000000000001;0.01;0.0199999999999999;2;72;0;0;0.32000000000000001;0.68000000000000005;0.0;0.0;0;1.5210891732454002;70;9;21;2;es war etwas ermuedend
2019_03_21 12:11;45;3;0;control;4;41;1;99;40;0;0;0.89000000000000001;0.11;0.0;0.0;1;67;52;46;0.51000000000000001;0.38;0.029999999999999999;0.080000000000000002;0;4.402849841469106;70;9;21;2;es war etwas ermuedend
2019_03_21 12:11;45;3;0;control;5;85;1;31;22;82;50;0.11;0.69999999999999996;0.01;0.17999999999999999;3;99;0;0;0.62;0.38;0.0;0.0;0;1.9612895838931763;70;9;21;2;es war etwas ermuedend
2019_03_21 12:11;45;3;0;control;6;112;0;70;44;98;64;0.02;0.75;0.12;0.11;33;2;63;85;0.23999999999999999;0.31;0.080000000000000002;0.37;0;3.0921257807090115;70;9;21;2;es war etwas ermuedend
2019_03_21 12:11;45;3;0;control;7;84;0;43;10;5;45;0.78000000000000003;0.13;0.059999999999999998;0.029999999999999999;87;1;0;0;0.57999999999999996;0.41999999999999998;0.0;0.0;0;2.1113361843081293;70;9;21;2;es war etwas ermuedend
2019_03_21 12:11;45;3;0;control;8;65;1;75;64;59;52;0.59999999999999998;0.22;0.14000000000000001;0.040000000000000001;1;99;0;0;0.35999999999999999;0.64000000000000001;0.0;0.0;0;2.771767653475308;70;9;21;2;es war etwas ermuedend
2019_03_21 12:11;45;3;0;control;9;29;1;44;51;0;0;0.78000000000000003;0.22;0.0;0.0;74;1;68;82;0.69999999999999996;0.28000000000000003;0.01;0.01;0;4.232719199948406;70;9;21;2;es war etwas ermuedend
2019_03_21 12:11;45;3;0;control;10;150;1;25;21;78;38;0.84999999999999998;0.059999999999999998;0.050000000000000003;0.040000000000000001;31;43;64;95;0.059999999999999998;0.45000000000000001;0.13;0.35999999999999999;1;3.892486140145138;70;9;21;2;es war etwas ermuedend
2019_03_21 12:11;45;3;0;control;11;39;1;14;33;0;0;0.78000000000000003;0.22;0.0;0.0;93;84;1;25;0.14000000000000001;0.23999999999999999;0.39000000000000001;0.23000000000000001;1;2.3114694108207914;70;9;21;2;es war etwas ermuedend
2019_03_21 12:11;45;3;0;control;12;28;0;47;30;0;0;0.97999999999999998;0.02;0.0;0.0;55;48;77;13;0.070000000000000007;0.26000000000000001;0.42999999999999999;0.23999999999999999;1;1.6309208665302322;70;9;21;2;es war etwas ermuedend
2019_03_21 12:11;45;3;0;control;13;43;0;60;83;0;0;0.23000000000000001;0.77000000000000002;0.0;0.0;72;5;70;12;0.29999999999999999;0.40999999999999998;0.12;0.17000000000000001;0;2.471754311580753;70;9;21;2;es war etwas ermuedend
2019_03_21 12:11;45;3;0;control;14;107;1;52;48;13;63;0.68000000000000005;0.19;0.050000000000000003;0.079999999999999905;54;91;33;3;0.19;0.17999999999999999;0.33000000000000002;0.29999999999999999;0;4.733054671619357;70;9;21;2;es war etwas ermuedend
2019_03_21 12:11;45;3;0;control;15;2;0;59;32;0;0;0.080000000000000002;0.92000000000000004;0.0;0.0;33;38;85;1;0.28999999999999998;0.050000000000000003;0.070000000000000007;0.58999999999999997;0;6.754386949574837;70;9;21;2;es war etwas ermuedend
2019_03_21 12:11;45;3;0;control;16;22;0;32;55;0;0;0.39000000000000001;0.60999999999999999;0.0;0.0;93;72;59;22;0.20000000000000001;0.11;0.14000000000000001;0.55000000000000004;1;2.001262027749817;70;9;21;2;es war etwas ermuedend
2019_03_21 12:11;45;3;0;control;17;99;0;8;24;15;73;0.56000000000000005;0.35999999999999999;0.070000000000000007;0.0099999999999999499;88;12;0;0;0.52000000000000002;0.47999999999999998;0.0;0.0;0;2.151484702684229;70;9;21;2;es war etwas ermuedend
2019_03_21 12:11;45;3;0;control;18;104;1;55;85;93;3;0.87;0.02;0.089999999999999997;0.02;1;2;90;8;0.35999999999999999;0.070000000000000007;0.40000000000000002;0.17000000000000001;0;1.8913315531312946;70;9;21;2;es war etwas ermuedend
2019_03_21 12:11;45;3;0;control;19;19;0;22;53;0;0;0.13;0.87;0.0;0.0;4;93;96;65;0.46999999999999997;0.059999999999999998;0.26000000000000001;0.20999999999999999;1;6.674436609644999;70;9;21;2;es war etwas ermuedend
2019_03_21 12:11;45;3;0;control;20;141;1;93;28;60;91;0.81999999999999995;0.10000000000000001;0.01;0.070000000000000007;14;85;7;89;0.45000000000000001;0.070000000000000007;0.23999999999999999;0.23999999999999999;0;3.372262586441593;70;9;21;2;es war etwas ermuedend
2019_03_21 12:11;45;3;0;control;21;56;0;28;84;37;41;0.68000000000000005;0.28000000000000003;0.02;0.0199999999999999;6;95;0;0;0.72999999999999998;0.27000000000000002;0.0;0.0;0;2.991920456651769;70;9;21;2;es war etwas ermuedend
2019_03_21 12:11;45;3;0;control;22;3;0;53;40;0;0;0.31;0.68999999999999995;0.0;0.0;96;24;7;88;0.11;0.27000000000000002;0.58999999999999997;0.029999999999999999;0;3.6724985070550247;70;9;21;2;es war etwas ermuedend
2019_03_21 12:11;45;3;0;control;23;46;0;5;19;0;0;0.32000000000000001;0.68000000000000005;0.0;0.0;88;38;97;66;0.60999999999999999;0.20000000000000001;0.040000000000000001;0.14999999999999999;1;2.121466081761355;70;9;21;2;es war etwas ermuedend
2019_03_21 12:11;45;3;0;control;24;118;1;62;52;65;68;0.40999999999999998;0.44;0.10000000000000001;0.0500000000000001;79;20;14;37;0.56999999999999995;0.23999999999999999;0.14000000000000001;0.050000000000000003;0;3.0120516433939883;70;9;21;2;es war etwas ermuedend
2019_03_21 12:11;45;3;0;control;25;134;1;57;48;50;55;0.02;0.62;0.17999999999999999;0.17999999999999999;80;96;15;18;0.23999999999999999;0.35999999999999999;0.33000000000000002;0.070000000000000007;0;4.492895441241217;70;9;21;2;es war etwas ermuedend
2019_03_21 12:11;45;3;0;control;26;6;0;9;51;0;0;0.14999999999999999;0.84999999999999998;0.0;0.0;6;40;50;73;0.42999999999999999;0.26000000000000001;0.059999999999999998;0.25;1;1.5709923482954764;70;9;21;2;es war etwas ermuedend
2019_03_21 12:11;45;3;0;control;27;58;1;37;58;76;34;0.20999999999999999;0.57999999999999996;0.19;0.020000000000000101;86;5;0;0;0.47999999999999998;0.52000000000000002;0.0;0.0;0;2.1115064858927326;70;9;21;2;es war etwas ermuedend
2019_03_21 12:11;45;3;0;control;28;108;0;48;72;39;70;0.14000000000000001;0.66000000000000003;0.02;0.17999999999999999;81;44;98;8;0.59999999999999998;0.029999999999999999;0.050000000000000003;0.32000000000000001;1;5.493554197276353;70;9;21;2;es war etwas ermuedend
2019_03_21 12:11;45;3;0;control;29;95;1;93;88;68;85;0.83999999999999997;0.14000000000000001;0.01;0.01;2;82;0;0;0.41999999999999998;0.57999999999999996;0.0;0.0;0;1.3109322071409224;70;9;21;2;es war etwas ermuedend
2019_03_21 12:11;45;3;0;control;30;42;1;70;48;0;0;0.79000000000000004;0.20999999999999999;0.0;0.0;51;8;12;67;0.19;0.26000000000000001;0.28999999999999998;0.26000000000000001;0;5.033360188171628;70;9;21;2;es war etwas ermuedend
2019_03_21 12:11;45;3;0;control;31;144;0;99;93;90;71;0.65000000000000002;0.32000000000000001;0.01;0.02;97;14;48;73;0.23000000000000001;0.46000000000000002;0.13;0.17999999999999999;0;1.8111252797466477;70;9;21;2;es war etwas ermuedend
2019_03_21 12:11;45;3;0;control;32;119;0;60;58;11;18;0.25;0.72999999999999998;0.01;0.01;96;23;42;85;0.44;0.48999999999999999;0.059999999999999998;0.010000000000000101;1;2.4116410594233457;70;9;21;2;es war etwas ermuedend
2019_03_21 12:11;45;3;0;control;33;109;1;75;28;16;56;0.19;0.070000000000000007;0.059999999999999998;0.68000000000000005;3;50;98;44;0.5;0.02;0.34999999999999998;0.13;0;4.853257442756785;70;9;21;2;es war etwas ermuedend
2019_03_21 12:11;45;3;0;control;34;10;1;45;62;0;0;0.059999999999999998;0.93999999999999995;0.0;0.0;17;99;28;67;0.58999999999999997;0.34000000000000002;0.01;0.059999999999999998;0;4.75310632014498;70;9;21;2;es war etwas ermuedend
2019_03_21 12:11;45;3;0;control;35;5;0;70;5;0;0;0.98999999999999999;0.01;0.0;0.0;92;87;47;1;0.44;0.02;0.16;0.38;0;5.523552612926778;70;9;21;2;es war etwas ermuedend
2019_03_21 12:11;45;3;0;control;36;52;0;71;51;10;54;0.22;0.12;0.19;0.46999999999999997;91;1;0;0;0.29999999999999999;0.69999999999999996;0.0;0.0;0;2.6818070441354394;70;9;21;2;es war etwas ermuedend
2019_03_21 12:11;45;3;0;control;37;128;1;70;49;27;54;0.27000000000000002;0.53000000000000003;0.02;0.17999999999999999;72;97;6;20;0.29999999999999999;0.39000000000000001;0.22;0.0899999999999999;0;6.214033171284882;70;9;21;2;es war etwas ermuedend
2019_03_21 12:11;45;3;0;control;38;88;0;77;13;12;7;0.12;0.19;0.66000000000000003;0.029999999999999898;94;2;0;0;0.40999999999999998;0.58999999999999997;0.0;0.0;0;2.5115388143290147;70;9;21;2;es war etwas ermuedend
2019_03_21 12:11;45;3;0;control;39;89;1;26;41;13;56;0.059999999999999998;0.40999999999999998;0.050000000000000003;0.47999999999999998;5;97;0;0;0.37;0.63;0.0;0.0;0;2.3116278458160195;70;9;21;2;es war etwas ermuedend
2019_03_21 12:11;45;3;0;control;40;74;1;66;47;52;44;0.41999999999999998;0.26000000000000001;0.17999999999999999;0.14000000000000001;17;99;0;0;0.47999999999999998;0.52000000000000002;0.0;0.0;0;2.911954722228984;70;9;21;2;es war etwas ermuedend
2019_03_21 12:11;45;3;0;control;41;91;1;74;81;86;48;0.93000000000000005;0.02;0.01;0.039999999999999897;7;64;0;0;0.13;0.87;0.0;0.0;0;1.6710610462228033;70;9;21;2;es war etwas ermuedend
2019_03_21 12:11;45;3;0;control;42;122;0;35;58;25;31;0.81999999999999995;0.070000000000000007;0.080000000000000002;0.029999999999999999;18;64;68;89;0.63;0.17000000000000001;0.11;0.089999999999999997;1;2.771900110262777;70;9;21;2;es war etwas ermuedend
2019_03_21 12:11;45;3;0;control;43;12;0;53;68;0;0;0.31;0.68999999999999995;0.0;0.0;69;54;97;29;0.25;0.20999999999999999;0.20000000000000001;0.34000000000000002;1;4.112775569451969;70;9;21;2;es war etwas ermuedend
2019_03_21 12:11;45;3;0;control;44;147;0;39;43;76;28;0.14000000000000001;0.10000000000000001;0.10000000000000001;0.66000000000000003;6;31;68;85;0.27000000000000002;0.20000000000000001;0.22;0.31;0;2.62162163028961;70;9;21;2;es war etwas ermuedend
2019_03_21 12:11;45;3;0;control;45;110;1;47;44;23;52;0.13;0.27000000000000002;0.040000000000000001;0.56000000000000005;99;2;30;22;0.28999999999999998;0.5;0.11;0.10000000000000001;0;3.011928808164612;70;9;21;2;es war etwas ermuedend
2019_03_21 12:11;45;3;0;control;46;60;1;64;59;57;96;0.83999999999999997;0.13;0.02;0.01;83;6;0;0;0.54000000000000004;0.46000000000000002;0.0;0.0;0;1.2307182365093468;70;9;21;2;es war etwas ermuedend
2019_03_21 12:11;45;3;0;control;47;111;0;51;36;48;27;0.93000000000000005;0.01;0.01;0.049999999999999899;31;78;30;53;0.55000000000000004;0.16;0.029999999999999999;0.26000000000000001;1;2.411693015838864;70;9;21;2;es war etwas ermuedend
2019_03_21 12:11;45;3;0;control;48;35;0;33;37;0;0;0.88;0.12;0.0;0.0;63;4;79;98;0.16;0.46000000000000002;0.17000000000000001;0.20999999999999999;0;4.4028354091310575;70;9;21;2;es war etwas ermuedend
2019_03_21 12:11;45;3;0;control;49;61;1;43;18;39;70;0.75;0.089999999999999997;0.089999999999999997;0.070000000000000007;16;66;0;0;0.64000000000000001;0.35999999999999999;0.0;0.0;0;1.671038916638281;70;9;21;2;es war etwas ermuedend
2019_03_21 12:11;45;3;0;control;50;126;0;16;55;51;42;0.68999999999999995;0.23999999999999999;0.01;0.060000000000000102;66;4;1;5;0.46999999999999997;0.38;0.089999999999999997;0.059999999999999998;0;6.3242426710985455;70;9;21;2;es war etwas ermuedend
2019_03_21 12:11;45;3;0;control;51;136;1;29;67;14;75;0.46000000000000002;0.29999999999999999;0.20999999999999999;0.0300000000000001;70;86;1;85;0.31;0.39000000000000001;0.27000000000000002;0.029999999999999898;0;2.051278095752423;70;9;21;2;es war etwas ermuedend
2019_03_21 12:11;45;3;0;control;52;133;0;59;88;60;36;0.67000000000000004;0.070000000000000007;0.12;0.14000000000000001;7;91;66;61;0.25;0.68999999999999995;0.01;0.0500000000000001;1;4.1326825738819934;70;9;21;2;es war etwas ermuedend
2019_03_21 12:11;45;3;0;control;53;37;0;14;98;0;0;0.93000000000000005;0.070000000000000007;0.0;0.0;41;2;87;66;0.17999999999999999;0.48999999999999999;0.32000000000000001;0.010000000000000101;1;1.2909386086839731;70;9;21;2;es war etwas ermuedend
2019_03_21 12:11;45;3;0;control;54;92;0;90;86;65;94;0.16;0.34000000000000002;0.28000000000000003;0.22;79;22;0;0;0.35999999999999999;0.64000000000000001;0.0;0.0;0;3.3521070250849334;70;9;21;2;es war etwas ermuedend
2019_03_21 12:11;45;3;0;control;55;135;1;48;60;41;51;0.14000000000000001;0.40000000000000002;0.089999999999999997;0.37;94;1;85;65;0.64000000000000001;0.29999999999999999;0.01;0.050000000000000003;0;2.441686941428543;70;9;21;2;es war etwas ermuedend
2019_03_21 12:11;45;3;0;control;56;137;0;71;22;28;17;0.25;0.46000000000000002;0.050000000000000003;0.23999999999999999;3;98;92;69;0.42999999999999999;0.23999999999999999;0.20000000000000001;0.13;0;6.133984050021809;70;9;21;2;es war etwas ermuedend
2019_03_21 12:11;45;3;0;control;57;1;0;22;51;0;0;0.26000000000000001;0.73999999999999999;0.0;0.0;14;11;92;31;0.29999999999999999;0.40999999999999998;0.14999999999999999;0.14000000000000001;0;5.323589367279965;70;9;21;2;es war etwas ermuedend
2019_03_21 12:11;45;3;0;control;58;145;1;91;89;90;74;0.57999999999999996;0.29999999999999999;0.11;0.010000000000000101;2;75;84;39;0.32000000000000001;0.27000000000000002;0.39000000000000001;0.0199999999999999;0;2.0016189875686905;70;9;21;2;es war etwas ermuedend
2019_03_21 12:11;45;3;0;control;59;55;0;74;55;47;48;0.60999999999999999;0.31;0.070000000000000007;0.01;97;6;0;0;0.42999999999999999;0.56999999999999995;0.0;0.0;0;1.5910023034011829;70;9;21;2;es war etwas ermuedend
2019_03_21 12:11;45;3;0;control;60;24;1;35;27;0;0;0.070000000000000007;0.93000000000000005;0.0;0.0;62;3;81;95;0.35999999999999999;0.55000000000000004;0.01;0.080000000000000002;1;2.1913689489215358;70;9;21;2;es war etwas ermuedend
2019_03_21 12:11;45;3;0;control;61;71;0;68;55;36;51;0.20000000000000001;0.75;0.02;0.029999999999999999;38;81;0;0;0.52000000000000002;0.47999999999999998;0.0;0.0;0;2.171505241504292;70;9;21;2;es war etwas ermuedend
2019_03_21 12:11;45;3;0;control;62;20;1;44;40;0;0;0.91000000000000003;0.089999999999999997;0.0;0.0;29;5;80;99;0.25;0.40000000000000002;0.26000000000000001;0.089999999999999997;0;5.233372824485741;70;9;21;2;es war etwas ermuedend
2019_03_21 12:11;45;3;0;control;63;26;1;76;41;0;0;0.57999999999999996;0.41999999999999998;0.0;0.0;61;79;84;2;0.13;0.029999999999999999;0.67000000000000004;0.17000000000000001;1;2.2715793916481744;70;9;21;2;es war etwas ermuedend
2019_03_21 12:11;45;3;0;control;64;44;0;79;74;0;0;0.71999999999999997;0.28000000000000003;0.0;0.0;3;67;15;36;0.41999999999999998;0.53000000000000003;0.02;0.029999999999999999;0;1.8713139007786594;70;9;21;2;es war etwas ermuedend
2019_03_21 12:11;45;3;0;control;65;131;0;83;41;81;88;0.23999999999999999;0.58999999999999997;0.10000000000000001;0.070000000000000007;82;97;4;17;0.26000000000000001;0.46999999999999997;0.11;0.16;0;2.4516195969335968;70;9;21;2;es war etwas ermuedend
2019_03_21 12:11;45;3;0;control;66;83;0;17;12;7;41;0.65000000000000002;0.19;0.089999999999999997;0.070000000000000007;6;84;0;0;0.72999999999999998;0.27000000000000002;0.0;0.0;0;2.0113973774195983;70;9;21;2;es war etwas ermuedend
2019_03_21 12:11;45;3;0;control;67;62;0;12;45;16;50;0.20999999999999999;0.76000000000000001;0.02;0.01;92;15;0;0;0.20999999999999999;0.79000000000000004;0.0;0.0;0;6.234138379819342;70;9;21;2;es war etwas ermuedend
2019_03_21 12:11;45;3;0;control;68;14;1;36;40;0;0;0.54000000000000004;0.46000000000000002;0.0;0.0;99;70;1;11;0.16;0.089999999999999997;0.080000000000000002;0.67000000000000004;1;1.470913066653793;70;9;21;2;es war etwas ermuedend
2019_03_21 12:11;45;3;0;control;69;96;1;51;54;39;7;0.17000000000000001;0.26000000000000001;0.10000000000000001;0.46999999999999997;24;96;0;0;0.28000000000000003;0.71999999999999997;0.0;0.0;0;1.3509668704086835;70;9;21;2;es war etwas ermuedend
2019_03_21 12:11;45;3;0;control;70;76;1;39;62;9;28;0.01;0.51000000000000001;0.26000000000000001;0.22;77;7;0;0;0.57999999999999996;0.41999999999999998;0.0;0.0;0;3.082103003273005;70;9;21;2;es war etwas ermuedend
2019_03_21 12:11;45;3;0;control;71;49;0;21;30;0;0;0.53000000000000003;0.46999999999999997;0.0;0.0;93;99;89;25;0.44;0.02;0.11;0.42999999999999999;1;2.071306973256469;70;9;21;2;es war etwas ermuedend
2019_03_21 12:11;45;3;0;control;72;13;1;52;56;0;0;0.46999999999999997;0.53000000000000003;0.0;0.0;94;71;27;2;0.089999999999999997;0.31;0.57999999999999996;0.020000000000000101;1;6.554235762819644;70;9;21;2;es war etwas ermuedend
2019_03_21 12:11;45;3;0;control;73;82;1;78;66;30;27;0.28999999999999998;0.58999999999999997;0.080000000000000002;0.040000000000000001;90;6;0;0;0.82999999999999996;0.17000000000000001;0.0;0.0;0;2.241421578846257;70;9;21;2;es war etwas ermuedend
2019_03_21 12:11;45;3;0;control;74;40;1;45;49;0;0;0.68999999999999995;0.31;0.0;0.0;2;92;65;73;0.23999999999999999;0.59999999999999998;0.11;0.050000000000000003;0;2.9919339268335534;70;9;21;2;es war etwas ermuedend
2019_03_21 12:11;45;3;0;control;75;140;1;36;32;26;27;0.39000000000000001;0.14999999999999999;0.19;0.27000000000000002;44;3;99;25;0.29999999999999999;0.34000000000000002;0.34000000000000002;0.0199999999999999;0;3.742404581401388;70;9;21;2;es war etwas ermuedend
2019_03_21 12:11;45;4;0;timed;1;126;1;16;55;51;42;0.68999999999999995;0.23999999999999999;0.01;0.060000000000000102;66;4;1;5;0.46999999999999997;0.38;0.089999999999999997;0.059999999999999998;0;2.5356706450738784;70;9;21;2;es war etwas ermuedend
2019_03_21 12:11;45;4;0;timed;2;116;1;53;65;43;99;0.56999999999999995;0.37;0.050000000000000003;0.010000000000000101;57;72;11;87;0.67000000000000004;0.13;0.14999999999999999;0.050000000000000003;0;2.4117315020725982;70;9;21;2;es war etwas ermuedend
2019_03_21 12:11;45;4;0;timed;3;61;0;43;18;39;70;0.75;0.089999999999999997;0.089999999999999997;0.070000000000000007;16;66;0;0;0.64000000000000001;0.35999999999999999;0.0;0.0;0;1.4710445612859075;70;9;21;2;es war etwas ermuedend
2019_03_21 12:11;45;4;0;timed;4;5;1;70;5;0;0;0.98999999999999999;0.01;0.0;0.0;92;87;47;1;0.44;0.02;0.16;0.38;0;2.3516294750670568;70;9;21;2;es war etwas ermuedend
2019_03_21 12:11;45;4;0;timed;5;29;1;44;51;0;0;0.78000000000000003;0.22;0.0;0.0;74;1;68;82;0.69999999999999996;0.28000000000000003;0.01;0.01;0;2.591783573946941;70;9;21;2;es war etwas ermuedend
2019_03_21 12:11;45;4;0;timed;6;103;0;38;49;89;50;0.89000000000000001;0.070000000000000007;0.01;0.029999999999999999;6;64;99;27;0.70999999999999996;0.17999999999999999;0.059999999999999998;0.050000000000000003;0;2.21140007145641;70;9;21;2;es war etwas ermuedend
2019_03_21 12:11;45;4;0;timed;7;56;0;28;84;37;41;0.68000000000000005;0.28000000000000003;0.02;0.0199999999999999;6;95;0;0;0.72999999999999998;0.27000000000000002;0.0;0.0;0;1.631028307266206;70;9;21;2;es war etwas ermuedend
2019_03_21 12:11;45;4;0;timed;8;135;0;48;60;41;51;0.14000000000000001;0.40000000000000002;0.089999999999999997;0.37;94;1;85;65;0.64000000000000001;0.29999999999999999;0.01;0.050000000000000003;0;1.6112354786628202;70;9;21;2;es war etwas ermuedend
2019_03_21 12:11;45;4;0;timed;9;145;0;91;89;90;74;0.57999999999999996;0.29999999999999999;0.11;0.010000000000000101;2;75;84;39;0.32000000000000001;0.27000000000000002;0.39000000000000001;0.0199999999999999;0;1.821141963529044;70;9;21;2;es war etwas ermuedend
2019_03_21 12:11;45;4;0;timed;10;66;0;89;23;27;15;0.070000000000000007;0.54000000000000004;0.17000000000000001;0.22;9;73;0;0;0.72999999999999998;0.27000000000000002;0.0;0.0;0;1.5510975311722177;70;9;21;2;es war etwas ermuedend
2019_03_21 12:11;45;4;0;timed;11;100;0;27;14;59;52;0.02;0.95999999999999996;0.01;0.01;17;98;0;0;0.48999999999999999;0.51000000000000001;0.0;0.0;0;1.8311929642036375;70;9;21;2;es war etwas ermuedend
2019_03_21 12:11;45;4;0;timed;12;45;1;97;87;0;0;0.71999999999999997;0.28000000000000003;0.0;0.0;96;11;14;4;0.25;0.029999999999999999;0.14000000000000001;0.57999999999999996;0;1.7511130539533042;70;9;21;2;es war etwas ermuedend
2019_03_21 12:11;45;4;0;timed;13;16;1;64;53;0;0;0.65000000000000002;0.34999999999999998;0.0;0.0;29;17;81;46;0.10000000000000001;0.01;0.44;0.45000000000000001;1;2.7717698985052266;70;9;21;2;es war etwas ermuedend
2019_03_21 12:11;45;4;0;timed;14;140;0;36;32;26;27;0.39000000000000001;0.14999999999999999;0.19;0.27000000000000002;44;3;99;25;0.29999999999999999;0.34000000000000002;0.34000000000000002;0.0199999999999999;0;2.0112889745278153;70;9;21;2;es war etwas ermuedend
2019_03_21 12:11;45;4;0;timed;15;68;0;84;27;55;62;0.01;0.050000000000000003;0.40999999999999998;0.53000000000000003;9;82;0;0;0.37;0.63;0.0;0.0;0;1.4811192951374323;70;9;21;2;es war etwas ermuedend
2019_03_21 12:11;45;4;0;timed;16;74;0;66;47;52;44;0.41999999999999998;0.26000000000000001;0.17999999999999999;0.14000000000000001;17;99;0;0;0.47999999999999998;0.52000000000000002;0.0;0.0;0;1.7510184419616053;70;9;21;2;es war etwas ermuedend
2019_03_21 12:11;45;4;0;timed;17;118;1;62;52;65;68;0.40999999999999998;0.44;0.10000000000000001;0.0500000000000001;79;20;14;37;0.56999999999999995;0.23999999999999999;0.14000000000000001;0.050000000000000003;0;2.291434760381435;70;9;21;2;es war etwas ermuedend
2019_03_21 12:11;45;4;0;timed;18;139;1;44;31;16;8;0.79000000000000004;0.070000000000000007;0.13;0.0099999999999999499;92;58;2;88;0.55000000000000004;0.070000000000000007;0.34000000000000002;0.039999999999999897;1;1.6610411552542246;70;9;21;2;es war etwas ermuedend
2019_03_21 12:11;45;4;0;timed;19;4;0;40;43;0;0;0.58999999999999997;0.40999999999999998;0.0;0.0;2;33;88;81;0.69999999999999996;0.14000000000000001;0.13;0.029999999999999999;0;2.231610475696016;70;9;21;2;es war etwas ermuedend
2019_03_21 12:11;45;4;0;timed;20;77;0;24;17;99;41;0.17999999999999999;0.13;0.10000000000000001;0.58999999999999997;12;97;0;0;0.59999999999999998;0.40000000000000002;0.0;0.0;0;2.6717050492011367;70;9;21;2;es war etwas ermuedend
2019_03_21 12:11;45;4;0;timed;21;9;0;61;69;0;0;0.93999999999999995;0.060000000000000102;0.0;0.0;18;93;72;16;0.40999999999999998;0.34999999999999998;0.089999999999999997;0.14999999999999999;0;1.9914204563315252;70;9;21;2;es war etwas ermuedend
2019_03_21 12:11;45;4;0;timed;22;33;1;27;70;0;0;0.88;0.12;0.0;0.0;93;3;77;16;0.080000000000000002;0.40000000000000002;0.5;0.02;0;2.621664285865336;70;9;21;2;es war etwas ermuedend
2019_03_21 12:11;45;4;0;timed;23;105;1;49;74;63;58;0.84999999999999998;0.080000000000000002;0.02;0.050000000000000003;97;5;86;8;0.25;0.52000000000000002;0.070000000000000007;0.16;0;1.8111005844134525;70;9;21;2;es war etwas ermuedend
2019_03_21 12:11;45;4;0;timed;24;146;0;25;5;64;35;0.94999999999999996;0.02;0.01;0.02;47;97;12;79;0.20999999999999999;0.029999999999999999;0.02;0.73999999999999999;1;1.731107588908344;70;9;21;2;es war etwas ermuedend
2019_03_21 12:11;45;4;0;timed;25;8;1;50;36;0;0;0.080000000000000002;0.92000000000000004;0.0;0.0;6;19;84;29;0.54000000000000004;0.070000000000000007;0.17000000000000001;0.22;0;3.792619815663784;70;9;21;2;es war etwas ermuedend
2019_03_21 12:11;45;4;0;timed;26;127;0;89;26;62;79;0.02;0.28999999999999998;0.53000000000000003;0.16;96;6;60;13;0.53000000000000003;0.25;0.17000000000000001;0.050000000000000003;0;1.891199096343371;70;9;21;2;es war etwas ermuedend
2019_03_21 12:11;45;4;0;timed;27;28;1;47;30;0;0;0.97999999999999998;0.02;0.0;0.0;55;48;77;13;0.070000000000000007;0.26000000000000001;0.42999999999999999;0.23999999999999999;1;1.611052669052242;70;9;21;2;es war etwas ermuedend
2019_03_21 12:11;45;4;0;timed;28;90;1;27;44;50;72;0.68000000000000005;0.28999999999999998;0.02;0.0099999999999999707;6;96;0;0;0.46999999999999997;0.53000000000000003;0.0;0.0;0;1.621219128428038;70;9;21;2;es war etwas ermuedend
2019_03_21 12:11;45;4;0;timed;29;34;0;32;48;0;0;0.28000000000000003;0.71999999999999997;0.0;0.0;97;83;7;62;0.040000000000000001;0.54000000000000004;0.35999999999999999;0.059999999999999901;1;1.3509761712480213;70;9;21;2;es war etwas ermuedend
2019_03_21 12:11;45;4;0;timed;30;26;1;76;41;0;0;0.57999999999999996;0.41999999999999998;0.0;0.0;61;79;84;2;0.13;0.029999999999999999;0.67000000000000004;0.17000000000000001;1;1.6811973580483937;70;9;21;2;es war etwas ermuedend
2019_03_21 12:11;45;4;0;timed;31;91;0;74;81;86;48;0.93000000000000005;0.02;0.01;0.039999999999999897;7;64;0;0;0.13;0.87;0.0;0.0;0;1.7110716555944236;70;9;21;2;es war etwas ermuedend
2019_03_21 12:11;45;4;0;timed;32;86;0;56;30;57;88;0.20000000000000001;0.35999999999999999;0.080000000000000002;0.35999999999999999;98;2;0;0;0.77000000000000002;0.23000000000000001;0.0;0.0;0;2.1113365050264292;70;9;21;2;es war etwas ermuedend
2019_03_21 12:11;45;4;0;timed;33;23;0;54;40;0;0;0.93000000000000005;0.070000000000000007;0.0;0.0;36;23;71;86;0.02;0.41999999999999998;0.19;0.37;1;1.7610960622810126;70;9;21;2;es war etwas ermuedend
2019_03_21 12:11;45;4;0;timed;34;136;1;29;67;14;75;0.46000000000000002;0.29999999999999999;0.20999999999999999;0.0300000000000001;70;86;1;85;0.31;0.39000000000000001;0.27000000000000002;0.029999999999999898;0;1.5709926690137763;70;9;21;2;es war etwas ermuedend
2019_03_21 12:11;45;4;0;timed;35;143;0;88;44;56;73;0.95999999999999996;0.02;0.01;0.01;20;3;87;32;0.19;0.40000000000000002;0.28000000000000003;0.13;0;1.9213466461492317;70;9;21;2;es war etwas ermuedend
2019_03_21 12:11;45;4;0;timed;36;51;1;52;23;43;16;0.60999999999999999;0.20999999999999999;0.01;0.17000000000000001;92;7;0;0;0.14999999999999999;0.84999999999999998;0.0;0.0;0;1.150692206986605;70;9;21;2;es war etwas ermuedend
2019_03_21 12:11;45;4;0;timed;37;141;0;93;28;60;91;0.81999999999999995;0.10000000000000001;0.01;0.070000000000000007;14;85;7;89;0.45000000000000001;0.070000000000000007;0.23999999999999999;0.23999999999999999;0;2.131358326721511;70;9;21;2;es war etwas ermuedend
2019_03_21 12:11;45;4;0;timed;38;92;1;90;86;65;94;0.16;0.34000000000000002;0.28000000000000003;0.22;79;22;0;0;0.35999999999999999;0.64000000000000001;0.0;0.0;0;1.510895452787281;70;9;21;2;es war etwas ermuedend
2019_03_21 12:11;45;4;0;timed;39;111;0;51;36;48;27;0.93000000000000005;0.01;0.01;0.049999999999999899;31;78;30;53;0.55000000000000004;0.16;0.029999999999999999;0.26000000000000001;1;2.5317716688718974;70;9;21;2;es war etwas ermuedend
2019_03_21 12:11;45;4;0;timed;40;52;1;71;51;10;54;0.22;0.12;0.19;0.46999999999999997;91;1;0;0;0.29999999999999999;0.69999999999999996;0.0;0.0;0;1.2305492177993074;70;9;21;2;es war etwas ermuedend
2019_03_21 12:11;45;4;0;timed;41;7;1;49;29;0;0;0.95999999999999996;0.040000000000000001;0.0;0.0;23;99;64;25;0.68999999999999995;0.12;0.059999999999999998;0.13;1;3.162230379878565;70;9;21;2;es war etwas ermuedend
2019_03_21 12:11;45;4;0;timed;42;125;0;37;41;10;35;0.91000000000000003;0.040000000000000001;0.029999999999999999;0.02;7;13;91;93;0.26000000000000001;0.39000000000000001;0.16;0.19;0;1.531111629962652;70;9;21;2;es war etwas ermuedend
2019_03_21 12:11;45;4;0;timed;43;71;1;68;55;36;51;0.20000000000000001;0.75;0.02;0.029999999999999999;38;81;0;0;0.52000000000000002;0.47999999999999998;0.0;0.0;0;1.4108302827648913;70;9;21;2;es war etwas ermuedend
2019_03_21 12:11;45;4;0;timed;44;83;1;17;12;7;41;0.65000000000000002;0.19;0.089999999999999997;0.070000000000000007;6;84;0;0;0.72999999999999998;0.27000000000000002;0.0;0.0;0;1.3509684740015473;70;9;21;2;es war etwas ermuedend
2019_03_21 12:11;45;4;0;timed;45;133;1;59;88;60;36;0.67000000000000004;0.070000000000000007;0.12;0.14000000000000001;7;91;66;61;0.25;0.68999999999999995;0.01;0.0500000000000001;0;1.9712427653898885;70;9;21;2;es war etwas ermuedend
2019_03_21 12:11;45;4;0;timed;46;93;1;87;81;73;98;0.80000000000000004;0.040000000000000001;0.14999999999999999;0.0099999999999999499;5;71;0;0;0.51000000000000001;0.48999999999999999;0.0;0.0;0;1.5711155042436076;70;9;21;2;es war etwas ermuedend
2019_03_21 12:11;45;4;0;timed;47;73;0;65;68;70;47;0.25;0.23000000000000001;0.20999999999999999;0.31;27;95;0;0;0.45000000000000001;0.55000000000000004;0.0;0.0;0;1.7110780699667885;70;9;21;2;es war etwas ermuedend
2019_03_21 12:11;45;4;0;timed;48;1;1;22;51;0;0;0.26000000000000001;0.73999999999999999;0.0;0.0;14;11;92;31;0.29999999999999999;0.40999999999999998;0.14999999999999999;0.14000000000000001;1;1.7111569667458753;70;9;21;2;es war etwas ermuedend
2019_03_21 12:11;45;4;0;timed;49;35;1;33;37;0;0;0.88;0.12;0.0;0.0;63;4;79;98;0.16;0.46000000000000002;0.17000000000000001;0.20999999999999999;1;2.151374696199582;70;9;21;2;es war etwas ermuedend
2019_03_21 12:11;45;4;0;timed;50;131;1;83;41;81;88;0.23999999999999999;0.58999999999999997;0.10000000000000001;0.070000000000000007;82;97;4;17;0.26000000000000001;0.46999999999999997;0.11;0.16;0;1.7412192054002844;70;9;21;2;es war etwas ermuedend
2019_03_21 12:11;45;4;0;timed;51;89;0;26;41;13;56;0.059999999999999998;0.40999999999999998;0.050000000000000003;0.47999999999999998;5;97;0;0;0.37;0.63;0.0;0.0;0;1.7111976980099826;70;9;21;2;es war etwas ermuedend
2019_03_21 12:11;45;4;0;timed;52;120;0;64;40;48;51;0.19;0.02;0.070000000000000007;0.71999999999999997;97;9;79;94;0.23000000000000001;0.54000000000000004;0.01;0.22;1;1.7310514631503793;70;9;21;2;es war etwas ermuedend
2019_03_21 12:11;45;4;0;timed;53;63;0;56;78;42;36;0.93000000000000005;0.040000000000000001;0.01;0.0199999999999999;2;72;0;0;0.32000000000000001;0.68000000000000005;0.0;0.0;0;1.5511154914147482;70;9;21;2;es war etwas ermuedend
2019_03_21 12:11;45;4;0;timed;54;53;0;26;70;50;80;0.29999999999999999;0.59999999999999998;0.040000000000000001;0.059999999999999998;89;1;0;0;0.40999999999999998;0.58999999999999997;0.0;0.0;0;1.3908636246719652;70;9;21;2;es war etwas ermuedend
2019_03_21 12:11;45;4;0;timed;55;122;1;35;58;25;31;0.81999999999999995;0.070000000000000007;0.080000000000000002;0.029999999999999999;18;64;68;89;0.63;0.17000000000000001;0.11;0.089999999999999997;1;1.581093701791815;70;9;21;2;es war etwas ermuedend
2019_03_21 12:11;45;4;0;timed;56;55;1;74;55;47;48;0.60999999999999999;0.31;0.070000000000000007;0.01;97;6;0;0;0.42999999999999999;0.56999999999999995;0.0;0.0;0;0.9908431628241487;70;9;21;2;es war etwas ermuedend
2019_03_21 12:11;45;4;0;timed;57;20;1;44;40;0;0;0.91000000000000003;0.089999999999999997;0.0;0.0;29;5;80;99;0.25;0.40000000000000002;0.26000000000000001;0.089999999999999997;1;1.1907326431896763;70;9;21;2;es war etwas ermuedend
2019_03_21 12:11;45;4;0;timed;58;119;0;60;58;11;18;0.25;0.72999999999999998;0.01;0.01;96;23;42;85;0.44;0.48999999999999999;0.059999999999999998;0.010000000000000101;1;1.5713707962609078;70;9;21;2;es war etwas ermuedend
2019_03_21 12:11;45;4;0;timed;59;38;0;40;70;0;0;0.53000000000000003;0.46999999999999997;0.0;0.0;97;90;6;96;0.56999999999999995;0.070000000000000007;0.27000000000000002;0.089999999999999997;1;1.1907085892935356;70;9;21;2;es war etwas ermuedend
2019_03_21 12:11;45;4;0;timed;60;94;0;84;86;93;39;0.78000000000000003;0.20000000000000001;0.01;0.0099999999999999603;9;83;0;0;0.46999999999999997;0.53000000000000003;0.0;0.0;0;1.6009798595123357;70;9;21;2;es war etwas ermuedend
2019_03_21 12:11;45;4;0;timed;61;117;0;65;85;92;41;0.23000000000000001;0.17999999999999999;0.54000000000000004;0.050000000000000003;99;93;10;13;0.64000000000000001;0.16;0.01;0.19;0;2.0112613927267375;70;9;21;2;es war etwas ermuedend
2019_03_21 12:11;45;4;0;timed;62;95;0;93;88;68;85;0.83999999999999997;0.14000000000000001;0.01;0.01;2;82;0;0;0.41999999999999998;0.57999999999999996;0.0;0.0;0;1.3509473065728343;70;9;21;2;es war etwas ermuedend
2019_03_21 12:11;45;4;0;timed;63;85;0;31;22;82;50;0.11;0.69999999999999996;0.01;0.17999999999999999;3;99;0;0;0.62;0.38;0.0;0.0;0;1.6310376081059985;70;9;21;2;es war etwas ermuedend
2019_03_21 12:11;45;4;0;timed;64;6;0;9;51;0;0;0.14999999999999999;0.84999999999999998;0.0;0.0;6;40;50;73;0.42999999999999999;0.26000000000000001;0.059999999999999998;0.25;1;1.3508565432048272;70;9;21;2;es war etwas ermuedend
2019_03_21 12:11;45;4;0;timed;65;149;0;14;89;73;53;0.93999999999999995;0.01;0.01;0.040000000000000001;97;45;6;13;0.34000000000000002;0.01;0.40999999999999998;0.23999999999999999;0;2.461700103720432;70;9;21;2;es war etwas ermuedend
2019_03_21 12:11;45;4;0;timed;66;109;0;75;28;16;56;0.19;0.070000000000000007;0.059999999999999998;0.68000000000000005;3;50;98;44;0.5;0.02;0.34999999999999998;0.13;0;2.571583753421237;70;9;21;2;es war etwas ermuedend
2019_03_21 12:11;45;4;0;timed;67;124;0;37;65;15;41;0.17999999999999999;0.45000000000000001;0.02;0.34999999999999998;40;7;98;30;0.070000000000000007;0.45000000000000001;0.45000000000000001;0.029999999999999898;1;2.9418867491253877;70;9;21;2;es war etwas ermuedend
2019_03_21 12:11;45;4;0;timed;68;27;1;44;26;0;0;0.35999999999999999;0.64000000000000001;0.0;0.0;63;10;3;5;0.58999999999999997;0.19;0.14999999999999999;0.070000000000000007;1;1.430906305904955;70;9;21;2;es war etwas ermuedend
2019_03_21 12:11;45;4;0;timed;69;134;1;57;48;50;55;0.02;0.62;0.17999999999999999;0.17999999999999999;80;96;15;18;0.23999999999999999;0.35999999999999999;0.33000000000000002;0.070000000000000007;0;1.851181751880631;70;9;21;2;es war etwas ermuedend
2019_03_21 12:11;45;4;0;timed;70;99;0;8;24;15;73;0.56000000000000005;0.35999999999999999;0.070000000000000007;0.0099999999999999499;88;12;0;0;0.52000000000000002;0.47999999999999998;0.0;0.0;0;2.361444426840535;70;9;21;2;es war etwas ermuedend
2019_03_21 12:11;45;4;0;timed;71;115;1;50;28;61;79;0.83999999999999997;0.040000000000000001;0.059999999999999998;0.059999999999999998;1;26;97;55;0.45000000000000001;0.080000000000000002;0.40999999999999998;0.060000000000000102;0;1.811025215538848;70;9;21;2;es war etwas ermuedend
2019_03_21 12:11;45;4;0;timed;72;108;1;48;72;39;70;0.14000000000000001;0.66000000000000003;0.02;0.17999999999999999;81;44;98;8;0.59999999999999998;0.029999999999999999;0.050000000000000003;0.32000000000000001;0;1.9713723357103845;70;9;21;2;es war etwas ermuedend
2019_03_21 12:11;45;4;0;timed;73;137;0;71;22;28;17;0.25;0.46000000000000002;0.050000000000000003;0.23999999999999999;3;98;92;69;0.42999999999999999;0.23999999999999999;0.20000000000000001;0.13;1;1.8911923612522514;70;9;21;2;es war etwas ermuedend
2019_03_21 12:11;45;4;0;timed;74;11;0;17;36;0;0;0.14000000000000001;0.85999999999999999;0.0;0.0;19;41;34;95;0.88;0.02;0.050000000000000003;0.050000000000000003;1;1.3108366329934142;70;9;21;2;es war etwas ermuedend
2019_03_21 12:11;45;4;0;timed;75;31;0;10;59;0;0;0.23999999999999999;0.76000000000000001;0.0;0.0;1;79;53;73;0.23000000000000001;0.58999999999999997;0.050000000000000003;0.13;1;2.531716184551442;70;9;21;2;es war etwas ermuedend
