date;id;block;order;cond;trial;gameid;leftright;oa1;oa2;oa3;oa4;pa1;pa2;pa3;pa4;ob1;ob2;ob3;ob4;pb1;pb2;pb3;pb4;choice;rt;paytrial;payout;alter;geschlecht;comment
2019_02_25 10:25;7;0;0;practice;1;65;0;35;15;77;1;0.62;0.33000000000000002;0.029999999999999999;0.02;68;3;25;96;0.38;0.28000000000000003;0.28000000000000003;0.059999999999999901;0;25.061873818756567;46;51;20;2;  
2019_02_25 10:25;7;0;0;practice;2;41;1;19;54;51;8;0.76000000000000001;0.070000000000000007;0.16;0.0099999999999999794;2;77;0;0;0.54000000000000004;0.46000000000000002;0.0;0.0;0;12.465937696740298;46;51;20;2;  
2019_02_25 10:25;7;0;0;practice;3;58;0;44;50;85;42;0.38;0.57999999999999996;0.02;0.02;37;88;19;12;0.20000000000000001;0.29999999999999999;0.46000000000000002;0.040000000000000001;1;17.965652418355717;46;51;20;2;  
2019_02_25 10:25;7;0;0;practice;4;51;0;38;13;51;84;0.91000000000000003;0.070000000000000007;0.01;0.0099999999999999603;4;89;35;16;0.80000000000000004;0.089999999999999997;0.059999999999999998;0.050000000000000003;0;16.799050162491653;46;51;20;2;  
2019_02_25 10:25;7;0;0;practice;5;10;0;34;59;0;0;0.16;0.83999999999999997;0.0;0.0;21;61;96;7;0.19;0.01;0.5;0.29999999999999999;0;15.249269806001053;46;51;20;2;  
2019_02_25 10:25;7;0;0;practice;6;37;1;50;66;99;12;0.26000000000000001;0.71999999999999997;0.01;0.01;22;90;0;0;0.37;0.63;0.0;0.0;1;12.432770997627586;46;51;20;2;  
2019_02_25 10:25;7;0;0;practice;7;66;0;44;18;63;36;0.47999999999999998;0.10000000000000001;0.029999999999999999;0.39000000000000001;13;93;61;53;0.52000000000000002;0.45000000000000001;0.02;0.0099999999999999707;0;18.732286681845153;46;51;20;2;  
2019_02_25 10:25;7;0;0;practice;8;12;1;45;86;0;0;0.97999999999999998;0.02;0.0;0.0;6;23;95;81;0.14999999999999999;0.40999999999999998;0.050000000000000003;0.39000000000000001;0;17.24897250070319;46;51;20;2;  
2019_02_25 10:25;7;0;0;practice;9;61;1;51;48;56;88;0.91000000000000003;0.02;0.01;0.059999999999999998;78;21;14;82;0.55000000000000004;0.29999999999999999;0.070000000000000007;0.080000000000000002;1;24.8319660603712;46;51;20;2;  
2019_02_25 10:25;7;0;0;practice;10;19;0;25;73;0;0;0.69999999999999996;0.29999999999999999;0.0;0.0;87;84;1;86;0.040000000000000001;0.59999999999999998;0.28000000000000003;0.080000000000000002;1;7.699772643230062;46;51;20;2;  
2019_02_25 10:25;7;0;0;practice;11;54;1;69;80;22;55;0.27000000000000002;0.31;0.059999999999999998;0.35999999999999999;52;2;49;90;0.059999999999999998;0.33000000000000002;0.20000000000000001;0.40999999999999998;0;16.232640914532908;46;51;20;2;  
2019_02_25 10:25;7;0;0;practice;12;39;1;53;65;48;75;0.92000000000000004;0.029999999999999999;0.01;0.040000000000000001;16;83;0;0;0.31;0.68999999999999995;0.0;0.0;0;6.4495980926277525;46;51;20;2;  
2019_02_25 10:25;7;0;0;practice;13;16;0;50;42;0;0;0.32000000000000001;0.68000000000000005;0.0;0.0;97;2;56;31;0.35999999999999999;0.16;0.16;0.32000000000000001;0;7.382901000542915;46;51;20;2;  
2019_02_25 10:25;7;0;0;practice;14;55;0;53;11;80;74;0.31;0.37;0.28000000000000003;0.039999999999999897;6;93;98;96;0.69999999999999996;0.22;0.050000000000000003;0.029999999999999999;0;9.249425354080358;46;51;20;2;  
2019_02_25 10:25;7;0;0;practice;15;46;1;79;57;98;81;0.67000000000000004;0.070000000000000007;0.20999999999999999;0.050000000000000003;1;76;0;0;0.56000000000000005;0.44;0.0;0.0;0;5.583022103542362;46;51;20;2;  
2019_02_25 10:25;7;0;0;practice;16;71;1;94;87;26;75;0.71999999999999997;0.23999999999999999;0.02;0.02;90;27;12;83;0.16;0.73999999999999999;0.02;0.080000000000000002;0;7.299596825792946;46;51;20;2;  
2019_02_25 10:25;7;0;0;practice;17;63;1;24;82;6;96;0.91000000000000003;0.070000000000000007;0.01;0.0099999999999999603;73;10;71;22;0.31;0.51000000000000001;0.050000000000000003;0.13;1;15.732472698104857;46;51;20;2;  
2019_02_25 10:25;7;0;0;practice;18;70;0;21;42;14;63;0.96999999999999997;0.01;0.01;0.01;70;2;6;76;0.23999999999999999;0.42999999999999999;0.01;0.32000000000000001;1;7.482895323839898;46;51;20;2;  
2019_02_25 10:25;7;0;0;practice;19;24;0;19;38;0;0;0.89000000000000001;0.11;0.0;0.0;45;76;95;57;0.29999999999999999;0.22;0.40000000000000002;0.080000000000000002;1;9.482795901356212;46;51;20;2;  
2019_02_25 10:25;7;0;0;practice;20;6;1;42;59;0;0;0.35999999999999999;0.64000000000000001;0.0;0.0;77;19;6;7;0.44;0.14999999999999999;0.17999999999999999;0.23000000000000001;0;6.1829813082523515;46;51;20;2;  
2019_02_25 10:25;7;0;0;practice;21;42;1;23;45;91;22;0.72999999999999998;0.02;0.20000000000000001;0.050000000000000003;2;86;0;0;0.40999999999999998;0.58999999999999997;0.0;0.0;0;5.149691132829389;46;51;20;2;  
2019_02_25 10:25;7;0;0;practice;22;69;0;38;74;27;73;0.22;0.19;0.45000000000000001;0.14000000000000001;1;97;79;84;0.28000000000000003;0.45000000000000001;0.17000000000000001;0.10000000000000001;1;15.749153225121063;46;51;20;2;  
2019_02_25 10:25;7;0;0;practice;23;74;1;36;46;10;12;0.11;0.19;0.65000000000000002;0.049999999999999899;92;24;79;19;0.51000000000000001;0.40999999999999998;0.02;0.059999999999999998;1;7.266374001084728;46;51;20;2;  
2019_02_25 10:25;7;0;0;practice;24;30;1;54;78;85;25;0.20999999999999999;0.60999999999999999;0.089999999999999997;0.090000000000000094;87;20;0;0;0.58999999999999997;0.40999999999999998;0.0;0.0;0;7.416252433044633;46;51;20;2;  
2019_02_25 10:25;7;0;0;practice;25;50;1;17;12;21;14;0.55000000000000004;0.34000000000000002;0.059999999999999998;0.049999999999999899;13;93;0;0;0.28999999999999998;0.70999999999999996;0.0;0.0;1;7.899509526437782;46;51;20;2;  
2019_02_25 10:25;7;0;0;practice;26;22;0;84;87;0;0;0.17000000000000001;0.82999999999999996;0.0;0.0;3;24;41;83;0.68000000000000005;0.11;0.10000000000000001;0.11;0;3.6832232897488666;46;51;20;2;  
2019_02_25 10:25;7;0;0;practice;27;38;1;51;89;10;60;0.57999999999999996;0.029999999999999999;0.080000000000000002;0.31;8;84;0;0;0.33000000000000002;0.67000000000000004;0.0;0.0;0;4.499978672273642;46;51;20;2;  
2019_02_25 10:25;7;0;0;practice;28;34;0;57;23;66;79;0.56000000000000005;0.23000000000000001;0.13;0.079999999999999905;85;9;0;0;0.56000000000000005;0.44;0.0;0.0;0;13.999227391086606;46;51;20;2;  
2019_02_25 10:25;7;0;0;practice;29;14;1;92;56;0;0;0.11;0.89000000000000001;0.0;0.0;97;31;51;4;0.58999999999999997;0.22;0.080000000000000002;0.11;0;13.616063081320817;46;51;20;2;  
2019_02_25 10:25;7;0;0;practice;30;26;0;24;46;74;59;0.29999999999999999;0.11;0.25;0.34000000000000002;91;6;0;0;0.28999999999999998;0.70999999999999996;0.0;0.0;0;5.649658900701638;46;51;20;2;  
2019_02_25 10:25;7;0;0;practice;31;40;0;29;65;30;41;0.70999999999999996;0.01;0.14999999999999999;0.13;2;59;0;0;0.32000000000000001;0.68000000000000005;0.0;0.0;1;6.533072247753125;46;51;20;2;  
2019_02_25 10:25;7;0;0;practice;32;36;1;56;89;86;77;0.66000000000000003;0.080000000000000002;0.14999999999999999;0.11;29;91;0;0;0.40999999999999998;0.58999999999999997;0.0;0.0;0;5.549656880180237;46;51;20;2;  
2019_02_25 10:25;7;0;0;practice;33;59;1;13;27;48;51;0.56999999999999995;0.13;0.13;0.17000000000000001;8;37;97;1;0.65000000000000002;0.16;0.14999999999999999;0.040000000000000001;0;5.06656976716215;46;51;20;2;  
2019_02_25 10:25;7;0;0;practice;34;20;1;32;11;0;0;0.40999999999999998;0.58999999999999997;0.0;0.0;1;86;42;65;0.45000000000000001;0.38;0.050000000000000003;0.12;1;7.682909627848858;46;51;20;2;  
2019_02_25 10:25;7;0;0;practice;35;17;0;27;61;0;0;0.68999999999999995;0.31;0.0;0.0;3;91;69;43;0.29999999999999999;0.33000000000000002;0.27000000000000002;0.099999999999999895;0;7.083073258013883;46;51;20;2;  
2019_02_25 10:25;7;0;0;practice;36;15;0;24;59;0;0;0.56999999999999995;0.42999999999999999;0.0;0.0;9;8;80;22;0.31;0.10000000000000001;0.55000000000000004;0.039999999999999897;1;5.933011054818053;46;51;20;2;  
2019_02_25 10:25;7;0;0;practice;37;5;1;23;58;0;0;0.71999999999999997;0.28000000000000003;0.0;0.0;94;12;52;3;0.11;0.84999999999999998;0.029999999999999999;0.01;0;13.51590936133232;46;51;20;2;  
2019_02_25 10:25;7;0;0;practice;38;49;1;14;31;42;22;0.77000000000000002;0.089999999999999997;0.02;0.12;87;28;0;0;0.68000000000000005;0.32000000000000001;0.0;0.0;1;2.6500129730304707;46;51;20;2;  
2019_02_25 10:25;7;0;0;practice;39;62;0;65;52;74;55;0.16;0.12;0.14999999999999999;0.56999999999999995;72;86;2;68;0.12;0.53000000000000003;0.22;0.13;1;3.2664525769185957;46;51;20;2;  
2019_02_25 10:25;7;0;0;practice;40;11;0;10;44;0;0;0.48999999999999999;0.51000000000000001;0.0;0.0;88;12;54;50;0.17000000000000001;0.75;0.02;0.059999999999999998;0;5.9664622305209605;46;51;20;2;  
2019_02_25 10:25;7;0;0;practice;41;18;1;47;36;0;0;0.089999999999999997;0.91000000000000003;0.0;0.0;2;44;81;9;0.20000000000000001;0.25;0.51000000000000001;0.040000000000000001;1;3.583106452294601;46;51;20;2;  
2019_02_25 10:25;7;0;0;practice;42;57;1;39;68;59;91;0.73999999999999999;0.040000000000000001;0.14999999999999999;0.070000000000000007;9;22;40;84;0.29999999999999999;0.32000000000000001;0.040000000000000001;0.34000000000000002;0;5.432999990057624;46;51;20;2;  
2019_02_25 10:25;7;0;0;practice;43;23;0;99;93;0;0;0.57999999999999996;0.41999999999999998;0.0;0.0;64;10;80;81;0.13;0.55000000000000004;0.02;0.29999999999999999;0;3.616467185609281;46;51;20;2;  
2019_02_25 10:25;7;0;0;practice;44;13;0;15;25;0;0;0.29999999999999999;0.69999999999999996;0.0;0.0;3;43;35;73;0.44;0.40000000000000002;0.01;0.14999999999999999;1;9.3829638612101;46;51;20;2;  
2019_02_25 10:25;7;0;0;practice;45;48;0;20;25;24;35;0.32000000000000001;0.13;0.48999999999999999;0.059999999999999901;44;76;0;0;0.29999999999999999;0.69999999999999996;0.0;0.0;1;3.866419158135386;46;51;20;2;  
2019_02_25 10:25;7;0;0;practice;46;32;1;21;86;16;78;0.45000000000000001;0.41999999999999998;0.050000000000000003;0.080000000000000099;95;9;0;0;0.42999999999999999;0.56999999999999995;0.0;0.0;0;3.983082462611492;46;51;20;2;  
2019_02_25 10:25;7;0;0;practice;47;75;1;21;86;27;62;0.88;0.040000000000000001;0.070000000000000007;0.0099999999999999794;13;3;49;87;0.28999999999999998;0.39000000000000001;0.070000000000000007;0.25;1;8.399539834259485;46;51;20;2;  
2019_02_25 10:25;7;0;0;practice;48;25;1;7;18;0;0;0.20999999999999999;0.79000000000000004;0.0;0.0;92;45;33;13;0.41999999999999998;0.17999999999999999;0.22;0.17999999999999999;1;4.283217131969195;46;51;20;2;  
2019_02_25 10:25;7;0;0;practice;49;7;1;13;31;0;0;0.51000000000000001;0.48999999999999999;0.0;0.0;8;79;42;18;0.85999999999999999;0.089999999999999997;0.02;0.029999999999999999;0;4.933158584955208;46;51;20;2;  
2019_02_25 10:25;7;0;0;practice;50;27;1;68;43;98;36;0.54000000000000004;0.44;0.01;0.0099999999999999603;97;13;0;0;0.27000000000000002;0.72999999999999998;0.0;0.0;0;3.2831164266149244;46;51;20;2;  
2019_02_25 10:25;7;0;0;practice;51;4;1;40;59;0;0;0.19;0.81000000000000005;0.0;0.0;10;88;13;45;0.56000000000000005;0.28999999999999998;0.01;0.14000000000000001;0;5.116360867695221;46;51;20;2;  
2019_02_25 10:25;7;0;0;practice;52;67;0;74;31;10;77;0.11;0.070000000000000007;0.77000000000000002;0.050000000000000003;2;23;8;97;0.56999999999999995;0.01;0.059999999999999998;0.35999999999999999;1;4.866405367274638;46;51;20;2;  
2019_02_25 10:25;7;0;0;practice;53;1;0;67;36;0;0;0.14999999999999999;0.84999999999999998;0.0;0.0;1;4;81;77;0.25;0.54000000000000004;0.14000000000000001;0.070000000000000007;0;4.783039614728068;46;51;20;2;  
2019_02_25 10:25;7;0;0;practice;54;56;0;47;52;64;10;0.77000000000000002;0.040000000000000001;0.11;0.080000000000000002;1;5;12;99;0.14000000000000001;0.28999999999999998;0.27000000000000002;0.29999999999999999;1;5.616316127577647;46;51;20;2;  
2019_02_25 10:25;7;0;0;practice;55;33;0;54;82;55;71;0.56000000000000005;0.20999999999999999;0.02;0.20999999999999999;13;99;0;0;0.5;0.5;0.0;0.0;0;5.083163700402338;46;51;20;2;  
2019_02_25 10:25;7;0;0;practice;56;3;1;20;70;0;0;0.13;0.87;0.0;0.0;95;19;80;73;0.31;0.57999999999999996;0.029999999999999999;0.080000000000000002;0;6.549603641043859;46;51;20;2;  
2019_02_25 10:25;7;0;0;practice;57;31;1;72;59;40;92;0.59999999999999998;0.34999999999999998;0.02;0.029999999999999999;97;29;0;0;0.38;0.62;0.0;0.0;0;5.316478122082572;46;51;20;2;  
2019_02_25 10:25;7;0;0;practice;58;68;0;39;58;40;8;0.48999999999999999;0.44;0.02;0.050000000000000003;92;83;51;2;0.57999999999999996;0.13;0.02;0.27000000000000002;1;7.64954376305127;46;51;20;2;  
2019_02_25 10:25;7;0;0;practice;59;72;1;86;85;97;43;0.51000000000000001;0.14999999999999999;0.33000000000000002;0.0099999999999999499;72;29;10;90;0.01;0.11;0.65000000000000002;0.23000000000000001;0;5.499795221755448;46;51;20;2;  
2019_02_25 10:25;7;0;0;practice;60;52;1;17;61;57;59;0.070000000000000007;0.050000000000000003;0.33000000000000002;0.55000000000000004;12;93;94;62;0.71999999999999997;0.16;0.080000000000000002;0.040000000000000001;0;10.399406736418541;46;51;20;2;  
2019_02_25 10:25;7;0;0;practice;61;35;0;84;95;4;35;0.89000000000000001;0.050000000000000003;0.01;0.050000000000000003;5;98;0;0;0.19;0.81000000000000005;0.0;0.0;1;6.74960479562742;46;51;20;2;  
2019_02_25 10:25;7;0;0;practice;62;2;0;41;60;0;0;0.97999999999999998;0.02;0.0;0.0;10;14;97;6;0.54000000000000004;0.17000000000000001;0.12;0.17000000000000001;0;5.933109835866389;46;51;20;2;  
2019_02_25 10:25;7;0;0;practice;63;60;1;39;93;27;78;0.85999999999999999;0.02;0.11;0.01;22;5;62;95;0.059999999999999998;0.56999999999999995;0.14000000000000001;0.23000000000000001;0;6.599744644575821;46;51;20;2;  
2019_02_25 10:25;7;0;0;practice;64;45;0;37;40;75;23;0.54000000000000004;0.38;0.059999999999999998;0.02;1;90;0;0;0.28000000000000003;0.71999999999999997;0.0;0.0;0;4.149846039473459;46;51;20;2;  
2019_02_25 10:25;7;0;0;practice;65;43;1;11;17;21;44;0.16;0.46000000000000002;0.25;0.13;2;66;0;0;0.44;0.56000000000000005;0.0;0.0;1;5.549669388170059;46;51;20;2;  
2019_02_25 10:25;7;0;0;practice;66;9;1;57;44;0;0;0.14999999999999999;0.84999999999999998;0.0;0.0;38;35;64;95;0.34000000000000002;0.45000000000000001;0.089999999999999997;0.12;0;4.116541752471903;46;51;20;2;  
2019_02_25 10:25;7;0;0;practice;67;44;0;69;48;22;63;0.39000000000000001;0.40999999999999998;0.19;0.01;1;94;0;0;0.22;0.78000000000000003;0.0;0.0;1;3.7999494548921575;46;51;20;2;  
2019_02_25 10:25;7;0;0;practice;68;53;0;47;24;95;38;0.57999999999999996;0.28000000000000003;0.02;0.12;8;22;93;96;0.54000000000000004;0.34000000000000002;0.10000000000000001;0.0199999999999999;0;10.699360200281717;46;51;20;2;  
2019_02_25 10:25;7;0;0;practice;69;28;1;37;83;75;8;0.83999999999999997;0.070000000000000007;0.01;0.080000000000000002;94;2;0;0;0.19;0.81000000000000005;0.0;0.0;0;3.6830840982715927;46;51;20;2;  
2019_02_25 10:25;7;0;0;practice;70;8;0;20;44;0;0;0.26000000000000001;0.73999999999999999;0.0;0.0;99;3;69;24;0.20999999999999999;0.60999999999999999;0.12;0.060000000000000102;0;7.549726796636378;46;51;20;2;  
2019_02_25 10:25;7;0;0;practice;71;73;0;99;88;95;28;0.83999999999999997;0.14000000000000001;0.01;0.01;90;93;10;74;0.080000000000000002;0.46000000000000002;0.34999999999999998;0.11;0;5.149696264312524;46;51;20;2;  
2019_02_25 10:25;7;0;0;practice;72;21;1;59;69;0;0;0.34000000000000002;0.66000000000000003;0.0;0.0;64;18;5;24;0.14999999999999999;0.040000000000000001;0.51000000000000001;0.29999999999999999;0;3.749764192318935;46;51;20;2;  
2019_02_25 10:25;7;0;0;practice;73;29;1;66;40;92;49;0.46999999999999997;0.10000000000000001;0.34000000000000002;0.089999999999999997;8;94;0;0;0.44;0.56000000000000005;0.0;0.0;1;8.016202978376896;46;51;20;2;  
2019_02_25 10:25;7;0;0;practice;74;64;0;44;60;96;45;0.53000000000000003;0.10000000000000001;0.029999999999999999;0.34000000000000002;88;20;43;31;0.47999999999999998;0.38;0.050000000000000003;0.089999999999999997;1;3.4335028753944243;46;51;20;2;  
2019_02_25 10:25;7;0;0;practice;75;47;0;91;99;90;78;0.93000000000000005;0.040000000000000001;0.02;0.0099999999999999499;10;87;0;0;0.23000000000000001;0.77000000000000002;0.0;0.0;0;3.1831278762363127;46;51;20;2;  
2019_02_25 10:25;7;1;0;control;1;116;0;53;65;43;99;0.56999999999999995;0.37;0.050000000000000003;0.010000000000000101;57;72;11;87;0.67000000000000004;0.13;0.14999999999999999;0.050000000000000003;1;4.982645645118737;46;51;20;2;  
2019_02_25 10:25;7;1;0;control;2;41;0;99;40;0;0;0.89000000000000001;0.11;0.0;0.0;1;67;52;46;0.51000000000000001;0.38;0.029999999999999999;0.080000000000000002;0;2.883136888403442;46;51;20;2;  
2019_02_25 10:25;7;1;0;control;3;108;1;48;72;39;70;0.14000000000000001;0.66000000000000003;0.02;0.17999999999999999;81;44;98;8;0.59999999999999998;0.029999999999999999;0.050000000000000003;0.32000000000000001;1;4.733019201047227;46;51;20;2;  
2019_02_25 10:25;7;1;0;control;4;16;0;64;53;0;0;0.65000000000000002;0.34999999999999998;0.0;0.0;29;17;81;46;0.10000000000000001;0.01;0.44;0.45000000000000001;0;8.68283522134493;46;51;20;2;  
2019_02_25 10:25;7;1;0;control;5;115;0;50;28;61;79;0.83999999999999997;0.040000000000000001;0.059999999999999998;0.059999999999999998;1;26;97;55;0.45000000000000001;0.080000000000000002;0.40999999999999998;0.060000000000000102;0;6.299644612728571;46;51;20;2;  
2019_02_25 10:25;7;1;0;control;6;19;0;22;53;0;0;0.13;0.87;0.0;0.0;4;93;96;65;0.46999999999999997;0.059999999999999998;0.26000000000000001;0.20999999999999999;0;5.116493965536165;46;51;20;2;  
2019_02_25 10:25;7;1;0;control;7;35;0;33;37;0;0;0.88;0.12;0.0;0.0;63;4;79;98;0.16;0.46000000000000002;0.17000000000000001;0.20999999999999999;0;3.683083456836357;46;51;20;2;  
2019_02_25 10:25;7;1;0;control;8;80;0;47;39;45;10;0.13;0.76000000000000001;0.059999999999999998;0.050000000000000003;2;87;0;0;0.48999999999999999;0.51000000000000001;0.0;0.0;1;5.7830983060653125;46;51;20;2;  
2019_02_25 10:25;7;1;0;control;9;136;1;29;67;14;75;0.46000000000000002;0.29999999999999999;0.20999999999999999;0.0300000000000001;70;86;1;85;0.31;0.39000000000000001;0.27000000000000002;0.029999999999999898;1;6.96639103119378;46;51;20;2;  
2019_02_25 10:25;7;1;0;control;10;104;1;55;85;93;3;0.87;0.02;0.089999999999999997;0.02;1;2;90;8;0.35999999999999999;0.070000000000000007;0.40000000000000002;0.17000000000000001;0;7.8495320889271625;46;51;20;2;  
2019_02_25 10:25;7;1;0;control;11;44;0;79;74;0;0;0.71999999999999997;0.28000000000000003;0.0;0.0;3;67;15;36;0.41999999999999998;0.53000000000000003;0.02;0.029999999999999999;0;2.0499578737315005;46;51;20;2;  
2019_02_25 10:25;7;1;0;control;12;34;0;32;48;0;0;0.28000000000000003;0.71999999999999997;0.0;0.0;97;83;7;62;0.040000000000000001;0.54000000000000004;0.35999999999999999;0.059999999999999901;1;2.649818618110885;46;51;20;2;  
2019_02_25 10:25;7;1;0;control;13;55;1;74;55;47;48;0.60999999999999999;0.31;0.070000000000000007;0.01;97;6;0;0;0.42999999999999999;0.56999999999999995;0.0;0.0;0;5.983190865190636;46;51;20;2;  
2019_02_25 10:25;7;1;0;control;14;65;0;75;64;59;52;0.59999999999999998;0.22;0.14000000000000001;0.040000000000000001;1;99;0;0;0.35999999999999999;0.64000000000000001;0.0;0.0;1;7.666180672461678;46;51;20;2;  
2019_02_25 10:25;7;1;0;control;15;113;0;85;65;39;64;0.44;0.34000000000000002;0.13;0.089999999999999997;87;2;4;35;0.67000000000000004;0.17000000000000001;0.11;0.049999999999999899;1;13.399245736138482;46;51;20;2;  
2019_02_25 10:25;7;1;0;control;16;131;1;83;41;81;88;0.23999999999999999;0.58999999999999997;0.10000000000000001;0.070000000000000007;82;97;4;17;0.26000000000000001;0.46999999999999997;0.11;0.16;1;5.96630379598264;46;51;20;2;  
2019_02_25 10:25;7;1;0;control;17;15;1;77;81;0;0;0.28000000000000003;0.71999999999999997;0.0;0.0;98;14;87;18;0.55000000000000004;0.23000000000000001;0.16;0.059999999999999901;0;3.9498468091956056;46;51;20;2;  
2019_02_25 10:25;7;1;0;control;18;48;1;13;32;0;0;0.90000000000000002;0.10000000000000001;0.0;0.0;24;99;84;94;0.62;0.14999999999999999;0.20000000000000001;0.029999999999999999;1;7.549553288366724;46;51;20;2;  
2019_02_25 10:25;7;1;0;control;19;17;1;81;52;0;0;0.059999999999999998;0.93999999999999995;0.0;0.0;34;3;69;41;0.01;0.22;0.75;0.02;0;16.532550119355164;46;51;20;2;  
2019_02_25 10:25;7;1;0;control;20;95;1;93;88;68;85;0.83999999999999997;0.14000000000000001;0.01;0.01;2;82;0;0;0.41999999999999998;0.57999999999999996;0.0;0.0;0;3.4164570509303758;46;51;20;2;  
2019_02_25 10:25;7;1;0;control;21;2;0;59;32;0;0;0.080000000000000002;0.92000000000000004;0.0;0.0;33;38;85;1;0.28999999999999998;0.050000000000000003;0.070000000000000007;0.58999999999999997;0;4.483071718568908;46;51;20;2;  
2019_02_25 10:25;7;1;0;control;22;120;0;64;40;48;51;0.19;0.02;0.070000000000000007;0.71999999999999997;97;9;79;94;0.23000000000000001;0.54000000000000004;0.01;0.22;0;6.466411076049553;46;51;20;2;  
2019_02_25 10:25;7;1;0;control;23;111;0;51;36;48;27;0.93000000000000005;0.01;0.01;0.049999999999999899;31;78;30;53;0.55000000000000004;0.16;0.029999999999999999;0.26000000000000001;1;8.349514289095623;46;51;20;2;  
2019_02_25 10:25;7;1;0;control;24;122;1;35;58;25;31;0.81999999999999995;0.070000000000000007;0.080000000000000002;0.029999999999999999;18;64;68;89;0.63;0.17000000000000001;0.11;0.089999999999999997;0;6.466681761779228;46;51;20;2;  
2019_02_25 10:25;7;1;0;control;25;94;0;84;86;93;39;0.78000000000000003;0.20000000000000001;0.01;0.0099999999999999603;9;83;0;0;0.46999999999999997;0.53000000000000003;0.0;0.0;0;7.083032847584946;46;51;20;2;  
2019_02_25 10:25;7;1;0;control;26;53;1;26;70;50;80;0.29999999999999999;0.59999999999999998;0.040000000000000001;0.059999999999999998;89;1;0;0;0.40999999999999998;0.58999999999999997;0.0;0.0;0;6.4163005406978755;46;51;20;2;  
2019_02_25 10:25;7;1;0;control;27;12;1;53;68;0;0;0.31;0.68999999999999995;0.0;0.0;69;54;97;29;0.25;0.20999999999999999;0.20000000000000001;0.34000000000000002;0;7.866365598281163;46;51;20;2;  
2019_02_25 10:25;7;1;0;control;28;103;0;38;49;89;50;0.89000000000000001;0.070000000000000007;0.01;0.029999999999999999;6;64;99;27;0.70999999999999996;0.17999999999999999;0.059999999999999998;0.050000000000000003;0;5.199674984693729;46;51;20;2;  
2019_02_25 10:25;7;1;0;control;29;52;1;71;51;10;54;0.22;0.12;0.19;0.46999999999999997;91;1;0;0;0.29999999999999999;0.69999999999999996;0.0;0.0;0;6.216292971760367;46;51;20;2;  
2019_02_25 10:25;7;1;0;control;30;114;0;57;39;79;97;0.77000000000000002;0.02;0.13;0.080000000000000002;92;36;6;1;0.54000000000000004;0.12;0.13;0.20999999999999999;1;4.133069297150314;46;51;20;2;  
2019_02_25 10:25;7;1;0;control;31;6;1;9;51;0;0;0.14999999999999999;0.84999999999999998;0.0;0.0;6;40;50;73;0.42999999999999999;0.26000000000000001;0.059999999999999998;0.25;0;8.349510761200918;46;51;20;2;  
2019_02_25 10:25;7;1;0;control;32;9;0;61;69;0;0;0.93999999999999995;0.060000000000000102;0.0;0.0;18;93;72;16;0.40999999999999998;0.34999999999999998;0.089999999999999997;0.14999999999999999;0;5.633129110999334;46;51;20;2;  
2019_02_25 10:25;7;1;0;control;33;76;1;39;62;9;28;0.01;0.51000000000000001;0.26000000000000001;0.22;77;7;0;0;0.57999999999999996;0.41999999999999998;0.0;0.0;1;8.016201374788352;46;51;20;2;  
2019_02_25 10:25;7;1;0;control;34;54;1;44;79;78;52;0.79000000000000004;0.19;0.01;0.0099999999999999603;96;1;0;0;0.28000000000000003;0.71999999999999997;0.0;0.0;0;4.516499481880601;46;51;20;2;  
2019_02_25 10:25;7;1;0;control;35;72;1;63;82;51;61;0.01;0.96999999999999997;0.01;0.01;92;12;0;0;0.89000000000000001;0.11;0.0;0.0;0;5.883004431997733;46;51;20;2;  
2019_02_25 10:25;7;1;0;control;36;89;1;26;41;13;56;0.059999999999999998;0.40999999999999998;0.050000000000000003;0.47999999999999998;5;97;0;0;0.37;0.63;0.0;0.0;0;7.799682617774806;46;51;20;2;  
2019_02_25 10:25;7;1;0;control;37;21;0;64;28;0;0;0.080000000000000002;0.92000000000000004;0.0;0.0;50;1;88;13;0.57999999999999996;0.13;0.02;0.27000000000000002;0;10.116227769854277;46;51;20;2;  
2019_02_25 10:25;7;1;0;control;38;66;1;89;23;27;15;0.070000000000000007;0.54000000000000004;0.17000000000000001;0.22;9;73;0;0;0.72999999999999998;0.27000000000000002;0.0;0.0;0;9.849448060892882;46;51;20;2;  
2019_02_25 10:25;7;1;0;control;39;125;1;37;41;10;35;0.91000000000000003;0.040000000000000001;0.029999999999999999;0.02;7;13;91;93;0.26000000000000001;0.39000000000000001;0.16;0.19;0;14.26587881297246;46;51;20;2;  
2019_02_25 10:25;7;1;0;control;40;97;1;17;33;32;74;0.94999999999999996;0.01;0.029999999999999999;0.01;76;23;0;0;0.33000000000000002;0.67000000000000004;0.0;0.0;1;8.199512380825354;46;51;20;2;  
2019_02_25 10:25;7;1;0;control;41;133;0;59;88;60;36;0.67000000000000004;0.070000000000000007;0.12;0.14000000000000001;7;91;66;61;0.25;0.68999999999999995;0.01;0.0500000000000001;1;7.549560664873525;46;51;20;2;  
2019_02_25 10:25;7;1;0;control;42;43;0;60;83;0;0;0.23000000000000001;0.77000000000000002;0.0;0.0;72;5;70;12;0.29999999999999999;0.40999999999999998;0.12;0.17000000000000001;0;4.316498648014658;46;51;20;2;  
2019_02_25 10:25;7;1;0;control;43;119;1;60;58;11;18;0.25;0.72999999999999998;0.01;0.01;96;23;42;85;0.44;0.48999999999999999;0.059999999999999998;0.010000000000000101;1;9.399601412055745;46;51;20;2;  
2019_02_25 10:25;7;1;0;control;44;62;1;12;45;16;50;0.20999999999999999;0.76000000000000001;0.02;0.01;92;15;0;0;0.20999999999999999;0.79000000000000004;0.0;0.0;0;5.083027716101924;46;51;20;2;  
2019_02_25 10:25;7;1;0;control;45;81;0;67;38;52;65;0.27000000000000002;0.35999999999999999;0.01;0.35999999999999999;2;77;0;0;0.14000000000000001;0.85999999999999999;0.0;0.0;0;6.499618185590862;46;51;20;2;  
2019_02_25 10:25;7;1;0;control;46;26;0;76;41;0;0;0.57999999999999996;0.41999999999999998;0.0;0.0;61;79;84;2;0.13;0.029999999999999999;0.67000000000000004;0.17000000000000001;0;10.449424905075375;46;51;20;2;  
2019_02_25 10:25;7;1;0;control;47;7;0;49;29;0;0;0.95999999999999996;0.040000000000000001;0.0;0.0;23;99;64;25;0.68999999999999995;0.12;0.059999999999999998;0.13;0;14.015887712888343;46;51;20;2;  
2019_02_25 10:25;7;1;0;control;48;42;1;70;48;0;0;0.79000000000000004;0.20999999999999999;0.0;0.0;51;8;12;67;0.19;0.26000000000000001;0.28999999999999998;0.26000000000000001;0;5.583133071862903;46;51;20;2;  
2019_02_25 10:25;7;1;0;control;49;96;0;51;54;39;7;0.17000000000000001;0.26000000000000001;0.10000000000000001;0.46999999999999997;24;96;0;0;0.28000000000000003;0.71999999999999997;0.0;0.0;1;8.616101567443593;46;51;20;2;  
2019_02_25 10:25;7;1;0;control;50;117;0;65;85;92;41;0.23000000000000001;0.17999999999999999;0.54000000000000004;0.050000000000000003;99;93;10;13;0.64000000000000001;0.16;0.01;0.19;1;13.432580170602478;46;51;20;2;  
2019_02_25 10:25;7;1;0;control;51;99;0;8;24;15;73;0.56000000000000005;0.35999999999999999;0.070000000000000007;0.0099999999999999499;88;12;0;0;0.52000000000000002;0.47999999999999998;0.0;0.0;1;9.31614168922647;46;51;20;2;  
2019_02_25 10:25;7;1;0;control;52;61;0;43;18;39;70;0.75;0.089999999999999997;0.089999999999999997;0.070000000000000007;16;66;0;0;0.64000000000000001;0.35999999999999999;0.0;0.0;0;3.5164549021217226;46;51;20;2;  
2019_02_25 10:25;7;1;0;control;53;59;0;56;47;83;90;0.31;0.12;0.54000000000000004;0.029999999999999898;10;98;0;0;0.46999999999999997;0.53000000000000003;0.0;0.0;0;6.016301438707387;46;51;20;2;  
2019_02_25 10:25;7;1;0;control;54;70;0;66;55;69;50;0.22;0.29999999999999999;0.29999999999999999;0.17999999999999999;2;90;0;0;0.34000000000000002;0.66000000000000003;0.0;0.0;0;4.099885600000107;46;51;20;2;  
2019_02_25 10:25;7;1;0;control;55;30;1;33;30;0;0;0.71999999999999997;0.28000000000000003;0.0;0.0;9;88;1;14;0.55000000000000004;0.39000000000000001;0.01;0.049999999999999899;0;12.349318009869648;46;51;20;2;  
2019_02_25 10:25;7;1;0;control;56;141;0;93;28;60;91;0.81999999999999995;0.10000000000000001;0.01;0.070000000000000007;14;85;7;89;0.45000000000000001;0.070000000000000007;0.23999999999999999;0.23999999999999999;0;6.699591117018144;46;51;20;2;  
2019_02_25 10:25;7;1;0;control;57;37;1;14;98;0;0;0.93000000000000005;0.070000000000000007;0.0;0.0;41;2;87;66;0.17999999999999999;0.48999999999999999;0.32000000000000001;0.010000000000000101;0;5.083032847585173;46;51;20;2;  
2019_02_25 10:25;7;1;0;control;58;40;1;45;49;0;0;0.68999999999999995;0.31;0.0;0.0;2;92;65;73;0.23999999999999999;0.59999999999999998;0.11;0.050000000000000003;1;6.766291416279728;46;51;20;2;  
2019_02_25 10:25;7;1;0;control;59;71;0;68;55;36;51;0.20000000000000001;0.75;0.02;0.029999999999999999;38;81;0;0;0.52000000000000002;0.47999999999999998;0.0;0.0;0;12.849296040708168;46;51;20;2;  
2019_02_25 10:25;7;1;0;control;60;145;0;91;89;90;74;0.57999999999999996;0.29999999999999999;0.11;0.010000000000000101;2;75;84;39;0.32000000000000001;0.27000000000000002;0.39000000000000001;0.0199999999999999;0;4.433054512064928;46;51;20;2;  
2019_02_25 10:25;7;1;0;control;61;88;1;77;13;12;7;0.12;0.19;0.66000000000000003;0.029999999999999898;94;2;0;0;0.40999999999999998;0.58999999999999997;0.0;0.0;0;7.583033007943868;46;51;20;2;  
2019_02_25 10:25;7;1;0;control;62;33;0;27;70;0;0;0.88;0.12;0.0;0.0;93;3;77;16;0.080000000000000002;0.40000000000000002;0.5;0.02;1;8.316218020036558;46;51;20;2;  
2019_02_25 10:25;7;1;0;control;63;49;0;21;30;0;0;0.53000000000000003;0.46999999999999997;0.0;0.0;93;99;89;25;0.44;0.02;0.11;0.42999999999999999;1;7.316367474479648;46;51;20;2;  
2019_02_25 10:25;7;1;0;control;64;4;1;40;43;0;0;0.58999999999999997;0.40999999999999998;0.0;0.0;2;33;88;81;0.69999999999999996;0.14000000000000001;0.13;0.029999999999999999;0;5.8164535871792395;46;51;20;2;  
2019_02_25 10:25;7;1;0;control;65;123;1;26;24;51;92;0.72999999999999998;0.16;0.070000000000000007;0.040000000000000001;6;90;82;49;0.64000000000000001;0.25;0.050000000000000003;0.059999999999999998;0;7.832880105785534;46;51;20;2;  
2019_02_25 10:25;7;1;0;control;66;73;0;65;68;70;47;0.25;0.23000000000000001;0.20999999999999999;0.31;27;95;0;0;0.45000000000000001;0.55000000000000004;0.0;0.0;0;6.082961648258106;46;51;20;2;  
2019_02_25 10:25;7;1;0;control;67;124;0;37;65;15;41;0.17999999999999999;0.45000000000000001;0.02;0.34999999999999998;40;7;98;30;0.070000000000000007;0.45000000000000001;0.45000000000000001;0.029999999999999898;0;8.049529715616245;46;51;20;2;  
2019_02_25 10:25;7;1;0;control;68;146;0;25;5;64;35;0.94999999999999996;0.02;0.01;0.02;47;97;12;79;0.20999999999999999;0.029999999999999999;0.02;0.73999999999999999;1;4.833037578170888;46;51;20;2;  
2019_02_25 10:25;7;1;0;control;69;51;1;52;23;43;16;0.60999999999999999;0.20999999999999999;0.01;0.17000000000000001;92;7;0;0;0.14999999999999999;0.84999999999999998;0.0;0.0;0;3.9165531058781653;46;51;20;2;  
2019_02_25 10:25;7;1;0;control;70;20;1;44;40;0;0;0.91000000000000003;0.089999999999999997;0.0;0.0;29;5;80;99;0.25;0.40000000000000002;0.26000000000000001;0.089999999999999997;0;4.116546563237307;46;51;20;2;  
2019_02_25 10:25;7;1;0;control;71;5;1;70;5;0;0;0.98999999999999999;0.01;0.0;0.0;92;87;47;1;0.44;0.02;0.16;0.38;1;5.316366512326567;46;51;20;2;  
2019_02_25 10:25;7;1;0;control;72;23;1;54;40;0;0;0.93000000000000005;0.070000000000000007;0.0;0.0;36;23;71;86;0.02;0.41999999999999998;0.19;0.37;0;7.416369495001163;46;51;20;2;  
2019_02_25 10:25;7;1;0;control;73;102;0;40;56;53;17;0.28000000000000003;0.26000000000000001;0.14999999999999999;0.31;1;76;29;62;0.68000000000000005;0.23000000000000001;0.050000000000000003;0.039999999999999897;0;7.96633554703385;46;51;20;2;  
2019_02_25 10:25;7;1;0;control;74;67;0;44;42;8;89;0.88;0.070000000000000007;0.029999999999999999;0.02;10;63;0;0;0.39000000000000001;0.60999999999999999;0.0;0.0;0;7.482900776040424;46;51;20;2;  
2019_02_25 10:25;7;1;0;control;75;82;0;78;66;30;27;0.28999999999999998;0.58999999999999997;0.080000000000000002;0.040000000000000001;90;6;0;0;0.82999999999999996;0.17000000000000001;0.0;0.0;1;7.183036792412622;46;51;20;2;  
2019_02_25 10:25;7;2;0;timed;1;66;1;89;23;27;15;0.070000000000000007;0.54000000000000004;0.17000000000000001;0.22;9;73;0;0;0.72999999999999998;0.27000000000000002;0.0;0.0;0;2.7088726869442326;46;51;20;2;  
2019_02_25 10:25;7;2;0;timed;2;30;1;33;30;0;0;0.71999999999999997;0.28000000000000003;0.0;0.0;9;88;1;14;0.55000000000000004;0.39000000000000001;0.01;0.049999999999999899;0;2.1165128878801625;46;51;20;2;  
2019_02_25 10:25;7;2;0;timed;3;76;0;39;62;9;28;0.01;0.51000000000000001;0.26000000000000001;0.22;77;7;0;0;0.57999999999999996;0.41999999999999998;0.0;0.0;1;2.2831988510611154;46;51;20;2;  
2019_02_25 10:25;7;2;0;timed;4;131;0;83;41;81;88;0.23999999999999999;0.58999999999999997;0.10000000000000001;0.070000000000000007;82;97;4;17;0.26000000000000001;0.46999999999999997;0.11;0.16;1;2.983164887057228;46;51;20;2;  
2019_02_25 10:25;7;2;0;timed;5;103;0;38;49;89;50;0.89000000000000001;0.070000000000000007;0.01;0.029999999999999999;6;64;99;27;0.70999999999999996;0.17999999999999999;0.059999999999999998;0.050000000000000003;0;4.083204110831048;46;51;20;2;  
2019_02_25 10:25;7;2;0;timed;6;128;0;70;49;27;54;0.27000000000000002;0.53000000000000003;0.02;0.17999999999999999;72;97;6;20;0.29999999999999999;0.39000000000000001;0.22;0.0899999999999999;1;3.566433943221;46;51;20;2;  
2019_02_25 10:25;7;2;0;timed;7;26;1;76;41;0;0;0.57999999999999996;0.41999999999999998;0.0;0.0;61;79;84;2;0.13;0.029999999999999999;0.67000000000000004;0.17000000000000001;0;3.616416512214073;46;51;20;2;  
2019_02_25 10:25;7;2;0;timed;8;116;1;53;65;43;99;0.56999999999999995;0.37;0.050000000000000003;0.010000000000000101;57;72;11;87;0.67000000000000004;0.13;0.14999999999999999;0.050000000000000003;0;3.899908499243338;46;51;20;2;  
2019_02_25 10:25;7;2;0;timed;9;89;0;26;41;13;56;0.059999999999999998;0.40999999999999998;0.050000000000000003;0.47999999999999998;5;97;0;0;0.37;0.63;0.0;0.0;1;2.3164851778715274;46;51;20;2;  
2019_02_25 10:25;7;2;0;timed;10;97;1;17;33;32;74;0.94999999999999996;0.01;0.029999999999999999;0.01;76;23;0;0;0.33000000000000002;0.67000000000000004;0.0;0.0;1;4.399861193383913;46;51;20;2;  
2019_02_25 10:25;7;2;0;timed;11;141;1;93;28;60;91;0.81999999999999995;0.10000000000000001;0.01;0.070000000000000007;14;85;7;89;0.45000000000000001;0.070000000000000007;0.23999999999999999;0.23999999999999999;0;2.6666101134478595;46;51;20;2;  
2019_02_25 10:25;7;2;0;timed;12;53;0;26;70;50;80;0.29999999999999999;0.59999999999999998;0.040000000000000001;0.059999999999999998;89;1;0;0;0.40999999999999998;0.58999999999999997;0.0;0.0;0;2.116498776301796;46;51;20;2;  
2019_02_25 10:25;7;2;0;timed;13;36;0;70;17;0;0;0.33000000000000002;0.67000000000000004;0.0;0.0;84;1;12;88;0.22;0.27000000000000002;0.14000000000000001;0.37;1;3.516435017625099;46;51;20;2;  
2019_02_25 10:25;7;2;0;timed;14;133;1;59;88;60;36;0.67000000000000004;0.070000000000000007;0.12;0.14000000000000001;7;91;66;61;0.25;0.68999999999999995;0.01;0.0500000000000001;1;3.0497824411554575;46;51;20;2;  
2019_02_25 10:25;7;2;0;timed;15;65;1;75;64;59;52;0.59999999999999998;0.22;0.14000000000000001;0.040000000000000001;1;99;0;0;0.35999999999999999;0.64000000000000001;0.0;0.0;1;3.316460803327118;46;51;20;2;  
2019_02_25 10:25;7;2;0;timed;16;90;0;27;44;50;72;0.68000000000000005;0.28999999999999998;0.02;0.0099999999999999707;6;96;0;0;0.46999999999999997;0.53000000000000003;0.0;0.0;0;3.883088460032468;46;51;20;2;  
2019_02_25 10:25;7;2;0;timed;17;62;0;12;45;16;50;0.20999999999999999;0.76000000000000001;0.02;0.01;92;15;0;0;0.20999999999999999;0.79000000000000004;0.0;0.0;0;3.5499301316513083;46;51;20;2;  
2019_02_25 10:25;7;2;0;timed;18;18;0;68;50;0;0;0.029999999999999999;0.96999999999999997;0.0;0.0;34;64;15;89;0.65000000000000002;0.029999999999999999;0.050000000000000003;0.27000000000000002;NA;4.916377031866887;46;51;20;2;  
2019_02_25 10:25;7;2;0;timed;19;118;0;62;52;65;68;0.40999999999999998;0.44;0.10000000000000001;0.0500000000000001;79;20;14;37;0.56999999999999995;0.23999999999999999;0.14000000000000001;0.050000000000000003;0;2.0498863536868157;46;51;20;2;  
2019_02_25 10:25;7;2;0;timed;20;14;0;36;40;0;0;0.54000000000000004;0.46000000000000002;0.0;0.0;99;70;1;11;0.16;0.089999999999999997;0.080000000000000002;0.67000000000000004;0;2.6831440724795357;46;51;20;2;  
2019_02_25 10:25;7;2;0;timed;21;12;1;53;68;0;0;0.31;0.68999999999999995;0.0;0.0;69;54;97;29;0.25;0.20999999999999999;0.20000000000000001;0.34000000000000002;0;2.5166335418743984;46;51;20;2;  
2019_02_25 10:25;7;2;0;timed;22;87;0;10;30;63;4;0.56999999999999995;0.12;0.16;0.14999999999999999;86;2;0;0;0.42999999999999999;0.56999999999999995;0.0;0.0;0;1.8498810297733144;46;51;20;2;  
2019_02_25 10:25;7;2;0;timed;23;6;0;9;51;0;0;0.14999999999999999;0.84999999999999998;0.0;0.0;6;40;50;73;0.42999999999999999;0.26000000000000001;0.059999999999999998;0.25;0;2.6998262030842852;46;51;20;2;  
2019_02_25 10:25;7;2;0;timed;24;46;1;5;19;0;0;0.32000000000000001;0.68000000000000005;0.0;0.0;88;38;97;66;0.60999999999999999;0.20000000000000001;0.040000000000000001;0.14999999999999999;1;2.083309306233332;46;51;20;2;  
2019_02_25 10:25;7;2;0;timed;25;149;1;14;89;73;53;0.93999999999999995;0.01;0.01;0.040000000000000001;97;45;6;13;0.34000000000000002;0.01;0.40999999999999998;0.23999999999999999;1;3.733082382431803;46;51;20;2;  
2019_02_25 10:25;7;2;0;timed;26;15;0;77;81;0;0;0.28000000000000003;0.71999999999999997;0.0;0.0;98;14;87;18;0.55000000000000004;0.23000000000000001;0.16;0.059999999999999901;1;3.483090961630296;46;51;20;2;  
2019_02_25 10:25;7;2;0;timed;27;20;0;44;40;0;0;0.91000000000000003;0.089999999999999997;0.0;0.0;29;5;80;99;0.25;0.40000000000000002;0.26000000000000001;0.089999999999999997;0;4.249734846650426;46;51;20;2;  
2019_02_25 10:25;7;2;0;timed;28;75;0;67;80;36;81;0.81999999999999995;0.080000000000000002;0.059999999999999998;0.040000000000000001;3;97;0;0;0.32000000000000001;0.68000000000000005;0.0;0.0;1;2.533159803681883;46;51;20;2;  
2019_02_25 10:25;7;2;0;timed;29;41;1;99;40;0;0;0.89000000000000001;0.11;0.0;0.0;1;67;52;46;0.51000000000000001;0.38;0.029999999999999999;0.080000000000000002;0;3.016487775685164;46;51;20;2;  
2019_02_25 10:25;7;2;0;timed;30;77;1;24;17;99;41;0.17999999999999999;0.13;0.10000000000000001;0.58999999999999997;12;97;0;0;0.59999999999999998;0.40000000000000002;0.0;0.0;0;3.449778015251468;46;51;20;2;  
2019_02_25 10:25;7;2;0;timed;31;59;1;56;47;83;90;0.31;0.12;0.54000000000000004;0.029999999999999898;10;98;0;0;0.46999999999999997;0.53000000000000003;0.0;0.0;0;2.816606569517262;46;51;20;2;  
2019_02_25 10:25;7;2;0;timed;32;37;1;14;98;0;0;0.93000000000000005;0.070000000000000007;0.0;0.0;41;2;87;66;0.17999999999999999;0.48999999999999999;0.32000000000000001;0.010000000000000101;1;2.599963694757662;46;51;20;2;  
2019_02_25 10:25;7;2;0;timed;33;80;1;47;39;45;10;0.13;0.76000000000000001;0.059999999999999998;0.050000000000000003;2;87;0;0;0.48999999999999999;0.51000000000000001;0.0;0.0;0;3.883056067546022;46;51;20;2;  
2019_02_25 10:25;7;2;0;timed;34;105;0;49;74;63;58;0.84999999999999998;0.080000000000000002;0.02;0.050000000000000003;97;5;86;8;0.25;0.52000000000000002;0.070000000000000007;0.16;0;3.8331107018038892;46;51;20;2;  
2019_02_25 10:25;7;2;0;timed;35;33;0;27;70;0;0;0.88;0.12;0.0;0.0;93;3;77;16;0.080000000000000002;0.40000000000000002;0.5;0.02;NA;4.916395954210657;46;51;20;2;  
2019_02_25 10:25;7;2;0;timed;36;113;0;85;65;39;64;0.44;0.34000000000000002;0.13;0.089999999999999997;87;2;4;35;0.67000000000000004;0.17000000000000001;0.11;0.049999999999999899;1;2.966529901953436;46;51;20;2;  
2019_02_25 10:25;7;2;0;timed;37;144;1;99;93;90;71;0.65000000000000002;0.32000000000000001;0.01;0.02;97;14;48;73;0.23000000000000001;0.46000000000000002;0.13;0.17999999999999999;0;1.8499987331651937;46;51;20;2;  
2019_02_25 10:25;7;2;0;timed;38;110;0;47;44;23;52;0.13;0.27000000000000002;0.040000000000000001;0.56000000000000005;99;2;30;22;0.28999999999999998;0.5;0.11;0.10000000000000001;0;2.666491127185054;46;51;20;2;  
2019_02_25 10:25;7;2;0;timed;39;27;0;44;26;0;0;0.35999999999999999;0.64000000000000001;0.0;0.0;63;10;3;5;0.58999999999999997;0.19;0.14999999999999999;0.070000000000000007;1;2.683172937071504;46;51;20;2;  
2019_02_25 10:25;7;2;0;timed;40;120;1;64;40;48;51;0.19;0.02;0.070000000000000007;0.71999999999999997;97;9;79;94;0.23000000000000001;0.54000000000000004;0.01;0.22;0;2.0998330022994196;46;51;20;2;  
2019_02_25 10:25;7;2;0;timed;41;146;1;25;5;64;35;0.94999999999999996;0.02;0.01;0.02;47;97;12;79;0.20999999999999999;0.029999999999999999;0.02;0.73999999999999999;1;2.2166117651436252;46;51;20;2;  
2019_02_25 10:25;7;2;0;timed;42;44;1;79;74;0;0;0.71999999999999997;0.28000000000000003;0.0;0.0;3;67;15;36;0.41999999999999998;0.53000000000000003;0.02;0.029999999999999999;0;2.016510546640802;46;51;20;2;  
2019_02_25 10:25;7;2;0;timed;43;31;1;10;59;0;0;0.23999999999999999;0.76000000000000001;0.0;0.0;1;79;53;73;0.23000000000000001;0.58999999999999997;0.050000000000000003;0.13;0;2.316616992841773;46;51;20;2;  
2019_02_25 10:25;7;2;0;timed;44;135;1;48;60;41;51;0.14000000000000001;0.40000000000000002;0.089999999999999997;0.37;94;1;85;65;0.64000000000000001;0.29999999999999999;0.01;0.050000000000000003;1;1.899871937426724;46;51;20;2;  
2019_02_25 10:25;7;2;0;timed;45;72;0;63;82;51;61;0.01;0.96999999999999997;0.01;0.01;92;12;0;0;0.89000000000000001;0.11;0.0;0.0;1;1.8664874710034383;46;51;20;2;  
2019_02_25 10:25;7;2;0;timed;46;111;0;51;36;48;27;0.93000000000000005;0.01;0.01;0.049999999999999899;31;78;30;53;0.55000000000000004;0.16;0.029999999999999999;0.26000000000000001;0;3.199786594449961;46;51;20;2;  
2019_02_25 10:25;7;2;0;timed;47;11;0;17;36;0;0;0.14000000000000001;0.85999999999999999;0.0;0.0;19;41;34;95;0.88;0.02;0.050000000000000003;0.050000000000000003;1;2.7164926185218974;46;51;20;2;  
2019_02_25 10:25;7;2;0;timed;48;86;1;56;30;57;88;0.20000000000000001;0.35999999999999999;0.080000000000000002;0.35999999999999999;98;2;0;0;0.77000000000000002;0.23000000000000001;0.0;0.0;0;2.28344804870585;46;51;20;2;  
2019_02_25 10:25;7;2;0;timed;49;138;0;8;20;43;51;0.38;0.5;0.02;0.10000000000000001;72;82;70;1;0.39000000000000001;0.050000000000000003;0.070000000000000007;0.48999999999999999;0;3.6998861772922282;46;51;20;2;  
2019_02_25 10:25;7;2;0;timed;50;88;1;77;13;12;7;0.12;0.19;0.66000000000000003;0.029999999999999898;94;2;0;0;0.40999999999999998;0.58999999999999997;0.0;0.0;0;3.599921360022563;46;51;20;2;  
2019_02_25 10:25;7;2;0;timed;51;115;1;50;28;61;79;0.83999999999999997;0.040000000000000001;0.059999999999999998;0.059999999999999998;1;26;97;55;0.45000000000000001;0.080000000000000002;0.40999999999999998;0.060000000000000102;0;3.1331193291098316;46;51;20;2;  
2019_02_25 10:25;7;2;0;timed;52;117;0;65;85;92;41;0.23000000000000001;0.17999999999999999;0.54000000000000004;0.050000000000000003;99;93;10;13;0.64000000000000001;0.16;0.01;0.19;1;2.166648759929103;46;51;20;2;  
2019_02_25 10:25;7;2;0;timed;53;93;0;87;81;73;98;0.80000000000000004;0.040000000000000001;0.14999999999999999;0.0099999999999999499;5;71;0;0;0.51000000000000001;0.48999999999999999;0.0;0.0;0;2.5499464882536813;46;51;20;2;  
2019_02_25 10:25;7;2;0;timed;54;104;1;55;85;93;3;0.87;0.02;0.089999999999999997;0.02;1;2;90;8;0.35999999999999999;0.070000000000000007;0.40000000000000002;0.17000000000000001;0;2.349964897448899;46;51;20;2;  
2019_02_25 10:25;7;2;0;timed;55;22;0;32;55;0;0;0.39000000000000001;0.60999999999999999;0.0;0.0;93;72;59;22;0.20000000000000001;0.11;0.14000000000000001;0.55000000000000004;1;3.183262577665573;46;51;20;2;  
2019_02_25 10:25;7;2;0;timed;56;64;0;48;39;34;19;0.46000000000000002;0.5;0.02;0.02;13;92;0;0;0.68999999999999995;0.31;0.0;0.0;0;2.549833274908906;46;51;20;2;  
2019_02_25 10:25;7;2;0;timed;57;63;0;56;78;42;36;0.93000000000000005;0.040000000000000001;0.01;0.0199999999999999;2;72;0;0;0.32000000000000001;0.68000000000000005;0.0;0.0;0;3.616475844987235;46;51;20;2;  
2019_02_25 10:25;7;2;0;timed;58;81;1;67;38;52;65;0.27000000000000002;0.35999999999999999;0.01;0.35999999999999999;2;77;0;0;0.14000000000000001;0.85999999999999999;0.0;0.0;1;1.81654146382607;46;51;20;2;  
2019_02_25 10:25;7;2;0;timed;59;40;0;45;49;0;0;0.68999999999999995;0.31;0.0;0.0;2;92;65;73;0.23999999999999999;0.59999999999999998;0.11;0.050000000000000003;1;2.7999459269976796;46;51;20;2;  
2019_02_25 10:25;7;2;0;timed;60;84;0;43;10;5;45;0.78000000000000003;0.13;0.059999999999999998;0.029999999999999999;87;1;0;0;0.57999999999999996;0.41999999999999998;0.0;0.0;1;2.149839945836902;46;51;20;2;  
2019_02_25 10:25;7;2;0;timed;61;124;0;37;65;15;41;0.17999999999999999;0.45000000000000001;0.02;0.34999999999999998;40;7;98;30;0.070000000000000007;0.45000000000000001;0.45000000000000001;0.029999999999999898;0;2.6664875992901216;46;51;20;2;  
2019_02_25 10:25;7;2;0;timed;62;143;0;88;44;56;73;0.95999999999999996;0.02;0.01;0.01;20;3;87;32;0.19;0.40000000000000002;0.28000000000000003;0.13;0;2.5164895396324027;46;51;20;2;  
2019_02_25 10:25;7;2;0;timed;63;126;1;16;55;51;42;0.68999999999999995;0.23999999999999999;0.01;0.060000000000000102;66;4;1;5;0.46999999999999997;0.38;0.089999999999999997;0.059999999999999998;0;3.299909525539988;46;51;20;2;  
2019_02_25 10:25;7;2;0;timed;64;10;1;45;62;0;0;0.059999999999999998;0.93999999999999995;0.0;0.0;17;99;28;67;0.58999999999999997;0.34000000000000002;0.01;0.059999999999999998;0;2.1498245513880647;46;51;20;2;  
2019_02_25 10:25;7;2;0;timed;65;60;1;64;59;57;96;0.83999999999999997;0.13;0.02;0.01;83;6;0;0;0.54000000000000004;0.46000000000000002;0.0;0.0;1;2.0831803777223286;46;51;20;2;  
2019_02_25 10:25;7;2;0;timed;66;127;1;89;26;62;79;0.02;0.28999999999999998;0.53000000000000003;0.16;96;6;60;13;0.53000000000000003;0.25;0.17000000000000001;0.050000000000000003;1;4.033225069731998;46;51;20;2;  
2019_02_25 10:25;7;2;0;timed;67;92;1;90;86;65;94;0.16;0.34000000000000002;0.28000000000000003;0.22;79;22;0;0;0.35999999999999999;0.64000000000000001;0.0;0.0;1;1.783174957593019;46;51;20;2;  
2019_02_25 10:25;7;2;0;timed;68;74;1;66;47;52;44;0.41999999999999998;0.26000000000000001;0.17999999999999999;0.14000000000000001;17;99;0;0;0.47999999999999998;0.52000000000000002;0.0;0.0;1;1.9998720336420774;46;51;20;2;  
2019_02_25 10:25;7;2;0;timed;69;139;1;44;31;16;8;0.79000000000000004;0.070000000000000007;0.13;0.0099999999999999499;92;58;2;88;0.55000000000000004;0.070000000000000007;0.34000000000000002;0.039999999999999897;1;2.199863887412903;46;51;20;2;  
2019_02_25 10:25;7;2;0;timed;70;122;1;35;58;25;31;0.81999999999999995;0.070000000000000007;0.080000000000000002;0.029999999999999999;18;64;68;89;0.63;0.17000000000000001;0.11;0.089999999999999997;0;2.8664922817683873;46;51;20;2;  
2019_02_25 10:25;7;2;0;timed;71;19;0;22;53;0;0;0.13;0.87;0.0;0.0;4;93;96;65;0.46999999999999997;0.059999999999999998;0.26000000000000001;0.20999999999999999;0;3.316439956677641;46;51;20;2;  
2019_02_25 10:25;7;2;0;timed;72;35;1;33;37;0;0;0.88;0.12;0.0;0.0;63;4;79;98;0.16;0.46000000000000002;0.17000000000000001;0.20999999999999999;0;2.7498029991593285;46;51;20;2;  
2019_02_25 10:25;7;2;0;timed;73;39;0;14;33;0;0;0.78000000000000003;0.22;0.0;0.0;93;84;1;25;0.14000000000000001;0.23999999999999999;0.39000000000000001;0.23000000000000001;0;2.983126721652752;46;51;20;2;  
2019_02_25 10:25;7;2;0;timed;74;108;1;48;72;39;70;0.14000000000000001;0.66000000000000003;0.02;0.17999999999999999;81;44;98;8;0.59999999999999998;0.029999999999999999;0.050000000000000003;0.32000000000000001;1;4.433187930623717;46;51;20;2;  
2019_02_25 10:25;7;2;0;timed;75;123;0;26;24;51;92;0.72999999999999998;0.16;0.070000000000000007;0.040000000000000001;6;90;82;49;0.64000000000000001;0.25;0.050000000000000003;0.059999999999999998;1;4.36638660528979;46;51;20;2;  
2019_02_25 10:25;7;3;0;control;1;28;1;47;30;0;0;0.97999999999999998;0.02;0.0;0.0;55;48;77;13;0.070000000000000007;0.26000000000000001;0.42999999999999999;0.23999999999999999;0;3.760297844103661;46;51;20;2;  
2019_02_25 10:25;7;3;0;control;2;58;0;37;58;76;34;0.20999999999999999;0.57999999999999996;0.19;0.020000000000000101;86;5;0;0;0.47999999999999998;0.52000000000000002;0.0;0.0;0;4.299733772245872;46;51;20;2;  
2019_02_25 10:25;7;3;0;control;3;149;0;14;89;73;53;0.93999999999999995;0.01;0.01;0.040000000000000001;97;45;6;13;0.34000000000000002;0.01;0.40999999999999998;0.23999999999999999;0;8.216190983535398;46;51;20;2;  
2019_02_25 10:25;7;3;0;control;4;118;1;62;52;65;68;0.40999999999999998;0.44;0.10000000000000001;0.0500000000000001;79;20;14;37;0.56999999999999995;0.23999999999999999;0.14000000000000001;0.050000000000000003;0;6.4662677152423385;46;51;20;2;  
2019_02_25 10:25;7;3;0;control;5;142;1;98;65;64;84;0.88;0.070000000000000007;0.01;0.040000000000000001;5;68;60;16;0.46000000000000002;0.080000000000000002;0.27000000000000002;0.19;0;2.4998285763949752;46;51;20;2;  
2019_02_25 10:25;7;3;0;control;6;8;1;50;36;0;0;0.080000000000000002;0.92000000000000004;0.0;0.0;6;19;84;29;0.54000000000000004;0.070000000000000007;0.17000000000000001;0.22;0;4.266375604673158;46;51;20;2;  
2019_02_25 10:25;7;3;0;control;7;50;0;15;20;0;0;0.82999999999999996;0.17000000000000001;0.0;0.0;97;18;88;87;0.56999999999999995;0.39000000000000001;0.01;0.029999999999999999;1;7.283038492216292;46;51;20;2;  
2019_02_25 10:25;7;3;0;control;8;77;1;24;17;99;41;0.17999999999999999;0.13;0.10000000000000001;0.58999999999999997;12;97;0;0;0.59999999999999998;0.40000000000000002;0.0;0.0;0;8.782821526699536;46;51;20;2;  
2019_02_25 10:25;7;3;0;control;9;18;0;68;50;0;0;0.029999999999999999;0.96999999999999997;0.0;0.0;34;64;15;89;0.65000000000000002;0.029999999999999999;0.050000000000000003;0.27000000000000002;0;4.683147279656623;46;51;20;2;  
2019_02_25 10:25;7;3;0;control;10;75;0;67;80;36;81;0.81999999999999995;0.080000000000000002;0.059999999999999998;0.040000000000000001;3;97;0;0;0.32000000000000001;0.68000000000000005;0.0;0.0;1;3.4832266252128647;46;51;20;2;  
2019_02_25 10:25;7;3;0;control;11;27;0;44;26;0;0;0.35999999999999999;0.64000000000000001;0.0;0.0;63;10;3;5;0.58999999999999997;0.19;0.14999999999999999;0.070000000000000007;1;3.433231548229287;46;51;20;2;  
2019_02_25 10:25;7;3;0;control;12;121;0;42;51;47;70;0.41999999999999998;0.17000000000000001;0.23999999999999999;0.17000000000000001;21;76;48;9;0.14999999999999999;0.34000000000000002;0.40999999999999998;0.10000000000000001;0;8.166174097748808;46;51;20;2;  
2019_02_25 10:25;7;3;0;control;13;24;1;35;27;0;0;0.070000000000000007;0.93000000000000005;0.0;0.0;62;3;81;95;0.35999999999999999;0.55000000000000004;0.01;0.080000000000000002;1;8.216329212859364;46;51;20;2;  
2019_02_25 10:25;7;3;0;control;14;87;1;10;30;63;4;0.56999999999999995;0.12;0.16;0.14999999999999999;86;2;0;0;0.42999999999999999;0.56999999999999995;0.0;0.0;1;9.016128892590586;46;51;20;2;  
2019_02_25 10:25;7;3;0;control;15;86;0;56;30;57;88;0.20000000000000001;0.35999999999999999;0.080000000000000002;0.35999999999999999;98;2;0;0;0.77000000000000002;0.23000000000000001;0.0;0.0;1;2.716613529090864;46;51;20;2;  
2019_02_25 10:25;7;3;0;control;16;148;0;37;63;55;10;0.72999999999999998;0.070000000000000007;0.029999999999999999;0.17000000000000001;80;14;23;70;0.46999999999999997;0.10000000000000001;0.23000000000000001;0.20000000000000001;1;7.132913107635886;46;51;20;2;  
2019_02_25 10:25;7;3;0;control;17;112;1;70;44;98;64;0.02;0.75;0.12;0.11;33;2;63;85;0.23999999999999999;0.31;0.080000000000000002;0.37;1;3.8665452001873746;46;51;20;2;  
2019_02_25 10:25;7;3;0;control;18;147;0;39;43;76;28;0.14000000000000001;0.10000000000000001;0.10000000000000001;0.66000000000000003;6;31;68;85;0.27000000000000002;0.20000000000000001;0.22;0.31;0;5.8996506422213315;46;51;20;2;  
2019_02_25 10:25;7;3;0;control;19;31;0;10;59;0;0;0.23999999999999999;0.76000000000000001;0.0;0.0;1;79;53;73;0.23000000000000001;0.58999999999999997;0.050000000000000003;0.13;0;5.782999845735048;46;51;20;2;  
2019_02_25 10:25;7;3;0;control;20;127;1;89;26;62;79;0.02;0.28999999999999998;0.53000000000000003;0.16;96;6;60;13;0.53000000000000003;0.25;0.17000000000000001;0.050000000000000003;1;4.183118896140968;46;51;20;2;  
2019_02_25 10:25;7;3;0;control;21;3;0;53;40;0;0;0.31;0.68999999999999995;0.0;0.0;96;24;7;88;0.11;0.27000000000000002;0.58999999999999997;0.029999999999999999;0;8.949633531932704;46;51;20;2;  
2019_02_25 10:25;7;3;0;control;22;57;0;52;35;23;47;0.22;0.68000000000000005;0.040000000000000001;0.059999999999999998;71;7;0;0;0.28999999999999998;0.70999999999999996;0.0;0.0;0;5.7164615089059225;46;51;20;2;  
2019_02_25 10:25;7;3;0;control;23;47;1;2;40;0;0;0.45000000000000001;0.55000000000000004;0.0;0.0;93;89;11;56;0.58999999999999997;0.070000000000000007;0.28000000000000003;0.059999999999999998;1;10.149577278049492;46;51;20;2;  
2019_02_25 10:25;7;3;0;control;24;32;0;19;81;0;0;0.93000000000000005;0.070000000000000007;0.0;0.0;1;65;41;68;0.45000000000000001;0.050000000000000003;0.059999999999999998;0.44;0;6.94961460958848;46;51;20;2;  
2019_02_25 10:25;7;3;0;control;25;129;0;12;29;81;36;0.17999999999999999;0.79000000000000004;0.01;0.02;5;19;95;92;0.47999999999999998;0.26000000000000001;0.13;0.13;0;11.799339129129748;46;51;20;2;  
2019_02_25 10:25;7;3;0;control;26;105;1;49;74;63;58;0.84999999999999998;0.080000000000000002;0.02;0.050000000000000003;97;5;86;8;0.25;0.52000000000000002;0.070000000000000007;0.16;1;10.632732062500054;46;51;20;2;  
2019_02_25 10:25;7;3;0;control;27;84;1;43;10;5;45;0.78000000000000003;0.13;0.059999999999999998;0.029999999999999999;87;1;0;0;0.57999999999999996;0.41999999999999998;0.0;0.0;1;4.849691164901287;46;51;20;2;  
2019_02_25 10:25;7;3;0;control;28;100;1;27;14;59;52;0.02;0.95999999999999996;0.01;0.01;17;98;0;0;0.48999999999999999;0.51000000000000001;0.0;0.0;1;7.116253106551994;46;51;20;2;  
2019_02_25 10:25;7;3;0;control;29;14;1;36;40;0;0;0.54000000000000004;0.46000000000000002;0.0;0.0;99;70;1;11;0.16;0.089999999999999997;0.080000000000000002;0.67000000000000004;0;5.982971494291178;46;51;20;2;  
2019_02_25 10:25;7;3;0;control;30;139;1;44;31;16;8;0.79000000000000004;0.070000000000000007;0.13;0.0099999999999999499;92;58;2;88;0.55000000000000004;0.070000000000000007;0.34000000000000002;0.039999999999999897;0;9.899416518308044;46;51;20;2;  
2019_02_25 10:25;7;3;0;control;31;79;1;52;46;29;22;0.17999999999999999;0.51000000000000001;0.23999999999999999;0.070000000000000104;93;14;0;0;0.45000000000000001;0.55000000000000004;0.0;0.0;1;10.216085467415724;46;51;20;2;  
2019_02_25 10:25;7;3;0;control;32;74;1;66;47;52;44;0.41999999999999998;0.26000000000000001;0.17999999999999999;0.14000000000000001;17;99;0;0;0.47999999999999998;0.52000000000000002;0.0;0.0;0;6.3329505033179885;46;51;20;2;  
2019_02_25 10:25;7;3;0;control;33;106;0;85;69;22;61;0.10000000000000001;0.58999999999999997;0.17999999999999999;0.13;20;79;91;84;0.55000000000000004;0.14999999999999999;0.26000000000000001;0.039999999999999897;0;6.799594420410358;46;51;20;2;  
2019_02_25 10:25;7;3;0;control;34;64;1;48;39;34;19;0.46000000000000002;0.5;0.02;0.02;13;92;0;0;0.68999999999999995;0.31;0.0;0.0;0;6.1497520691905265;46;51;20;2;  
2019_02_25 10:25;7;3;0;control;35;22;0;32;55;0;0;0.39000000000000001;0.60999999999999999;0.0;0.0;93;72;59;22;0.20000000000000001;0.11;0.14000000000000001;0.55000000000000004;0;4.883165432277565;46;51;20;2;  
2019_02_25 10:25;7;3;0;control;36;150;1;25;21;78;38;0.84999999999999998;0.059999999999999998;0.050000000000000003;0.040000000000000001;31;43;64;95;0.059999999999999998;0.45000000000000001;0.13;0.35999999999999999;1;10.016100990151699;46;51;20;2;  
2019_02_25 10:25;7;3;0;control;37;110;1;47;44;23;52;0.13;0.27000000000000002;0.040000000000000001;0.56000000000000005;99;2;30;22;0.28999999999999998;0.5;0.11;0.10000000000000001;0;3.99988774880876;46;51;20;2;  
2019_02_25 10:25;7;3;0;control;38;128;1;70;49;27;54;0.27000000000000002;0.53000000000000003;0.02;0.17999999999999999;72;97;6;20;0.29999999999999999;0.39000000000000001;0.22;0.0899999999999999;1;11.499480276984741;46;51;20;2;  
2019_02_25 10:25;7;3;0;control;39;39;0;14;33;0;0;0.78000000000000003;0.22;0.0;0.0;93;84;1;25;0.14000000000000001;0.23999999999999999;0.39000000000000001;0.23000000000000001;0;7.7162244985338475;46;51;20;2;  
2019_02_25 10:25;7;3;0;control;40;36;1;70;17;0;0;0.33000000000000002;0.67000000000000004;0.0;0.0;84;1;12;88;0.22;0.27000000000000002;0.14000000000000001;0.37;0;3.2833858294739002;46;51;20;2;  
2019_02_25 10:25;7;3;0;control;41;45;0;97;87;0;0;0.71999999999999997;0.28000000000000003;0.0;0.0;96;11;14;4;0.25;0.029999999999999999;0.14000000000000001;0.57999999999999996;0;6.599713855677692;46;51;20;2;  
2019_02_25 10:25;7;3;0;control;42;135;0;48;60;41;51;0.14000000000000001;0.40000000000000002;0.089999999999999997;0.37;94;1;85;65;0.64000000000000001;0.29999999999999999;0.01;0.050000000000000003;1;5.799633227250979;46;51;20;2;  
2019_02_25 10:25;7;3;0;control;43;63;1;56;78;42;36;0.93000000000000005;0.040000000000000001;0.01;0.0199999999999999;2;72;0;0;0.32000000000000001;0.68000000000000005;0.0;0.0;0;9.382801898776961;46;51;20;2;  
2019_02_25 10:25;7;3;0;control;44;138;1;8;20;43;51;0.38;0.5;0.02;0.10000000000000001;72;82;70;1;0.39000000000000001;0.050000000000000003;0.070000000000000007;0.48999999999999999;0;3.8998863697224806;46;51;20;2;  
2019_02_25 10:25;7;3;0;control;45;60;0;64;59;57;96;0.83999999999999997;0.13;0.02;0.01;83;6;0;0;0.54000000000000004;0.46000000000000002;0.0;0.0;0;3.966406104925227;46;51;20;2;  
2019_02_25 10:25;7;3;0;control;46;56;0;28;84;37;41;0.68000000000000005;0.28000000000000003;0.02;0.0199999999999999;6;95;0;0;0.72999999999999998;0.27000000000000002;0.0;0.0;0;2.8165947029624476;46;51;20;2;  
2019_02_25 10:25;7;3;0;control;47;144;0;99;93;90;71;0.65000000000000002;0.32000000000000001;0.01;0.02;97;14;48;73;0.23000000000000001;0.46000000000000002;0.13;0.17999999999999999;0;5.266475989309583;46;51;20;2;  
2019_02_25 10:25;7;3;0;control;48;38;1;40;70;0;0;0.53000000000000003;0.46999999999999997;0.0;0.0;97;90;6;96;0.56999999999999995;0.070000000000000007;0.27000000000000002;0.089999999999999997;0;5.216322157070408;46;51;20;2;  
2019_02_25 10:25;7;3;0;control;49;46;1;5;19;0;0;0.32000000000000001;0.68000000000000005;0.0;0.0;88;38;97;66;0.60999999999999999;0.20000000000000001;0.040000000000000001;0.14999999999999999;1;3.549773942136653;46;51;20;2;  
2019_02_25 10:25;7;3;0;control;50;132;1;27;70;21;19;0.64000000000000001;0.23000000000000001;0.029999999999999999;0.10000000000000001;11;85;55;6;0.39000000000000001;0.46999999999999997;0.029999999999999999;0.11;1;8.899494131988831;46;51;20;2;  
2019_02_25 10:25;7;3;0;control;51;78;1;74;36;34;3;0.14999999999999999;0.64000000000000001;0.13;0.080000000000000002;1;83;0;0;0.41999999999999998;0.57999999999999996;0.0;0.0;1;7.116380431474681;46;51;20;2;  
2019_02_25 10:25;7;3;0;control;52;126;0;16;55;51;42;0.68999999999999995;0.23999999999999999;0.01;0.060000000000000102;66;4;1;5;0.46999999999999997;0.38;0.089999999999999997;0.059999999999999998;0;10.066283686983297;46;51;20;2;  
2019_02_25 10:25;7;3;0;control;53;69;0;54;34;64;49;0.34000000000000002;0.25;0.20999999999999999;0.20000000000000001;14;98;0;0;0.62;0.38;0.0;0.0;0;4.666378875993814;46;51;20;2;  
2019_02_25 10:25;7;3;0;control;54;10;1;45;62;0;0;0.059999999999999998;0.93999999999999995;0.0;0.0;17;99;28;67;0.58999999999999997;0.34000000000000002;0.01;0.059999999999999998;0;3.01658270812095;46;51;20;2;  
2019_02_25 10:25;7;3;0;control;55;91;0;74;81;86;48;0.93000000000000005;0.02;0.01;0.039999999999999897;7;64;0;0;0.13;0.87;0.0;0.0;0;4.249779747126922;46;51;20;2;  
2019_02_25 10:25;7;3;0;control;56;93;1;87;81;73;98;0.80000000000000004;0.040000000000000001;0.14999999999999999;0.0099999999999999499;5;71;0;0;0.51000000000000001;0.48999999999999999;0.0;0.0;0;4.516432451883247;46;51;20;2;  
2019_02_25 10:25;7;3;0;control;57;130;0;37;79;23;95;0.94999999999999996;0.029999999999999999;0.01;0.01;94;4;58;49;0.46000000000000002;0.5;0.029999999999999999;0.01;0;4.599871648780663;46;51;20;2;  
2019_02_25 10:25;7;3;0;control;58;25;1;50;53;0;0;0.82999999999999996;0.17000000000000001;0.0;0.0;83;16;97;4;0.45000000000000001;0.29999999999999999;0.11;0.14000000000000001;0;12.965965759537994;46;51;20;2;  
2019_02_25 10:25;7;3;0;control;59;109;0;75;28;16;56;0.19;0.070000000000000007;0.059999999999999998;0.68000000000000005;3;50;98;44;0.5;0.02;0.34999999999999998;0.13;0;4.666385611064925;46;51;20;2;  
2019_02_25 10:25;7;3;0;control;60;90;1;27;44;50;72;0.68000000000000005;0.28999999999999998;0.02;0.0099999999999999707;6;96;0;0;0.46999999999999997;0.53000000000000003;0.0;0.0;0;5.116475684628313;46;51;20;2;  
2019_02_25 10:25;7;3;0;control;61;98;1;27;10;31;79;0.23000000000000001;0.67000000000000004;0.070000000000000007;0.029999999999999999;25;99;0;0;0.38;0.62;0.0;0.0;1;3.3165916561442828;46;51;20;2;  
2019_02_25 10:25;7;3;0;control;62;85;0;31;22;82;50;0.11;0.69999999999999996;0.01;0.17999999999999999;3;99;0;0;0.62;0.38;0.0;0.0;0;5.216332420035997;46;51;20;2;  
2019_02_25 10:25;7;3;0;control;63;83;0;17;12;7;41;0.65000000000000002;0.19;0.089999999999999997;0.070000000000000007;6;84;0;0;0.72999999999999998;0.27000000000000002;0.0;0.0;0;7.882877107075274;46;51;20;2;  
2019_02_25 10:25;7;3;0;control;64;134;0;57;48;50;55;0.02;0.62;0.17999999999999999;0.17999999999999999;80;96;15;18;0.23999999999999999;0.35999999999999999;0.33000000000000002;0.070000000000000007;0;10.299558981105292;46;51;20;2;  
2019_02_25 10:25;7;3;0;control;65;107;1;52;48;13;63;0.68000000000000005;0.19;0.050000000000000003;0.079999999999999905;54;91;33;3;0.19;0.17999999999999999;0.33000000000000002;0.29999999999999999;0;3.199797498850785;46;51;20;2;  
2019_02_25 10:25;7;3;0;control;66;140;0;36;32;26;27;0.39000000000000001;0.14999999999999999;0.19;0.27000000000000002;44;3;99;25;0.29999999999999999;0.34000000000000002;0.34000000000000002;0.0199999999999999;0;4.533058777610222;46;51;20;2;  
2019_02_25 10:25;7;3;0;control;67;101;0;30;96;61;45;0.65000000000000002;0.14000000000000001;0.11;0.10000000000000001;3;98;63;89;0.75;0.19;0.040000000000000001;0.02;0;5.3330419078597515;46;51;20;2;  
2019_02_25 10:25;7;3;0;control;68;143;0;88;44;56;73;0.95999999999999996;0.02;0.01;0.01;20;3;87;32;0.19;0.40000000000000002;0.28000000000000003;0.13;0;3.9997732525935135;46;51;20;2;  
2019_02_25 10:25;7;3;0;control;69;137;0;71;22;28;17;0.25;0.46000000000000002;0.050000000000000003;0.23999999999999999;3;98;92;69;0.42999999999999999;0.23999999999999999;0.20000000000000001;0.13;0;4.266394527016473;46;51;20;2;  
2019_02_25 10:25;7;3;0;control;70;92;1;90;86;65;94;0.16;0.34000000000000002;0.28000000000000003;0.22;79;22;0;0;0.35999999999999999;0.64000000000000001;0.0;0.0;0;3.6164745621163092;46;51;20;2;  
2019_02_25 10:25;7;3;0;control;71;13;0;52;56;0;0;0.46999999999999997;0.53000000000000003;0.0;0.0;94;71;27;2;0.089999999999999997;0.31;0.57999999999999996;0.020000000000000101;0;4.5663993057100924;46;51;20;2;  
2019_02_25 10:25;7;3;0;control;72;11;0;17;36;0;0;0.14000000000000001;0.85999999999999999;0.0;0.0;19;41;34;95;0.88;0.02;0.050000000000000003;0.050000000000000003;1;7.316505703804069;46;51;20;2;  
2019_02_25 10:25;7;3;0;control;73;1;0;22;51;0;0;0.26000000000000001;0.73999999999999999;0.0;0.0;14;11;92;31;0.29999999999999999;0.40999999999999998;0.14999999999999999;0.14000000000000001;0;8.849511883713149;46;51;20;2;  
2019_02_25 10:25;7;3;0;control;74;68;0;84;27;55;62;0.01;0.050000000000000003;0.40999999999999998;0.53000000000000003;9;82;0;0;0.37;0.63;0.0;0.0;1;2.3498391761145285;46;51;20;2;  
2019_02_25 10:25;7;3;0;control;75;29;1;44;51;0;0;0.78000000000000003;0.22;0.0;0.0;74;1;68;82;0.69999999999999996;0.28000000000000003;0.01;0.01;1;3.083124252126254;46;51;20;2;  
2019_02_25 10:25;7;4;0;timed;1;69;0;54;34;64;49;0.34000000000000002;0.25;0.20999999999999999;0.20000000000000001;14;98;0;0;0.62;0.38;0.0;0.0;1;3.2261733216123503;46;51;20;2;  
2019_02_25 10:25;7;4;0;timed;2;101;1;30;96;61;45;0.65000000000000002;0.14000000000000001;0.11;0.10000000000000001;3;98;63;89;0.75;0.19;0.040000000000000001;0.02;0;2.0998278708161706;46;51;20;2;  
2019_02_25 10:25;7;4;0;timed;3;45;0;97;87;0;0;0.71999999999999997;0.28000000000000003;0.0;0.0;96;11;14;4;0.25;0.029999999999999999;0.14000000000000001;0.57999999999999996;0;2.7164903734978907;46;51;20;2;  
2019_02_25 10:25;7;4;0;timed;4;29;1;44;51;0;0;0.78000000000000003;0.22;0.0;0.0;74;1;68;82;0.69999999999999996;0.28000000000000003;0.01;0.01;1;2.483157029474114;46;51;20;2;  
2019_02_25 10:25;7;4;0;timed;5;67;0;44;42;8;89;0.88;0.070000000000000007;0.029999999999999999;0.02;10;63;0;0;0.39000000000000001;0.60999999999999999;0.0;0.0;1;2.3664895556680676;46;51;20;2;  
2019_02_25 10:25;7;4;0;timed;6;142;0;98;65;64;84;0.88;0.070000000000000007;0.01;0.040000000000000001;5;68;60;16;0.46000000000000002;0.080000000000000002;0.27000000000000002;0.19;0;1.5665317621160284;46;51;20;2;  
2019_02_25 10:25;7;4;0;timed;7;102;0;40;56;53;17;0.28000000000000003;0.26000000000000001;0.14999999999999999;0.31;1;76;29;62;0.68000000000000005;0.23000000000000001;0.050000000000000003;0.039999999999999897;0;2.433166763256395;46;51;20;2;  
2019_02_25 10:25;7;4;0;timed;8;55;0;74;55;47;48;0.60999999999999999;0.31;0.070000000000000007;0.01;97;6;0;0;0.42999999999999999;0.56999999999999995;0.0;0.0;0;2.5166329004391628;46;51;20;2;  
2019_02_25 10:25;7;4;0;timed;9;61;0;43;18;39;70;0.75;0.089999999999999997;0.089999999999999997;0.070000000000000007;16;66;0;0;0.64000000000000001;0.35999999999999999;0.0;0.0;0;2.5498207669193107;46;51;20;2;  
2019_02_25 10:25;7;4;0;timed;10;28;1;47;30;0;0;0.97999999999999998;0.02;0.0;0.0;55;48;77;13;0.070000000000000007;0.26000000000000001;0.42999999999999999;0.23999999999999999;0;2.8832744762917173;46;51;20;2;  
2019_02_25 10:25;7;4;0;timed;11;79;0;52;46;29;22;0.17999999999999999;0.51000000000000001;0.23999999999999999;0.070000000000000104;93;14;0;0;0.45000000000000001;0.55000000000000004;0.0;0.0;0;2.8831077030936285;46;51;20;2;  
2019_02_25 10:25;7;4;0;timed;12;121;1;42;51;47;70;0.41999999999999998;0.17000000000000001;0.23999999999999999;0.17000000000000001;21;76;48;9;0.14999999999999999;0.34000000000000002;0.40999999999999998;0.10000000000000001;0;4.566392570638982;46;51;20;2;  
2019_02_25 10:25;7;4;0;timed;13;68;1;84;27;55;62;0.01;0.050000000000000003;0.40999999999999998;0.53000000000000003;9;82;0;0;0.37;0.63;0.0;0.0;1;3.7164294371373217;46;51;20;2;  
2019_02_25 10:25;7;4;0;timed;14;3;1;53;40;0;0;0.31;0.68999999999999995;0.0;0.0;96;24;7;88;0.11;0.27000000000000002;0.58999999999999997;0.029999999999999999;0;2.266644366096898;46;51;20;2;  
2019_02_25 10:25;7;4;0;timed;15;70;0;66;55;69;50;0.22;0.29999999999999999;0.29999999999999999;0.17999999999999999;2;90;0;0;0.34000000000000002;0.66000000000000003;0.0;0.0;1;3.4832388124850695;46;51;20;2;  
2019_02_25 10:25;7;4;0;timed;16;129;0;12;29;81;36;0.17999999999999999;0.79000000000000004;0.01;0.02;5;19;95;92;0.47999999999999998;0.26000000000000001;0.13;0.13;0;3.899741405327404;46;51;20;2;  
2019_02_25 10:25;7;4;0;timed;17;100;1;27;14;59;52;0.02;0.95999999999999996;0.01;0.01;17;98;0;0;0.48999999999999999;0.51000000000000001;0.0;0.0;1;3.349785936978151;46;51;20;2;  
2019_02_25 10:25;7;4;0;timed;18;147;0;39;43;76;28;0.14000000000000001;0.10000000000000001;0.10000000000000001;0.66000000000000003;6;31;68;85;0.27000000000000002;0.20000000000000001;0.22;0.31;NA;4.933031580750139;46;51;20;2;  
2019_02_25 10:25;7;4;0;timed;19;96;1;51;54;39;7;0.17000000000000001;0.26000000000000001;0.10000000000000001;0.46999999999999997;24;96;0;0;0.28000000000000003;0.71999999999999997;0.0;0.0;1;1.5165860756565053;46;51;20;2;  
2019_02_25 10:25;7;4;0;timed;20;99;1;8;24;15;73;0.56000000000000005;0.35999999999999999;0.070000000000000007;0.0099999999999999499;88;12;0;0;0.52000000000000002;0.47999999999999998;0.0;0.0;1;2.4498315751056907;46;51;20;2;  
2019_02_25 10:25;7;4;0;timed;21;16;1;64;53;0;0;0.65000000000000002;0.34999999999999998;0.0;0.0;29;17;81;46;0.10000000000000001;0.01;0.44;0.45000000000000001;0;2.7831412822361017;46;51;20;2;  
2019_02_25 10:25;7;4;0;timed;22;85;0;31;22;82;50;0.11;0.69999999999999996;0.01;0.17999999999999999;3;99;0;0;0.62;0.38;0.0;0.0;0;2.916607307167851;46;51;20;2;  
2019_02_25 10:25;7;4;0;timed;23;132;1;27;70;21;19;0.64000000000000001;0.23000000000000001;0.029999999999999999;0.10000000000000001;11;85;55;6;0.39000000000000001;0.46999999999999997;0.029999999999999999;0.11;NA;4.916392747033569;46;51;20;2;  
2019_02_25 10:25;7;4;0;timed;24;137;0;71;22;28;17;0.25;0.46000000000000002;0.050000000000000003;0.23999999999999999;3;98;92;69;0.42999999999999999;0.23999999999999999;0.20000000000000001;0.13;1;2.1666981504531577;46;51;20;2;  
2019_02_25 10:25;7;4;0;timed;25;5;0;70;5;0;0;0.98999999999999999;0.01;0.0;0.0;92;87;47;1;0.44;0.02;0.16;0.38;0;1.316554773610278;46;51;20;2;  
2019_02_25 10:25;7;4;0;timed;26;48;1;13;32;0;0;0.90000000000000002;0.10000000000000001;0.0;0.0;24;99;84;94;0.62;0.14999999999999999;0.20000000000000001;0.029999999999999999;0;1.816521579329219;46;51;20;2;  
2019_02_25 10:25;7;4;0;timed;27;8;1;50;36;0;0;0.080000000000000002;0.92000000000000004;0.0;0.0;6;19;84;29;0.54000000000000004;0.070000000000000007;0.17000000000000001;0.22;1;3.033136872367322;46;51;20;2;  
2019_02_25 10:25;7;4;0;timed;28;57;1;52;35;23;47;0.22;0.68000000000000005;0.040000000000000001;0.059999999999999998;71;7;0;0;0.28999999999999998;0.70999999999999996;0.0;0.0;NA;4.916377031866887;46;51;20;2;  
2019_02_25 10:25;7;4;0;timed;29;71;1;68;55;36;51;0.20000000000000001;0.75;0.02;0.029999999999999999;38;81;0;0;0.52000000000000002;0.47999999999999998;0.0;0.0;1;1.1165988402208313;46;51;20;2;  
2019_02_25 10:25;7;4;0;timed;30;13;0;52;56;0;0;0.46999999999999997;0.53000000000000003;0.0;0.0;94;71;27;2;0.089999999999999997;0.31;0.57999999999999996;0.020000000000000101;0;1.5832029883190444;46;51;20;2;  
2019_02_25 10:25;7;4;0;timed;31;98;1;27;10;31;79;0.23000000000000001;0.67000000000000004;0.070000000000000007;0.029999999999999999;25;99;0;0;0.38;0.62;0.0;0.0;1;2.1165090392673847;46;51;20;2;  
2019_02_25 10:25;7;4;0;timed;32;24;0;35;27;0;0;0.070000000000000007;0.93000000000000005;0.0;0.0;62;3;81;95;0.35999999999999999;0.55000000000000004;0.01;0.080000000000000002;0;2.199969724249968;46;51;20;2;  
2019_02_25 10:25;7;4;0;timed;33;38;0;40;70;0;0;0.53000000000000003;0.46999999999999997;0.0;0.0;97;90;6;96;0.56999999999999995;0.070000000000000007;0.27000000000000002;0.089999999999999997;1;2.6499600546121655;46;51;20;2;  
2019_02_25 10:25;7;4;0;timed;34;1;0;22;51;0;0;0.26000000000000001;0.73999999999999999;0.0;0.0;14;11;92;31;0.29999999999999999;0.40999999999999998;0.14999999999999999;0.14000000000000001;0;2.2831703071865377;46;51;20;2;  
2019_02_25 10:25;7;4;0;timed;35;78;0;74;36;34;3;0.14999999999999999;0.64000000000000001;0.13;0.080000000000000002;1;83;0;0;0.41999999999999998;0.57999999999999996;0.0;0.0;1;1.8498646731709414;46;51;20;2;  
2019_02_25 10:25;7;4;0;timed;36;148;0;37;63;55;10;0.72999999999999998;0.070000000000000007;0.029999999999999999;0.17000000000000001;80;14;23;70;0.46999999999999997;0.10000000000000001;0.23000000000000001;0.20000000000000001;1;2.0331824142790538;46;51;20;2;  
2019_02_25 10:25;7;4;0;timed;37;4;0;40;43;0;0;0.58999999999999997;0.40999999999999998;0.0;0.0;2;33;88;81;0.69999999999999996;0.14000000000000001;0.13;0.029999999999999999;0;1.783216330175037;46;51;20;2;  
2019_02_25 10:25;7;4;0;timed;38;109;0;75;28;16;56;0.19;0.070000000000000007;0.059999999999999998;0.68000000000000005;3;50;98;44;0.5;0.02;0.34999999999999998;0.13;0;2.0665248666855405;46;51;20;2;  
2019_02_25 10:25;7;4;0;timed;39;145;1;91;89;90;74;0.57999999999999996;0.29999999999999999;0.11;0.010000000000000101;2;75;84;39;0.32000000000000001;0.27000000000000002;0.39000000000000001;0.0199999999999999;0;2.3998111614246227;46;51;20;2;  
2019_02_25 10:25;7;4;0;timed;40;58;0;37;58;76;34;0.20999999999999999;0.57999999999999996;0.19;0.020000000000000101;86;5;0;0;0.47999999999999998;0.52000000000000002;0.0;0.0;1;3.449804634819884;46;51;20;2;  
2019_02_25 10:25;7;4;0;timed;41;125;1;37;41;10;35;0.91000000000000003;0.040000000000000001;0.029999999999999999;0.02;7;13;91;93;0.26000000000000001;0.39000000000000001;0.16;0.19;0;4.216408109410622;46;51;20;2;  
2019_02_25 10:25;7;4;0;timed;42;23;0;54;40;0;0;0.93000000000000005;0.070000000000000007;0.0;0.0;36;23;71;86;0.02;0.41999999999999998;0.19;0.37;0;1.8832000697880176;46;51;20;2;  
2019_02_25 10:25;7;4;0;timed;43;54;0;44;79;78;52;0.79000000000000004;0.19;0.01;0.0099999999999999603;96;1;0;0;0.28000000000000003;0.71999999999999997;0.0;0.0;0;3.149788951724531;46;51;20;2;  
2019_02_25 10:25;7;4;0;timed;44;50;1;15;20;0;0;0.82999999999999996;0.17000000000000001;0.0;0.0;97;18;88;87;0.56999999999999995;0.39000000000000001;0.01;0.029999999999999999;1;1.6167013095227958;46;51;20;2;  
2019_02_25 10:25;7;4;0;timed;45;2;0;59;32;0;0;0.080000000000000002;0.92000000000000004;0.0;0.0;33;38;85;1;0.28999999999999998;0.050000000000000003;0.070000000000000007;0.58999999999999997;0;2.5498031274464665;46;51;20;2;  
2019_02_25 10:25;7;4;0;timed;46;7;1;49;29;0;0;0.95999999999999996;0.040000000000000001;0.0;0.0;23;99;64;25;0.68999999999999995;0.12;0.059999999999999998;0.13;1;2.6166009248854607;46;51;20;2;  
2019_02_25 10:25;7;4;0;timed;47;94;1;84;86;93;39;0.78000000000000003;0.20000000000000001;0.01;0.0099999999999999603;9;83;0;0;0.46999999999999997;0.53000000000000003;0.0;0.0;0;2.283160364937885;46;51;20;2;  
2019_02_25 10:25;7;4;0;timed;48;25;0;50;53;0;0;0.82999999999999996;0.17000000000000001;0.0;0.0;83;16;97;4;0.45000000000000001;0.29999999999999999;0.11;0.14000000000000001;0;2.216481233043851;46;51;20;2;  
2019_02_25 10:25;7;4;0;timed;49;56;0;28;84;37;41;0.68000000000000005;0.28000000000000003;0.02;0.0199999999999999;6;95;0;0;0.72999999999999998;0.27000000000000002;0.0;0.0;0;2.416499064947402;46;51;20;2;  
2019_02_25 10:25;7;4;0;timed;50;114;1;57;39;79;97;0.77000000000000002;0.02;0.13;0.080000000000000002;92;36;6;1;0.54000000000000004;0.12;0.13;0.20999999999999999;1;3.1497931210546994;46;51;20;2;  
2019_02_25 10:25;7;4;0;timed;51;112;0;70;44;98;64;0.02;0.75;0.12;0.11;33;2;63;85;0.23999999999999999;0.31;0.080000000000000002;0.37;1;3.799762797196763;46;51;20;2;  
2019_02_25 10:25;7;4;0;timed;52;91;0;74;81;86;48;0.93000000000000005;0.02;0.01;0.039999999999999897;7;64;0;0;0.13;0.87;0.0;0.0;0;2.783143206542263;46;51;20;2;  
2019_02_25 10:25;7;4;0;timed;53;17;0;81;52;0;0;0.059999999999999998;0.93999999999999995;0.0;0.0;34;3;69;41;0.01;0.22;0.75;0.02;1;3.4497703180268218;46;51;20;2;  
2019_02_25 10:25;7;4;0;timed;54;34;0;32;48;0;0;0.28000000000000003;0.71999999999999997;0.0;0.0;97;83;7;62;0.040000000000000001;0.54000000000000004;0.35999999999999999;0.059999999999999901;0;2.7832926609848982;46;51;20;2;  
2019_02_25 10:25;7;4;0;timed;55;47;1;2;40;0;0;0.45000000000000001;0.55000000000000004;0.0;0.0;93;89;11;56;0.58999999999999997;0.070000000000000007;0.28000000000000003;0.059999999999999998;1;2.9498445641720537;46;51;20;2;  
2019_02_25 10:25;7;4;0;timed;56;73;1;65;68;70;47;0.25;0.23000000000000001;0.20999999999999999;0.31;27;95;0;0;0.45000000000000001;0.55000000000000004;0.0;0.0;1;1.8498521651813462;46;51;20;2;  
2019_02_25 10:25;7;4;0;timed;57;43;0;60;83;0;0;0.23000000000000001;0.77000000000000002;0.0;0.0;72;5;70;12;0.29999999999999999;0.40999999999999998;0.12;0.17000000000000001;0;2.3831643097660162;46;51;20;2;  
2019_02_25 10:25;7;4;0;timed;58;106;0;85;69;22;61;0.10000000000000001;0.58999999999999997;0.17999999999999999;0.13;20;79;91;84;0.55000000000000004;0.14999999999999999;0.26000000000000001;0.039999999999999897;0;2.5998046187837645;46;51;20;2;  
2019_02_25 10:25;7;4;0;timed;59;32;1;19;81;0;0;0.93000000000000005;0.070000000000000007;0.0;0.0;1;65;41;68;0.45000000000000001;0.050000000000000003;0.059999999999999998;0.44;1;2.1333130425941818;46;51;20;2;  
2019_02_25 10:25;7;4;0;timed;60;42;0;70;48;0;0;0.79000000000000004;0.20999999999999999;0.0;0.0;51;8;12;67;0.19;0.26000000000000001;0.28999999999999998;0.26000000000000001;0;3.083141250164317;46;51;20;2;  
2019_02_25 10:25;7;4;0;timed;61;83;0;17;12;7;41;0.65000000000000002;0.19;0.089999999999999997;0.070000000000000007;6;84;0;0;0.72999999999999998;0.27000000000000002;0.0;0.0;0;2.616485466517588;46;51;20;2;  
2019_02_25 10:25;7;4;0;timed;62;140;0;36;32;26;27;0.39000000000000001;0.14999999999999999;0.19;0.27000000000000002;44;3;99;25;0.29999999999999999;0.34000000000000002;0.34000000000000002;0.0199999999999999;1;2.5664644114012845;46;51;20;2;  
2019_02_25 10:25;7;4;0;timed;63;95;0;93;88;68;85;0.83999999999999997;0.14000000000000001;0.01;0.01;2;82;0;0;0.41999999999999998;0.57999999999999996;0.0;0.0;0;3.316459520456192;46;51;20;2;  
2019_02_25 10:25;7;4;0;timed;64;107;0;52;48;13;63;0.68000000000000005;0.19;0.050000000000000003;0.079999999999999905;54;91;33;3;0.19;0.17999999999999999;0.33000000000000002;0.29999999999999999;0;4.133093350977106;46;51;20;2;  
2019_02_25 10:25;7;4;0;timed;65;130;0;37;79;23;95;0.94999999999999996;0.029999999999999999;0.01;0.01;94;4;58;49;0.46000000000000002;0.5;0.029999999999999999;0.01;0;3.3332452428749093;46;51;20;2;  
2019_02_25 10:25;7;4;0;timed;66;82;1;78;66;30;27;0.28999999999999998;0.58999999999999997;0.080000000000000002;0.040000000000000001;90;6;0;0;0.82999999999999996;0.17000000000000001;0.0;0.0;0;2.5831433348289465;46;51;20;2;  
2019_02_25 10:25;7;4;0;timed;67;21;0;64;28;0;0;0.080000000000000002;0.92000000000000004;0.0;0.0;50;1;88;13;0.57999999999999996;0.13;0.02;0.27000000000000002;1;2.94993949660784;46;51;20;2;  
2019_02_25 10:25;7;4;0;timed;68;150;1;25;21;78;38;0.84999999999999998;0.059999999999999998;0.050000000000000003;0.040000000000000001;31;43;64;95;0.059999999999999998;0.45000000000000001;0.13;0.35999999999999999;1;4.283194040295712;46;51;20;2;  
2019_02_25 10:25;7;4;0;timed;69;49;1;21;30;0;0;0.53000000000000003;0.46999999999999997;0.0;0.0;93;99;89;25;0.44;0.02;0.11;0.42999999999999999;1;2.749815827866769;46;51;20;2;  
2019_02_25 10:25;7;4;0;timed;70;134;1;57;48;50;55;0.02;0.62;0.17999999999999999;0.17999999999999999;80;96;15;18;0.23999999999999999;0.35999999999999999;0.33000000000000002;0.070000000000000007;1;4.499720173816513;46;51;20;2;  
2019_02_25 10:25;7;4;0;timed;71;9;1;61;69;0;0;0.93999999999999995;0.060000000000000102;0.0;0.0;18;93;72;16;0.40999999999999998;0.34999999999999998;0.089999999999999997;0.14999999999999999;0;2.649945622315954;46;51;20;2;  
2019_02_25 10:25;7;4;0;timed;72;51;0;52;23;43;16;0.60999999999999999;0.20999999999999999;0.01;0.17000000000000001;92;7;0;0;0.14999999999999999;0.84999999999999998;0.0;0.0;0;2.4666246740302995;46;51;20;2;  
2019_02_25 10:25;7;4;0;timed;73;136;0;29;67;14;75;0.46000000000000002;0.29999999999999999;0.20999999999999999;0.0300000000000001;70;86;1;85;0.31;0.39000000000000001;0.27000000000000002;0.029999999999999898;1;4.49972209812222;46;51;20;2;  
2019_02_25 10:25;7;4;0;timed;74;119;0;60;58;11;18;0.25;0.72999999999999998;0.01;0.01;96;23;42;85;0.44;0.48999999999999999;0.059999999999999998;0.010000000000000101;1;2.7331875778340873;46;51;20;2;  
2019_02_25 10:25;7;4;0;timed;75;52;0;71;51;10;54;0.22;0.12;0.19;0.46999999999999997;91;1;0;0;0.29999999999999999;0.69999999999999996;0.0;0.0;0;2.349832761761263;46;51;20;2;  
