date;id;block;order;cond;trial;gameid;leftright;oa1;oa2;oa3;oa4;pa1;pa2;pa3;pa4;ob1;ob2;ob3;ob4;pb1;pb2;pb3;pb4;choice;rt;paytrial;payout;alter;geschlecht;comment
2019_02_22 08:59;4;0;1;practice;1;10;1;34;59;0;0;0.16;0.83999999999999997;0.0;0.0;21;61;96;7;0.19;0.01;0.5;0.29999999999999999;1;15.946618460366153;55;88;20;2;
2019_02_22 08:59;4;0;1;practice;2;14;1;92;56;0;0;0.11;0.89000000000000001;0.0;0.0;97;31;51;4;0.58999999999999997;0.22;0.080000000000000002;0.11;0;3.902668323290527;55;88;20;2;
2019_02_22 08:59;4;0;1;practice;3;52;0;17;61;57;59;0.070000000000000007;0.050000000000000003;0.33000000000000002;0.55000000000000004;12;93;94;62;0.71999999999999997;0.16;0.080000000000000002;0.040000000000000001;0;2.6917502568963982;55;88;20;2;
2019_02_22 08:59;4;0;1;practice;4;4;1;40;59;0;0;0.19;0.81000000000000005;0.0;0.0;10;88;13;45;0.56000000000000005;0.28999999999999998;0.01;0.14000000000000001;0;4.322948324368099;55;88;20;2;
2019_02_22 08:59;4;0;1;practice;5;7;1;13;31;0;0;0.51000000000000001;0.48999999999999999;0.0;0.0;8;79;42;18;0.85999999999999999;0.089999999999999997;0.02;0.029999999999999999;0;4.232726039997601;55;88;20;2;
2019_02_22 08:59;4;0;1;practice;6;13;0;15;25;0;0;0.29999999999999999;0.69999999999999996;0.0;0.0;3;43;35;73;0.44;0.40000000000000002;0.01;0.14999999999999999;1;3.4021875645448745;55;88;20;2;
2019_02_22 08:59;4;0;1;practice;7;60;1;39;93;27;78;0.85999999999999999;0.02;0.11;0.01;22;5;62;95;0.059999999999999998;0.56999999999999995;0.14000000000000001;0.23000000000000001;0;5.0133881208009825;55;88;20;2;
2019_02_22 08:59;4;0;1;practice;8;23;1;99;93;0;0;0.57999999999999996;0.41999999999999998;0.0;0.0;64;10;80;81;0.13;0.55000000000000004;0.02;0.29999999999999999;0;5.3635684293846;55;88;20;2;
2019_02_22 08:59;4;0;1;practice;9;48;1;20;25;24;35;0.32000000000000001;0.13;0.48999999999999999;0.059999999999999901;44;76;0;0;0.29999999999999999;0.69999999999999996;0.0;0.0;1;3.642355903871362;55;88;20;2;
2019_02_22 08:59;4;0;1;practice;10;19;0;25;73;0;0;0.69999999999999996;0.29999999999999999;0.0;0.0;87;84;1;86;0.040000000000000001;0.59999999999999998;0.28000000000000003;0.080000000000000002;1;5.193372777573245;55;88;20;2;
2019_02_22 08:59;4;0;1;practice;11;59;1;13;27;48;51;0.56999999999999995;0.13;0.13;0.17000000000000001;8;37;97;1;0.65000000000000002;0.16;0.14999999999999999;0.040000000000000001;1;7.785069089425633;55;88;20;2;
2019_02_22 08:59;4;0;1;practice;12;31;1;72;59;40;92;0.59999999999999998;0.34999999999999998;0.02;0.029999999999999999;97;29;0;0;0.38;0.62;0.0;0.0;0;4.843143398884081;55;88;20;2;
2019_02_22 08:59;4;0;1;practice;13;42;0;23;45;91;22;0.72999999999999998;0.02;0.20000000000000001;0.050000000000000003;2;86;0;0;0.40999999999999998;0.58999999999999997;0.0;0.0;1;4.112781704098893;55;88;20;2;
2019_02_22 08:59;4;0;1;practice;14;9;1;57;44;0;0;0.14999999999999999;0.84999999999999998;0.0;0.0;38;35;64;95;0.34000000000000002;0.45000000000000001;0.089999999999999997;0.12;1;5.003382950800415;55;88;20;2;
2019_02_22 08:59;4;0;1;practice;15;56;1;47;52;64;10;0.77000000000000002;0.040000000000000001;0.11;0.080000000000000002;1;5;12;99;0.14000000000000001;0.28999999999999998;0.27000000000000002;0.29999999999999999;0;2.4615652786347937;55;88;20;2;
2019_02_22 08:59;4;0;1;practice;16;21;1;59;69;0;0;0.34000000000000002;0.66000000000000003;0.0;0.0;64;18;5;24;0.14999999999999999;0.040000000000000001;0.51000000000000001;0.29999999999999999;0;2.2414076000293335;55;88;20;2;
2019_02_22 08:59;4;0;1;practice;17;18;0;47;36;0;0;0.089999999999999997;0.91000000000000003;0.0;0.0;2;44;81;9;0.20000000000000001;0.25;0.51000000000000001;0.040000000000000001;0;3.912512492030146;55;88;20;2;
2019_02_22 08:59;4;0;1;practice;18;15;0;24;59;0;0;0.56999999999999995;0.42999999999999999;0.0;0.0;9;8;80;22;0.31;0.10000000000000001;0.55000000000000004;0.039999999999999897;0;2.0814445084457702;55;88;20;2;
2019_02_22 08:59;4;0;1;practice;19;65;0;35;15;77;1;0.62;0.33000000000000002;0.029999999999999999;0.02;68;3;25;96;0.38;0.28000000000000003;0.28000000000000003;0.059999999999999901;0;4.77315884474217;55;88;20;2;
2019_02_22 08:59;4;0;1;practice;20;75;1;21;86;27;62;0.88;0.040000000000000001;0.070000000000000007;0.0099999999999999794;13;3;49;87;0.28999999999999998;0.39000000000000001;0.070000000000000007;0.25;0;2.7817752986861706;55;88;20;2;
2019_02_22 08:59;4;0;1;practice;21;24;0;19;38;0;0;0.89000000000000001;0.11;0.0;0.0;45;76;95;57;0.29999999999999999;0.22;0.40000000000000002;0.080000000000000002;1;3.0420832280303785;55;88;20;2;
2019_02_22 08:59;4;0;1;practice;22;26;1;24;46;74;59;0.29999999999999999;0.11;0.25;0.34000000000000002;91;6;0;0;0.28999999999999998;0.70999999999999996;0.0;0.0;0;3.4021872438250966;55;88;20;2;
2019_02_22 08:59;4;0;1;practice;23;68;0;39;58;40;8;0.48999999999999999;0.44;0.02;0.050000000000000003;92;83;51;2;0.57999999999999996;0.13;0.02;0.27000000000000002;0;5.203382437648884;55;88;20;2;
2019_02_22 08:59;4;0;1;practice;24;40;0;29;65;30;41;0.70999999999999996;0.01;0.14999999999999999;0.13;2;59;0;0;0.32000000000000001;0.68000000000000005;0.0;0.0;0;5.203398152911404;55;88;20;2;
2019_02_22 08:59;4;0;1;practice;25;72;0;86;85;97;43;0.51000000000000001;0.14999999999999999;0.33000000000000002;0.0099999999999999499;72;29;10;90;0.01;0.11;0.65000000000000002;0.23000000000000001;0;2.7719266398715945;55;88;20;2;
2019_02_22 08:59;4;0;1;practice;26;50;1;17;12;21;14;0.55000000000000004;0.34000000000000002;0.059999999999999998;0.049999999999999899;13;93;0;0;0.28999999999999998;0.70999999999999996;0.0;0.0;1;4.873151853053969;55;88;20;2;
2019_02_22 08:59;4;0;1;practice;27;20;0;32;11;0;0;0.40999999999999998;0.58999999999999997;0.0;0.0;1;86;42;65;0.45000000000000001;0.38;0.050000000000000003;0.12;0;4.162686642796643;55;88;20;2;
2019_02_22 08:59;4;0;1;practice;28;8;0;20;44;0;0;0.26000000000000001;0.73999999999999999;0.0;0.0;99;3;69;24;0.20999999999999999;0.60999999999999999;0.12;0.060000000000000102;0;4.643086823938916;55;88;20;2;
2019_02_22 08:59;4;0;1;practice;29;61;1;51;48;56;88;0.91000000000000003;0.02;0.01;0.059999999999999998;78;21;14;82;0.55000000000000004;0.29999999999999999;0.070000000000000007;0.080000000000000002;0;6.5843123834985136;55;88;20;2;
2019_02_22 08:59;4;0;1;practice;30;47;0;91;99;90;78;0.93000000000000005;0.040000000000000001;0.02;0.0099999999999999499;10;87;0;0;0.23000000000000001;0.77000000000000002;0.0;0.0;0;2.391796889532543;55;88;20;2;
2019_02_22 08:59;4;0;1;practice;31;27;1;68;43;98;36;0.54000000000000004;0.44;0.01;0.0099999999999999603;97;13;0;0;0.27000000000000002;0.72999999999999998;0.0;0.0;0;4.563081705253467;55;88;20;2;
2019_02_22 08:59;4;0;1;practice;32;33;1;54;82;55;71;0.56000000000000005;0.20999999999999999;0.02;0.20999999999999999;13;99;0;0;0.5;0.5;0.0;0.0;0;4.1228298505318435;55;88;20;2;
2019_02_22 08:59;4;0;1;practice;33;46;1;79;57;98;81;0.67000000000000004;0.070000000000000007;0.20999999999999999;0.050000000000000003;1;76;0;0;0.56000000000000005;0.44;0.0;0.0;0;3.912638855569753;55;88;20;2;
2019_02_22 08:59;4;0;1;practice;34;2;0;41;60;0;0;0.97999999999999998;0.02;0.0;0.0;10;14;97;6;0.54000000000000004;0.17000000000000001;0.12;0.17000000000000001;0;6.284289099252419;55;88;20;2;
2019_02_22 08:59;4;0;1;practice;35;3;0;20;70;0;0;0.13;0.87;0.0;0.0;95;19;80;73;0.31;0.57999999999999996;0.029999999999999999;0.080000000000000002;0;6.764397104799627;55;88;20;2;
2019_02_22 08:59;4;0;1;practice;36;44;1;69;48;22;63;0.39000000000000001;0.40999999999999998;0.19;0.01;1;94;0;0;0.22;0.78000000000000003;0.0;0.0;1;7.324930692484941;55;88;20;2;
2019_02_22 08:59;4;0;1;practice;37;11;1;10;44;0;0;0.48999999999999999;0.51000000000000001;0.0;0.0;88;12;54;50;0.17000000000000001;0.75;0.02;0.059999999999999998;0;6.184246700115409;55;88;20;2;
2019_02_22 08:59;4;0;1;practice;38;67;0;74;31;10;77;0.11;0.070000000000000007;0.77000000000000002;0.050000000000000003;2;23;8;97;0.56999999999999995;0.01;0.059999999999999998;0.35999999999999999;0;3.7427251163251185;55;88;20;2;
2019_02_22 08:59;4;0;1;practice;39;58;0;44;50;85;42;0.38;0.57999999999999996;0.02;0.02;37;88;19;12;0.20000000000000001;0.29999999999999999;0.46000000000000002;0.040000000000000001;0;4.492908888680859;55;88;20;2;
2019_02_22 08:59;4;0;1;practice;40;38;1;51;89;10;60;0.57999999999999996;0.029999999999999999;0.080000000000000002;0.31;8;84;0;0;0.33000000000000002;0.67000000000000004;0.0;0.0;0;4.4027712742961285;55;88;20;2;
2019_02_22 08:59;4;0;1;practice;41;62;0;65;52;74;55;0.16;0.12;0.14999999999999999;0.56999999999999995;72;86;2;68;0.12;0.53000000000000003;0.22;0.13;0;8.295410052892976;55;88;20;2;
2019_02_22 08:59;4;0;1;practice;42;43;0;11;17;21;44;0.16;0.46000000000000002;0.25;0.13;2;66;0;0;0.44;0.56000000000000005;0.0;0.0;1;6.324292781114082;55;88;20;2;
2019_02_22 08:59;4;0;1;practice;43;39;0;53;65;48;75;0.92000000000000004;0.029999999999999999;0.01;0.040000000000000001;16;83;0;0;0.31;0.68999999999999995;0.0;0.0;0;8.285396864901486;55;88;20;2;
2019_02_22 08:59;4;0;1;practice;44;30;0;54;78;85;25;0.20999999999999999;0.60999999999999999;0.089999999999999997;0.090000000000000094;87;20;0;0;0.58999999999999997;0.40999999999999998;0.0;0.0;0;8.725827360464564;55;88;20;2;
2019_02_22 08:59;4;0;1;practice;45;74;1;36;46;10;12;0.11;0.19;0.65000000000000002;0.049999999999999899;92;24;79;19;0.51000000000000001;0.40999999999999998;0.02;0.059999999999999998;1;8.38549186205978;55;88;20;2;
2019_02_22 08:59;4;0;1;practice;46;32;0;21;86;16;78;0.45000000000000001;0.41999999999999998;0.050000000000000003;0.080000000000000099;95;9;0;0;0.42999999999999999;0.56999999999999995;0.0;0.0;0;6.804403993857704;55;88;20;2;
2019_02_22 08:59;4;0;1;practice;47;49;1;14;31;42;22;0.77000000000000002;0.089999999999999997;0.02;0.12;87;28;0;0;0.68000000000000005;0.32000000000000001;0.0;0.0;1;4.763033404875159;55;88;20;2;
2019_02_22 08:59;4;0;1;practice;48;53;0;47;24;95;38;0.57999999999999996;0.28000000000000003;0.02;0.12;8;22;93;96;0.54000000000000004;0.34000000000000002;0.10000000000000001;0.0199999999999999;0;6.454394308124165;55;88;20;2;
2019_02_22 08:59;4;0;1;practice;49;55;0;53;11;80;74;0.31;0.37;0.28000000000000003;0.039999999999999897;6;93;98;96;0.69999999999999996;0.22;0.050000000000000003;0.029999999999999999;0;5.853925031141898;55;88;20;2;
2019_02_22 08:59;4;0;1;practice;50;70;1;21;42;14;63;0.96999999999999997;0.01;0.01;0.01;70;2;6;76;0.23999999999999999;0.42999999999999999;0.01;0.32000000000000001;0;12.498167407956771;55;88;20;2;
2019_02_22 08:59;4;0;1;practice;51;41;1;19;54;51;8;0.76000000000000001;0.070000000000000007;0.16;0.0099999999999999794;2;77;0;0;0.54000000000000004;0.46000000000000002;0.0;0.0;0;5.563719616624439;55;88;20;2;
2019_02_22 08:59;4;0;1;practice;52;34;1;57;23;66;79;0.56000000000000005;0.23000000000000001;0.13;0.079999999999999905;85;9;0;0;0.56000000000000005;0.44;0.0;0.0;0;10.76714952078055;55;88;20;2;
2019_02_22 08:59;4;0;1;practice;53;5;0;23;58;0;0;0.71999999999999997;0.28000000000000003;0.0;0.0;94;12;52;3;0.11;0.84999999999999998;0.029999999999999999;0.01;0;6.644306520743385;55;88;20;2;
2019_02_22 08:59;4;0;1;practice;54;25;0;7;18;0;0;0.20999999999999999;0.79000000000000004;0.0;0.0;92;45;33;13;0.41999999999999998;0.17999999999999999;0.22;0.17999999999999999;1;6.284103402578694;55;88;20;2;
2019_02_22 08:59;4;0;1;practice;55;37;0;50;66;99;12;0.26000000000000001;0.71999999999999997;0.01;0.01;22;90;0;0;0.37;0.63;0.0;0.0;1;7.524910615435374;55;88;20;2;
2019_02_22 08:59;4;0;1;practice;56;45;0;37;40;75;23;0.54000000000000004;0.38;0.059999999999999998;0.02;1;90;0;0;0.28000000000000003;0.71999999999999997;0.0;0.0;0;13.008590475652682;55;88;20;2;
2019_02_22 08:59;4;0;1;practice;57;36;0;56;89;86;77;0.66000000000000003;0.080000000000000002;0.14999999999999999;0.11;29;91;0;0;0.40999999999999998;0.58999999999999997;0.0;0.0;1;6.2740812344370624;55;88;20;2;
2019_02_22 08:59;4;0;1;practice;58;63;0;24;82;6;96;0.91000000000000003;0.070000000000000007;0.01;0.0099999999999999603;73;10;71;22;0.31;0.51000000000000001;0.050000000000000003;0.13;0;8.335361136733127;55;88;20;2;
2019_02_22 08:59;4;0;1;practice;59;71;1;94;87;26;75;0.71999999999999997;0.23999999999999999;0.02;0.02;90;27;12;83;0.16;0.73999999999999999;0.02;0.080000000000000002;0;8.745667719054836;55;88;20;2;
2019_02_22 08:59;4;0;1;practice;60;73;1;99;88;95;28;0.83999999999999997;0.14000000000000001;0.01;0.01;90;93;10;74;0.080000000000000002;0.46000000000000002;0.34999999999999998;0.11;0;10.18667711357466;55;88;20;2;
2019_02_22 08:59;4;0;1;practice;61;35;1;84;95;4;35;0.89000000000000001;0.050000000000000003;0.01;0.050000000000000003;5;98;0;0;0.19;0.81000000000000005;0.0;0.0;1;4.032727194588233;55;88;20;2;
2019_02_22 08:59;4;0;1;practice;62;1;0;67;36;0;0;0.14999999999999999;0.84999999999999998;0.0;0.0;1;4;81;77;0.25;0.54000000000000004;0.14000000000000001;0.070000000000000007;0;5.44349016096271;55;88;20;2;
2019_02_22 08:59;4;0;1;practice;63;57;1;39;68;59;91;0.73999999999999999;0.040000000000000001;0.14999999999999999;0.070000000000000007;9;22;40;84;0.29999999999999999;0.32000000000000001;0.040000000000000001;0.34000000000000002;0;12.698314425841318;55;88;20;2;
2019_02_22 08:59;4;0;1;practice;64;51;0;38;13;51;84;0.91000000000000003;0.070000000000000007;0.01;0.0099999999999999603;4;89;35;16;0.80000000000000004;0.089999999999999997;0.059999999999999998;0.050000000000000003;0;7.344869832725408;55;88;20;2;
2019_02_22 08:59;4;0;1;practice;65;66;1;44;18;63;36;0.47999999999999998;0.10000000000000001;0.029999999999999999;0.39000000000000001;13;93;61;53;0.52000000000000002;0.45000000000000001;0.02;0.0099999999999999707;1;9.055922601369957;55;88;20;2;
2019_02_22 08:59;4;0;1;practice;66;16;1;50;42;0;0;0.32000000000000001;0.68000000000000005;0.0;0.0;97;2;56;31;0.35999999999999999;0.16;0.16;0.32000000000000001;1;9.085937149212896;55;88;20;2;
2019_02_22 08:59;4;0;1;practice;67;12;0;45;86;0;0;0.97999999999999998;0.02;0.0;0.0;6;23;95;81;0.14999999999999999;0.40999999999999998;0.050000000000000003;0.39000000000000001;0;12.768365048229725;55;88;20;2;
2019_02_22 08:59;4;0;1;practice;68;6;0;42;59;0;0;0.35999999999999999;0.64000000000000001;0.0;0.0;77;19;6;7;0.44;0.14999999999999999;0.17999999999999999;0.23000000000000001;0;9.2462344306648;55;88;20;2;
2019_02_22 08:59;4;0;1;practice;69;29;1;66;40;92;49;0.46999999999999997;0.10000000000000001;0.34000000000000002;0.089999999999999997;8;94;0;0;0.44;0.56000000000000005;0.0;0.0;0;6.834600389738625;55;88;20;2;
2019_02_22 08:59;4;0;1;practice;70;28;1;37;83;75;8;0.83999999999999997;0.070000000000000007;0.01;0.080000000000000002;94;2;0;0;0.19;0.81000000000000005;0.0;0.0;0;7.484870692253935;55;88;20;2;
2019_02_22 08:59;4;0;1;practice;71;22;1;84;87;0;0;0.17000000000000001;0.82999999999999996;0.0;0.0;3;24;41;83;0.68000000000000005;0.11;0.10000000000000001;0.11;0;5.003236381923216;55;88;20;2;
2019_02_22 08:59;4;0;1;practice;72;64;0;44;60;96;45;0.53000000000000003;0.10000000000000001;0.029999999999999999;0.34000000000000002;88;20;43;31;0.47999999999999998;0.38;0.050000000000000003;0.089999999999999997;1;10.426981438029998;55;88;20;2;
2019_02_22 08:59;4;0;1;practice;73;17;1;27;61;0;0;0.68999999999999995;0.31;0.0;0.0;3;91;69;43;0.29999999999999999;0.33000000000000002;0.27000000000000002;0.099999999999999895;0;12.698335914057225;55;88;20;2;
2019_02_22 08:59;4;0;1;practice;74;54;1;69;80;22;55;0.27000000000000002;0.31;0.059999999999999998;0.35999999999999999;52;2;49;90;0.059999999999999998;0.33000000000000002;0.20000000000000001;0.40999999999999998;0;14.34941956158923;55;88;20;2;
2019_02_22 08:59;4;0;1;practice;75;69;1;38;74;27;73;0.22;0.19;0.45000000000000001;0.14000000000000001;1;97;79;84;0.28000000000000003;0.45000000000000001;0.17000000000000001;0.10000000000000001;0;5.143524285532976;55;88;20;2;
2019_02_22 08:59;4;1;1;timed;1;51;0;52;23;43;16;0.60999999999999999;0.20999999999999999;0.01;0.17000000000000001;92;7;0;0;0.14999999999999999;0.84999999999999998;0.0;0.0;0;3.5655772248001085;55;88;20;2;
2019_02_22 08:59;4;1;1;timed;2;62;0;12;45;16;50;0.20999999999999999;0.76000000000000001;0.02;0.01;92;15;0;0;0.20999999999999999;0.79000000000000004;0.0;0.0;NA;4.212716982874781;55;88;20;2;
2019_02_22 08:59;4;1;1;timed;3;21;1;64;28;0;0;0.080000000000000002;0.92000000000000004;0.0;0.0;50;1;88;13;0.57999999999999996;0.13;0.02;0.27000000000000002;0;2.26182204678139;55;88;20;2;
2019_02_22 08:59;4;1;1;timed;4;111;1;51;36;48;27;0.93000000000000005;0.01;0.01;0.049999999999999899;31;78;30;53;0.55000000000000004;0.16;0.029999999999999999;0.26000000000000001;1;2.7717694872462744;55;88;20;2;
2019_02_22 08:59;4;1;1;timed;5;78;0;74;36;34;3;0.14999999999999999;0.64000000000000001;0.13;0.080000000000000002;1;83;0;0;0.41999999999999998;0.57999999999999996;0.0;0.0;1;2.6417083709109193;55;88;20;2;
2019_02_22 08:59;4;1;1;timed;6;127;0;89;26;62;79;0.02;0.28999999999999998;0.53000000000000003;0.16;96;6;60;13;0.53000000000000003;0.25;0.17000000000000001;0.050000000000000003;0;2.8919610979901336;55;88;20;2;
2019_02_22 08:59;4;1;1;timed;7;91;0;74;81;86;48;0.93000000000000005;0.02;0.01;0.039999999999999897;7;64;0;0;0.13;0.87;0.0;0.0;0;2.161504149470602;55;88;20;2;
2019_02_22 08:59;4;1;1;timed;8;1;1;22;51;0;0;0.26000000000000001;0.73999999999999999;0.0;0.0;14;11;92;31;0.29999999999999999;0.40999999999999998;0.14999999999999999;0.14000000000000001;0;3.0020683209813797;55;88;20;2;
2019_02_22 08:59;4;1;1;timed;9;19;1;22;53;0;0;0.13;0.87;0.0;0.0;4;93;96;65;0.46999999999999997;0.059999999999999998;0.26000000000000001;0.20999999999999999;0;2.7617505263008297;55;88;20;2;
2019_02_22 08:59;4;1;1;timed;10;120;1;64;40;48;51;0.19;0.02;0.070000000000000007;0.71999999999999997;97;9;79;94;0.23000000000000001;0.54000000000000004;0.01;0.22;0;3.172179944245954;55;88;20;2;
2019_02_22 08:59;4;1;1;timed;11;114;1;57;39;79;97;0.77000000000000002;0.02;0.13;0.080000000000000002;92;36;6;1;0.54000000000000004;0.12;0.13;0.20999999999999999;1;2.661687280387241;55;88;20;2;
2019_02_22 08:59;4;1;1;timed;12;149;1;14;89;73;53;0.93999999999999995;0.01;0.01;0.040000000000000001;97;45;6;13;0.34000000000000002;0.01;0.40999999999999998;0.23999999999999999;1;2.8118325022419413;55;88;20;2;
2019_02_22 08:59;4;1;1;timed;13;49;1;21;30;0;0;0.53000000000000003;0.46999999999999997;0.0;0.0;93;99;89;25;0.44;0.02;0.11;0.42999999999999999;1;3.3623067183068542;55;88;20;2;
2019_02_22 08:59;4;1;1;timed;14;18;1;68;50;0;0;0.029999999999999999;0.96999999999999997;0.0;0.0;34;64;15;89;0.65000000000000002;0.029999999999999999;0.050000000000000003;0.27000000000000002;0;2.6818316811993554;55;88;20;2;
2019_02_22 08:59;4;1;1;timed;15;113;0;85;65;39;64;0.44;0.34000000000000002;0.13;0.089999999999999997;87;2;4;35;0.67000000000000004;0.17000000000000001;0.11;0.049999999999999899;0;3.292232683384327;55;88;20;2;
2019_02_22 08:59;4;1;1;timed;16;115;1;50;28;61;79;0.83999999999999997;0.040000000000000001;0.059999999999999998;0.059999999999999998;1;26;97;55;0.45000000000000001;0.080000000000000002;0.40999999999999998;0.060000000000000102;0;2.8219386989301256;55;88;20;2;
2019_02_22 08:59;4;1;1;timed;17;43;0;60;83;0;0;0.23000000000000001;0.77000000000000002;0.0;0.0;72;5;70;12;0.29999999999999999;0.40999999999999998;0.12;0.17000000000000001;0;1.6411714862276767;55;88;20;2;
2019_02_22 08:59;4;1;1;timed;18;125;1;37;41;10;35;0.91000000000000003;0.040000000000000001;0.029999999999999999;0.02;7;13;91;93;0.26000000000000001;0.39000000000000001;0.16;0.19;0;2.9719200330468993;55;88;20;2;
2019_02_22 08:59;4;1;1;timed;19;42;1;70;48;0;0;0.79000000000000004;0.20999999999999999;0.0;0.0;51;8;12;67;0.19;0.26000000000000001;0.28999999999999998;0.26000000000000001;0;2.4816086527594052;55;88;20;2;
2019_02_22 08:59;4;1;1;timed;20;105;1;49;74;63;58;0.84999999999999998;0.080000000000000002;0.02;0.050000000000000003;97;5;86;8;0.25;0.52000000000000002;0.070000000000000007;0.16;0;3.2619519382369617;55;88;20;2;
2019_02_22 08:59;4;1;1;timed;21;8;0;50;36;0;0;0.080000000000000002;0.92000000000000004;0.0;0.0;6;19;84;29;0.54000000000000004;0.070000000000000007;0.17000000000000001;0.22;0;3.522413171570861;55;88;20;2;
2019_02_22 08:59;4;1;1;timed;22;26;0;76;41;0;0;0.57999999999999996;0.41999999999999998;0.0;0.0;61;79;84;2;0.13;0.029999999999999999;0.67000000000000004;0.17000000000000001;1;3.3621675259814765;55;88;20;2;
2019_02_22 08:59;4;1;1;timed;23;82;1;78;66;30;27;0.28999999999999998;0.58999999999999997;0.080000000000000002;0.040000000000000001;90;6;0;0;0.82999999999999996;0.17000000000000001;0.0;0.0;1;2.8418393528133947;55;88;20;2;
2019_02_22 08:59;4;1;1;timed;24;80;1;47;39;45;10;0.13;0.76000000000000001;0.059999999999999998;0.050000000000000003;2;87;0;0;0.48999999999999999;0.51000000000000001;0.0;0.0;0;3.112193824992346;55;88;20;2;
2019_02_22 08:59;4;1;1;timed;25;145;1;91;89;90;74;0.57999999999999996;0.29999999999999999;0.11;0.010000000000000101;2;75;84;39;0.32000000000000001;0.27000000000000002;0.39000000000000001;0.0199999999999999;0;3.0219664091073355;55;88;20;2;
2019_02_22 08:59;4;1;1;timed;26;112;1;70;44;98;64;0.02;0.75;0.12;0.11;33;2;63;85;0.23999999999999999;0.31;0.080000000000000002;0.37;0;3.4123107593741224;55;88;20;2;
2019_02_22 08:59;4;1;1;timed;27;98;0;27;10;31;79;0.23000000000000001;0.67000000000000004;0.070000000000000007;0.029999999999999999;25;99;0;0;0.38;0.62;0.0;0.0;1;3.04196744823912;55;88;20;2;
2019_02_22 08:59;4;1;1;timed;28;68;1;84;27;55;62;0.01;0.050000000000000003;0.40999999999999998;0.53000000000000003;9;82;0;0;0.37;0.63;0.0;0.0;0;3.0620833050031706;55;88;20;2;
2019_02_22 08:59;4;1;1;timed;29;31;1;10;59;0;0;0.23999999999999999;0.76000000000000001;0.0;0.0;1;79;53;73;0.23000000000000001;0.58999999999999997;0.050000000000000003;0.13;0;3.752388078465856;55;88;20;2;
2019_02_22 08:59;4;1;1;timed;30;30;1;33;30;0;0;0.71999999999999997;0.28000000000000003;0.0;0.0;9;88;1;14;0.55000000000000004;0.39000000000000001;0.01;0.049999999999999899;0;3.2320294369317253;55;88;20;2;
2019_02_22 08:59;4;1;1;timed;31;34;0;32;48;0;0;0.28000000000000003;0.71999999999999997;0.0;0.0;97;83;7;62;0.040000000000000001;0.54000000000000004;0.35999999999999999;0.059999999999999901;0;3.322290849098863;55;88;20;2;
2019_02_22 08:59;4;1;1;timed;32;110;1;47;44;23;52;0.13;0.27000000000000002;0.040000000000000001;0.56000000000000005;99;2;30;22;0.28999999999999998;0.5;0.11;0.10000000000000001;NA;4.222739471736304;55;88;20;2;
2019_02_22 08:59;4;1;1;timed;33;33;0;27;70;0;0;0.88;0.12;0.0;0.0;93;3;77;16;0.080000000000000002;0.40000000000000002;0.5;0.02;1;2.9322640112791305;55;88;20;2;
2019_02_22 08:59;4;1;1;timed;34;23;0;54;40;0;0;0.93000000000000005;0.070000000000000007;0.0;0.0;36;23;71;86;0.02;0.41999999999999998;0.19;0.37;1;3.222210284324319;55;88;20;2;
2019_02_22 08:59;4;1;1;timed;35;106;0;85;69;22;61;0.10000000000000001;0.58999999999999997;0.17999999999999999;0.13;20;79;91;84;0.55000000000000004;0.14999999999999999;0.26000000000000001;0.039999999999999897;1;2.531755414068357;55;88;20;2;
2019_02_22 08:59;4;1;1;timed;36;134;0;57;48;50;55;0.02;0.62;0.17999999999999999;0.17999999999999999;80;96;15;18;0.23999999999999999;0.35999999999999999;0.33000000000000002;0.070000000000000007;0;2.66164911474948;55;88;20;2;
2019_02_22 08:59;4;1;1;timed;37;133;1;59;88;60;36;0.67000000000000004;0.070000000000000007;0.12;0.14000000000000001;7;91;66;61;0.25;0.68999999999999995;0.01;0.0500000000000001;1;2.7317491279632122;55;88;20;2;
2019_02_22 08:59;4;1;1;timed;38;52;1;71;51;10;54;0.22;0.12;0.19;0.46999999999999997;91;1;0;0;0.29999999999999999;0.69999999999999996;0.0;0.0;0;2.6117127455270293;55;88;20;2;
2019_02_22 08:59;4;1;1;timed;39;99;0;8;24;15;73;0.56000000000000005;0.35999999999999999;0.070000000000000007;0.0099999999999999499;88;12;0;0;0.52000000000000002;0.47999999999999998;0.0;0.0;1;3.342522164934735;55;88;20;2;
2019_02_22 08:59;4;1;1;timed;40;150;0;25;21;78;38;0.84999999999999998;0.059999999999999998;0.050000000000000003;0.040000000000000001;31;43;64;95;0.059999999999999998;0.45000000000000001;0.13;0.35999999999999999;1;3.0519633173701095;55;88;20;2;
2019_02_22 08:59;4;1;1;timed;41;123;0;26;24;51;92;0.72999999999999998;0.16;0.070000000000000007;0.040000000000000001;6;90;82;49;0.64000000000000001;0.25;0.050000000000000003;0.059999999999999998;0;2.9019839075713207;55;88;20;2;
2019_02_22 08:59;4;1;1;timed;42;130;0;37;79;23;95;0.94999999999999996;0.029999999999999999;0.01;0.01;94;4;58;49;0.46000000000000002;0.5;0.029999999999999999;0.01;1;3.562308770912523;55;88;20;2;
2019_02_22 08:59;4;1;1;timed;43;25;1;50;53;0;0;0.82999999999999996;0.17000000000000001;0.0;0.0;83;16;97;4;0.45000000000000001;0.29999999999999999;0.11;0.14000000000000001;0;3.402364281068458;55;88;20;2;
2019_02_22 08:59;4;1;1;timed;44;119;0;60;58;11;18;0.25;0.72999999999999998;0.01;0.01;96;23;42;85;0.44;0.48999999999999999;0.059999999999999998;0.010000000000000101;0;3.132015581843234;55;88;20;2;
2019_02_22 08:59;4;1;1;timed;45;104;0;55;85;93;3;0.87;0.02;0.089999999999999997;0.02;1;2;90;8;0.35999999999999999;0.070000000000000007;0.40000000000000002;0.17000000000000001;0;3.452270502644751;55;88;20;2;
2019_02_22 08:59;4;1;1;timed;46;83;1;17;12;7;41;0.65000000000000002;0.19;0.089999999999999997;0.070000000000000007;6;84;0;0;0.72999999999999998;0.27000000000000002;0.0;0.0;1;3.1620753511558632;55;88;20;2;
2019_02_22 08:59;4;1;1;timed;47;56;0;28;84;37;41;0.68000000000000005;0.28000000000000003;0.02;0.0199999999999999;6;95;0;0;0.72999999999999998;0.27000000000000002;0.0;0.0;0;3.7224668600390487;55;88;20;2;
2019_02_22 08:59;4;1;1;timed;48;15;1;77;81;0;0;0.28000000000000003;0.71999999999999997;0.0;0.0;98;14;87;18;0.55000000000000004;0.23000000000000001;0.16;0.059999999999999901;0;3.4822382254199056;55;88;20;2;
2019_02_22 08:59;4;1;1;timed;49;35;0;33;37;0;0;0.88;0.12;0.0;0.0;63;4;79;98;0.16;0.46000000000000002;0.17000000000000001;0.20999999999999999;1;3.2420932986271964;55;88;20;2;
2019_02_22 08:59;4;1;1;timed;50;3;0;53;40;0;0;0.31;0.68999999999999995;0.0;0.0;96;24;7;88;0.11;0.27000000000000002;0.58999999999999997;0.029999999999999999;0;3.28223488993558;55;88;20;2;
2019_02_22 08:59;4;1;1;timed;51;47;0;2;40;0;0;0.45000000000000001;0.55000000000000004;0.0;0.0;93;89;11;56;0.58999999999999997;0.070000000000000007;0.28000000000000003;0.059999999999999998;1;3.4722365833351887;55;88;20;2;
2019_02_22 08:59;4;1;1;timed;52;107;1;52;48;13;63;0.68000000000000005;0.19;0.050000000000000003;0.079999999999999905;54;91;33;3;0.19;0.17999999999999999;0.33000000000000002;0.29999999999999999;0;3.2920906045821994;55;88;20;2;
2019_02_22 08:59;4;1;1;timed;53;93;0;87;81;73;98;0.80000000000000004;0.040000000000000001;0.14999999999999999;0.0099999999999999499;5;71;0;0;0.51000000000000001;0.48999999999999999;0.0;0.0;0;2.2317574666740256;55;88;20;2;
2019_02_22 08:59;4;1;1;timed;54;100;1;27;14;59;52;0.02;0.95999999999999996;0.01;0.01;17;98;0;0;0.48999999999999999;0.51000000000000001;0.0;0.0;0;3.602479547708299;55;88;20;2;
2019_02_22 08:59;4;1;1;timed;55;146;1;25;5;64;35;0.94999999999999996;0.02;0.01;0.02;47;97;12;79;0.20999999999999999;0.029999999999999999;0.02;0.73999999999999999;1;3.0519325282843965;55;88;20;2;
2019_02_22 08:59;4;1;1;timed;56;95;0;93;88;68;85;0.83999999999999997;0.14000000000000001;0.01;0.01;2;82;0;0;0.41999999999999998;0.57999999999999996;0.0;0.0;0;3.802531311858729;55;88;20;2;
2019_02_22 08:59;4;1;1;timed;57;16;0;64;53;0;0;0.65000000000000002;0.34999999999999998;0.0;0.0;29;17;81;46;0.10000000000000001;0.01;0.44;0.45000000000000001;0;2.9319699113657407;55;88;20;2;
2019_02_22 08:59;4;1;1;timed;58;59;1;56;47;83;90;0.31;0.12;0.54000000000000004;0.029999999999999898;10;98;0;0;0.46999999999999997;0.53000000000000003;0.0;0.0;0;2.881847845469565;55;88;20;2;
2019_02_22 08:59;4;1;1;timed;59;128;0;70;49;27;54;0.27000000000000002;0.53000000000000003;0.02;0.17999999999999999;72;97;6;20;0.29999999999999999;0.39000000000000001;0.22;0.0899999999999999;0;2.861890744929042;55;88;20;2;
2019_02_22 08:59;4;1;1;timed;60;48;0;13;32;0;0;0.90000000000000002;0.10000000000000001;0.0;0.0;24;99;84;94;0.62;0.14999999999999999;0.20000000000000001;0.029999999999999999;1;2.6617055614069614;55;88;20;2;
2019_02_22 08:59;4;1;1;timed;61;32;0;19;81;0;0;0.93000000000000005;0.070000000000000007;0.0;0.0;1;65;41;68;0.45000000000000001;0.050000000000000003;0.059999999999999998;0.44;0;2.7617777874706917;55;88;20;2;
2019_02_22 08:59;4;1;1;timed;62;13;1;52;56;0;0;0.46999999999999997;0.53000000000000003;0.0;0.0;94;71;27;2;0.089999999999999997;0.31;0.57999999999999996;0.020000000000000101;0;3.682506475329774;55;88;20;2;
2019_02_22 08:59;4;1;1;timed;63;81;1;67;38;52;65;0.27000000000000002;0.35999999999999999;0.01;0.35999999999999999;2;77;0;0;0.14000000000000001;0.85999999999999999;0.0;0.0;0;2.871857107852975;55;88;20;2;
2019_02_22 08:59;4;1;1;timed;64;84;1;43;10;5;45;0.78000000000000003;0.13;0.059999999999999998;0.029999999999999999;87;1;0;0;0.57999999999999996;0.41999999999999998;0.0;0.0;0;3.0420841901891436;55;88;20;2;
2019_02_22 08:59;4;1;1;timed;65;88;0;77;13;12;7;0.12;0.19;0.66000000000000003;0.029999999999999898;94;2;0;0;0.40999999999999998;0.58999999999999997;0.0;0.0;0;3.1919353121309086;55;88;20;2;
2019_02_22 08:59;4;1;1;timed;66;4;1;40;43;0;0;0.58999999999999997;0.40999999999999998;0.0;0.0;2;33;88;81;0.69999999999999996;0.14000000000000001;0.13;0.029999999999999999;0;2.801927076050333;55;88;20;2;
2019_02_22 08:59;4;1;1;timed;67;39;1;14;33;0;0;0.78000000000000003;0.22;0.0;0.0;93;84;1;25;0.14000000000000001;0.23999999999999999;0.39000000000000001;0.23000000000000001;0;3.1520198281712055;55;88;20;2;
2019_02_22 08:59;4;1;1;timed;68;5;1;70;5;0;0;0.98999999999999999;0.01;0.0;0.0;92;87;47;1;0.44;0.02;0.16;0.38;0;2.8819985837021704;55;88;20;2;
2019_02_22 08:59;4;1;1;timed;69;135;0;48;60;41;51;0.14000000000000001;0.40000000000000002;0.089999999999999997;0.37;94;1;85;65;0.64000000000000001;0.29999999999999999;0.01;0.050000000000000003;1;3.2922390977771556;55;88;20;2;
2019_02_22 08:59;4;1;1;timed;70;141;0;93;28;60;91;0.81999999999999995;0.10000000000000001;0.01;0.070000000000000007;14;85;7;89;0.45000000000000001;0.070000000000000007;0.23999999999999999;0.23999999999999999;1;3.8925592401253652;55;88;20;2;
2019_02_22 08:59;4;1;1;timed;71;28;1;47;30;0;0;0.97999999999999998;0.02;0.0;0.0;55;48;77;13;0.070000000000000007;0.26000000000000001;0.42999999999999999;0.23999999999999999;1;3.412328719674406;55;88;20;2;
2019_02_22 08:59;4;1;1;timed;72;126;1;16;55;51;42;0.68999999999999995;0.23999999999999999;0.01;0.060000000000000102;66;4;1;5;0.46999999999999997;0.38;0.089999999999999997;0.059999999999999998;0;3.8124248714234454;55;88;20;2;
2019_02_22 08:59;4;1;1;timed;73;92;1;90;86;65;94;0.16;0.34000000000000002;0.28000000000000003;0.22;79;22;0;0;0.35999999999999999;0.64000000000000001;0.0;0.0;0;3.962640330880049;55;88;20;2;
2019_02_22 08:59;4;1;1;timed;74;148;1;37;63;55;10;0.72999999999999998;0.070000000000000007;0.029999999999999999;0.17000000000000001;80;14;23;70;0.46999999999999997;0.10000000000000001;0.23000000000000001;0.20000000000000001;NA;4.222769619382916;55;88;20;2;
2019_02_22 08:59;4;1;1;timed;75;69;0;54;34;64;49;0.34000000000000002;0.25;0.20999999999999999;0.20000000000000001;14;98;0;0;0.62;0.38;0.0;0.0;0;2.40181007752426;55;88;20;2;
2019_02_22 08:59;4;2;1;control;1;98;1;27;10;31;79;0.23000000000000001;0.67000000000000004;0.070000000000000007;0.029999999999999999;25;99;0;0;0.38;0.62;0.0;0.0;1;2.241007341913928;55;88;20;2;
2019_02_22 08:59;4;2;1;control;2;5;0;70;5;0;0;0.98999999999999999;0.01;0.0;0.0;92;87;47;1;0.44;0.02;0.16;0.38;0;2.2414217116934196;55;88;20;2;
2019_02_22 08:59;4;2;1;control;3;142;0;98;65;64;84;0.88;0.070000000000000007;0.01;0.040000000000000001;5;68;60;16;0.46000000000000002;0.080000000000000002;0.27000000000000002;0.19;0;2.3016374662120143;55;88;20;2;
2019_02_22 08:59;4;2;1;control;4;118;1;62;52;65;68;0.40999999999999998;0.44;0.10000000000000001;0.0500000000000001;79;20;14;37;0.56999999999999995;0.23999999999999999;0.14000000000000001;0.050000000000000003;1;2.5015920523105706;55;88;20;2;
2019_02_22 08:59;4;2;1;control;5;138;1;8;20;43;51;0.38;0.5;0.02;0.10000000000000001;72;82;70;1;0.39000000000000001;0.050000000000000003;0.070000000000000007;0.48999999999999999;0;2.6918512835841284;55;88;20;2;
2019_02_22 08:59;4;2;1;control;6;40;1;45;49;0;0;0.68999999999999995;0.31;0.0;0.0;2;92;65;73;0.23999999999999999;0.59999999999999998;0.11;0.050000000000000003;0;3.1221370961018238;55;88;20;2;
2019_02_22 08:59;4;2;1;control;7;16;0;64;53;0;0;0.65000000000000002;0.34999999999999998;0.0;0.0;29;17;81;46;0.10000000000000001;0.01;0.44;0.45000000000000001;0;1.8711540903941568;55;88;20;2;
2019_02_22 08:59;4;2;1;control;8;150;1;25;21;78;38;0.84999999999999998;0.059999999999999998;0.050000000000000003;0.040000000000000001;31;43;64;95;0.059999999999999998;0.45000000000000001;0.13;0.35999999999999999;1;2.8618516171325155;55;88;20;2;
2019_02_22 08:59;4;2;1;control;9;52;1;71;51;10;54;0.22;0.12;0.19;0.46999999999999997;91;1;0;0;0.29999999999999999;0.69999999999999996;0.0;0.0;0;2.161360787790045;55;88;20;2;
2019_02_22 08:59;4;2;1;control;10;14;1;36;40;0;0;0.54000000000000004;0.46000000000000002;0.0;0.0;99;70;1;11;0.16;0.089999999999999997;0.080000000000000002;0.67000000000000004;0;2.7117047916799493;55;88;20;2;
2019_02_22 08:59;4;2;1;control;11;6;1;9;51;0;0;0.14999999999999999;0.84999999999999998;0.0;0.0;6;40;50;73;0.42999999999999999;0.26000000000000001;0.059999999999999998;0.25;1;2.311717684609448;55;88;20;2;
2019_02_22 08:59;4;2;1;control;12;8;1;50;36;0;0;0.080000000000000002;0.92000000000000004;0.0;0.0;6;19;84;29;0.54000000000000004;0.070000000000000007;0.17000000000000001;0.22;0;1.9011891642944647;55;88;20;2;
2019_02_22 08:59;4;2;1;control;13;24;0;35;27;0;0;0.070000000000000007;0.93000000000000005;0.0;0.0;62;3;81;95;0.35999999999999999;0.55000000000000004;0.01;0.080000000000000002;0;2.961894978428518;55;88;20;2;
2019_02_22 08:59;4;2;1;control;14;22;0;32;55;0;0;0.39000000000000001;0.60999999999999999;0.0;0.0;93;72;59;22;0.20000000000000001;0.11;0.14000000000000001;0.55000000000000004;1;2.1613498833221456;55;88;20;2;
2019_02_22 08:59;4;2;1;control;15;63;1;56;78;42;36;0.93000000000000005;0.040000000000000001;0.01;0.0199999999999999;2;72;0;0;0.32000000000000001;0.68000000000000005;0.0;0.0;0;1.921310152572687;55;88;20;2;
2019_02_22 08:59;4;2;1;control;16;119;0;60;58;11;18;0.25;0.72999999999999998;0.01;0.01;96;23;42;85;0.44;0.48999999999999999;0.059999999999999998;0.010000000000000101;1;2.1313776704721477;55;88;20;2;
2019_02_22 08:59;4;2;1;control;17;123;1;26;24;51;92;0.72999999999999998;0.16;0.070000000000000007;0.040000000000000001;6;90;82;49;0.64000000000000001;0.25;0.050000000000000003;0.059999999999999998;0;2.5717959786886695;55;88;20;2;
2019_02_22 08:59;4;2;1;control;18;2;0;59;32;0;0;0.080000000000000002;0.92000000000000004;0.0;0.0;33;38;85;1;0.28999999999999998;0.050000000000000003;0.070000000000000007;0.58999999999999997;0;2.0413144630447277;55;88;20;2;
2019_02_22 08:59;4;2;1;control;19;34;0;32;48;0;0;0.28000000000000003;0.71999999999999997;0.0;0.0;97;83;7;62;0.040000000000000001;0.54000000000000004;0.35999999999999999;0.059999999999999901;1;2.441585086279929;55;88;20;2;
2019_02_22 08:59;4;2;1;control;20;21;0;64;28;0;0;0.080000000000000002;0.92000000000000004;0.0;0.0;50;1;88;13;0.57999999999999996;0.13;0.02;0.27000000000000002;0;2.4417136948570715;55;88;20;2;
2019_02_22 08:59;4;2;1;control;21;13;0;52;56;0;0;0.46999999999999997;0.53000000000000003;0.0;0.0;94;71;27;2;0.089999999999999997;0.31;0.57999999999999996;0.020000000000000101;0;2.5215857148905343;55;88;20;2;
2019_02_22 08:59;4;2;1;control;22;145;0;91;89;90;74;0.57999999999999996;0.29999999999999999;0.11;0.010000000000000101;2;75;84;39;0.32000000000000001;0.27000000000000002;0.39000000000000001;0.0199999999999999;0;2.211417106159388;55;88;20;2;
2019_02_22 08:59;4;2;1;control;23;105;0;49;74;63;58;0.84999999999999998;0.080000000000000002;0.02;0.050000000000000003;97;5;86;8;0.25;0.52000000000000002;0.070000000000000007;0.16;0;2.781778505882585;55;88;20;2;
2019_02_22 08:59;4;2;1;control;24;113;1;85;65;39;64;0.44;0.34000000000000002;0.13;0.089999999999999997;87;2;4;35;0.67000000000000004;0.17000000000000001;0.11;0.049999999999999899;0;1.6610638014001324;55;88;20;2;
2019_02_22 08:59;4;2;1;control;25;49;0;21;30;0;0;0.53000000000000003;0.46999999999999997;0.0;0.0;93;99;89;25;0.44;0.02;0.11;0.42999999999999999;1;1.9313563746877662;55;88;20;2;
2019_02_22 08:59;4;2;1;control;26;134;0;57;48;50;55;0.02;0.62;0.17999999999999999;0.17999999999999999;80;96;15;18;0.23999999999999999;0.35999999999999999;0.33000000000000002;0.070000000000000007;0;2.5817924892592146;55;88;20;2;
2019_02_22 08:59;4;2;1;control;27;111;1;51;36;48;27;0.93000000000000005;0.01;0.01;0.049999999999999899;31;78;30;53;0.55000000000000004;0.16;0.029999999999999999;0.26000000000000001;1;2.451717902698647;55;88;20;2;
2019_02_22 08:59;4;2;1;control;28;91;1;74;81;86;48;0.93000000000000005;0.02;0.01;0.039999999999999897;7;64;0;0;0.13;0.87;0.0;0.0;0;2.481581712309435;55;88;20;2;
2019_02_22 08:59;4;2;1;control;29;112;0;70;44;98;64;0.02;0.75;0.12;0.11;33;2;63;85;0.23999999999999999;0.31;0.080000000000000002;0.37;0;2.8619641897273596;55;88;20;2;
2019_02_22 08:59;4;2;1;control;30;23;0;54;40;0;0;0.93000000000000005;0.070000000000000007;0.0;0.0;36;23;71;86;0.02;0.41999999999999998;0.19;0.37;1;2.481574977196942;55;88;20;2;
2019_02_22 08:59;4;2;1;control;31;84;1;43;10;5;45;0.78000000000000003;0.13;0.059999999999999998;0.029999999999999999;87;1;0;0;0.57999999999999996;0.41999999999999998;0.0;0.0;0;2.56166669018603;55;88;20;2;
2019_02_22 08:59;4;2;1;control;32;137;0;71;22;28;17;0.25;0.46000000000000002;0.050000000000000003;0.23999999999999999;3;98;92;69;0.42999999999999999;0.23999999999999999;0.20000000000000001;0.13;0;2.8518332976266265;55;88;20;2;
2019_02_22 08:59;4;2;1;control;33;26;0;76;41;0;0;0.57999999999999996;0.41999999999999998;0.0;0.0;61;79;84;2;0.13;0.029999999999999999;0.67000000000000004;0.17000000000000001;0;2.4215122059481473;55;88;20;2;
2019_02_22 08:59;4;2;1;control;34;43;0;60;83;0;0;0.23000000000000001;0.77000000000000002;0.0;0.0;72;5;70;12;0.29999999999999999;0.40999999999999998;0.12;0.17000000000000001;0;2.171381352333583;55;88;20;2;
2019_02_22 08:59;4;2;1;control;35;133;1;59;88;60;36;0.67000000000000004;0.070000000000000007;0.12;0.14000000000000001;7;91;66;61;0.25;0.68999999999999995;0.01;0.0500000000000001;0;2.0514293191633897;55;88;20;2;
2019_02_22 08:59;4;2;1;control;36;94;0;84;86;93;39;0.78000000000000003;0.20000000000000001;0.01;0.0099999999999999603;9;83;0;0;0.46999999999999997;0.53000000000000003;0.0;0.0;0;2.7521699891083244;55;88;20;2;
2019_02_22 08:59;4;2;1;control;37;44;0;79;74;0;0;0.71999999999999997;0.28000000000000003;0.0;0.0;3;67;15;36;0.41999999999999998;0.53000000000000003;0.02;0.029999999999999999;0;2.2416423668084917;55;88;20;2;
2019_02_22 08:59;4;2;1;control;38;56;1;28;84;37;41;0.68000000000000005;0.28000000000000003;0.02;0.0199999999999999;6;95;0;0;0.72999999999999998;0.27000000000000002;0.0;0.0;0;2.6817290509136456;55;88;20;2;
2019_02_22 08:59;4;2;1;control;39;48;0;13;32;0;0;0.90000000000000002;0.10000000000000001;0.0;0.0;24;99;84;94;0.62;0.14999999999999999;0.20000000000000001;0.029999999999999999;1;1.691065520457414;55;88;20;2;
2019_02_22 08:59;4;2;1;control;40;18;0;68;50;0;0;0.029999999999999999;0.96999999999999997;0.0;0.0;34;64;15;89;0.65000000000000002;0.029999999999999999;0.050000000000000003;0.27000000000000002;0;2.4417104876602025;55;88;20;2;
2019_02_22 08:59;4;2;1;control;41;12;0;53;68;0;0;0.31;0.68999999999999995;0.0;0.0;69;54;97;29;0.25;0.20999999999999999;0.20000000000000001;0.34000000000000002;1;2.6016745414026445;55;88;20;2;
2019_02_22 08:59;4;2;1;control;42;141;0;93;28;60;91;0.81999999999999995;0.10000000000000001;0.01;0.070000000000000007;14;85;7;89;0.45000000000000001;0.070000000000000007;0.23999999999999999;0.23999999999999999;0;2.421541712155431;55;88;20;2;
2019_02_22 08:59;4;2;1;control;43;83;0;17;12;7;41;0.65000000000000002;0.19;0.089999999999999997;0.070000000000000007;6;84;0;0;0.72999999999999998;0.27000000000000002;0.0;0.0;0;2.8517848689602943;55;88;20;2;
2019_02_22 08:59;4;2;1;control;44;114;1;57;39;79;97;0.77000000000000002;0.02;0.13;0.080000000000000002;92;36;6;1;0.54000000000000004;0.12;0.13;0.20999999999999999;0;2.2514063556373003;55;88;20;2;
2019_02_22 08:59;4;2;1;control;45;45;0;97;87;0;0;0.71999999999999997;0.28000000000000003;0.0;0.0;96;11;14;4;0.25;0.029999999999999999;0.14000000000000001;0.57999999999999996;0;1.6411628267974265;55;88;20;2;
2019_02_22 08:59;4;2;1;control;46;132;0;27;70;21;19;0.64000000000000001;0.23000000000000001;0.029999999999999999;0.10000000000000001;11;85;55;6;0.39000000000000001;0.46999999999999997;0.029999999999999999;0.11;0;2.1315713851367946;55;88;20;2;
2019_02_22 08:59;4;2;1;control;47;99;0;8;24;15;73;0.56000000000000005;0.35999999999999999;0.070000000000000007;0.0099999999999999499;88;12;0;0;0.52000000000000002;0.47999999999999998;0.0;0.0;1;2.5917877169508756;55;88;20;2;
2019_02_22 08:59;4;2;1;control;48;35;1;33;37;0;0;0.88;0.12;0.0;0.0;63;4;79;98;0.16;0.46000000000000002;0.17000000000000001;0.20999999999999999;1;2.6416702052733854;55;88;20;2;
2019_02_22 08:59;4;2;1;control;49;73;1;65;68;70;47;0.25;0.23000000000000001;0.20999999999999999;0.31;27;95;0;0;0.45000000000000001;0.55000000000000004;0.0;0.0;0;2.6718200968061865;55;88;20;2;
2019_02_22 08:59;4;2;1;control;50;146;1;25;5;64;35;0.94999999999999996;0.02;0.01;0.02;47;97;12;79;0.20999999999999999;0.029999999999999999;0.02;0.73999999999999999;0;2.9318611874068665;55;88;20;2;
2019_02_22 08:59;4;2;1;control;51;144;1;99;93;90;71;0.65000000000000002;0.32000000000000001;0.01;0.02;97;14;48;73;0.23000000000000001;0.46000000000000002;0.13;0.17999999999999999;0;2.6117964533536906;55;88;20;2;
2019_02_22 08:59;4;2;1;control;52;77;0;24;17;99;41;0.17999999999999999;0.13;0.10000000000000001;0.58999999999999997;12;97;0;0;0.59999999999999998;0.40000000000000002;0.0;0.0;0;2.8918745036862674;55;88;20;2;
2019_02_22 08:59;4;2;1;control;53;36;0;70;17;0;0;0.33000000000000002;0.67000000000000004;0.0;0.0;84;1;12;88;0.22;0.27000000000000002;0.14000000000000001;0.37;0;2.961913900887339;55;88;20;2;
2019_02_22 08:59;4;2;1;control;54;61;0;43;18;39;70;0.75;0.089999999999999997;0.089999999999999997;0.070000000000000007;16;66;0;0;0.64000000000000001;0.35999999999999999;0.0;0.0;0;2.481726036148757;55;88;20;2;
2019_02_22 08:59;4;2;1;control;55;46;0;5;19;0;0;0.32000000000000001;0.68000000000000005;0.0;0.0;88;38;97;66;0.60999999999999999;0.20000000000000001;0.040000000000000001;0.14999999999999999;1;1.8813751047150618;55;88;20;2;
2019_02_22 08:59;4;2;1;control;56;42;0;70;48;0;0;0.79000000000000004;0.20999999999999999;0.0;0.0;51;8;12;67;0.19;0.26000000000000001;0.28999999999999998;0.26000000000000001;0;2.721745561560965;55;88;20;2;
2019_02_22 08:59;4;2;1;control;57;102;0;40;56;53;17;0.28000000000000003;0.26000000000000001;0.14999999999999999;0.31;1;76;29;62;0.68000000000000005;0.23000000000000001;0.050000000000000003;0.039999999999999897;0;2.7821091678351877;55;88;20;2;
2019_02_22 08:59;4;2;1;control;58;89;1;26;41;13;56;0.059999999999999998;0.40999999999999998;0.050000000000000003;0.47999999999999998;5;97;0;0;0.37;0.63;0.0;0.0;1;2.8318194297094124;55;88;20;2;
2019_02_22 08:59;4;2;1;control;59;9;0;61;69;0;0;0.93999999999999995;0.060000000000000102;0.0;0.0;18;93;72;16;0.40999999999999998;0.34999999999999998;0.089999999999999997;0.14999999999999999;1;2.5217412639176473;55;88;20;2;
2019_02_22 08:59;4;2;1;control;60;72;0;63;82;51;61;0.01;0.96999999999999997;0.01;0.01;92;12;0;0;0.89000000000000001;0.11;0.0;0.0;1;2.8818600328158936;55;88;20;2;
2019_02_22 08:59;4;2;1;control;61;81;1;67;38;52;65;0.27000000000000002;0.35999999999999999;0.01;0.35999999999999999;2;77;0;0;0.14000000000000001;0.85999999999999999;0.0;0.0;0;3.0120869612069328;55;88;20;2;
2019_02_22 08:59;4;2;1;control;62;93;0;87;81;73;98;0.80000000000000004;0.040000000000000001;0.14999999999999999;0.0099999999999999499;5;71;0;0;0.51000000000000001;0.48999999999999999;0.0;0.0;0;3.6823743388363255;55;88;20;2;
2019_02_22 08:59;4;2;1;control;63;57;0;52;35;23;47;0.22;0.68000000000000005;0.040000000000000001;0.059999999999999998;71;7;0;0;0.28999999999999998;0.70999999999999996;0.0;0.0;0;3.1618203790394546;55;88;20;2;
2019_02_22 08:59;4;2;1;control;64;88;0;77;13;12;7;0.12;0.19;0.66000000000000003;0.029999999999999898;94;2;0;0;0.40999999999999998;0.58999999999999997;0.0;0.0;0;2.7617668830030198;55;88;20;2;
2019_02_22 08:59;4;2;1;control;65;95;0;93;88;68;85;0.83999999999999997;0.14000000000000001;0.01;0.01;2;82;0;0;0.41999999999999998;0.57999999999999996;0.0;0.0;0;3.762545269577913;55;88;20;2;
2019_02_22 08:59;4;2;1;control;66;130;1;37;79;23;95;0.94999999999999996;0.029999999999999999;0.01;0.01;94;4;58;49;0.46000000000000002;0.5;0.029999999999999999;0.01;0;3.3422841909591625;55;88;20;2;
2019_02_22 08:59;4;2;1;control;67;39;1;14;33;0;0;0.78000000000000003;0.22;0.0;0.0;93;84;1;25;0.14000000000000001;0.23999999999999999;0.39000000000000001;0.23000000000000001;0;2.7617627136473857;55;88;20;2;
2019_02_22 08:59;4;2;1;control;68;106;1;85;69;22;61;0.10000000000000001;0.58999999999999997;0.17999999999999999;0.13;20;79;91;84;0.55000000000000004;0.14999999999999999;0.26000000000000001;0.039999999999999897;0;3.4823995474002913;55;88;20;2;
2019_02_22 08:59;4;2;1;control;69;115;1;50;28;61;79;0.83999999999999997;0.040000000000000001;0.059999999999999998;0.059999999999999998;1;26;97;55;0.45000000000000001;0.080000000000000002;0.40999999999999998;0.060000000000000102;1;2.581743739873218;55;88;20;2;
2019_02_22 08:59;4;2;1;control;70;80;1;47;39;45;10;0.13;0.76000000000000001;0.059999999999999998;0.050000000000000003;2;87;0;0;0.48999999999999999;0.51000000000000001;0.0;0.0;1;2.5317618284611854;55;88;20;2;
2019_02_22 08:59;4;2;1;control;71;116;0;53;65;43;99;0.56999999999999995;0.37;0.050000000000000003;0.010000000000000101;57;72;11;87;0.67000000000000004;0.13;0.14999999999999999;0.050000000000000003;0;2.9418888077825613;55;88;20;2;
2019_02_22 08:59;4;2;1;control;72;59;1;56;47;83;90;0.31;0.12;0.54000000000000004;0.029999999999999898;10;98;0;0;0.46999999999999997;0.53000000000000003;0.0;0.0;1;2.7617543749365723;55;88;20;2;
2019_02_22 08:59;4;2;1;control;73;58;1;37;58;76;34;0.20999999999999999;0.57999999999999996;0.19;0.020000000000000101;86;5;0;0;0.47999999999999998;0.52000000000000002;0.0;0.0;0;2.2015591464751196;55;88;20;2;
2019_02_22 08:59;4;2;1;control;74;32;0;19;81;0;0;0.93000000000000005;0.070000000000000007;0.0;0.0;1;65;41;68;0.45000000000000001;0.050000000000000003;0.059999999999999998;0.44;0;2.481720904634585;55;88;20;2;
2019_02_22 08:59;4;2;1;control;75;68;0;84;27;55;62;0.01;0.050000000000000003;0.40999999999999998;0.53000000000000003;9;82;0;0;0.37;0.63;0.0;0.0;0;3.372188731964343;55;88;20;2;
2019_02_22 08:59;4;3;1;timed;1;132;0;27;70;21;19;0.64000000000000001;0.23000000000000001;0.029999999999999999;0.10000000000000001;11;85;55;6;0.39000000000000001;0.46999999999999997;0.029999999999999999;0.11;0;2.857090213304218;55;88;20;2;
2019_02_22 08:59;4;3;1;timed;2;94;0;84;86;93;39;0.78000000000000003;0.20000000000000001;0.01;0.0099999999999999603;9;83;0;0;0.46999999999999997;0.53000000000000003;0.0;0.0;1;2.281463238472952;55;88;20;2;
2019_02_22 08:59;4;3;1;timed;3;12;0;53;68;0;0;0.31;0.68999999999999995;0.0;0.0;69;54;97;29;0.25;0.20999999999999999;0.20000000000000001;0.34000000000000002;1;2.1213769905466506;55;88;20;2;
2019_02_22 08:59;4;3;1;timed;4;74;0;66;47;52;44;0.41999999999999998;0.26000000000000001;0.17999999999999999;0.14000000000000001;17;99;0;0;0.47999999999999998;0.52000000000000002;0.0;0.0;1;2.491594579581488;55;88;20;2;
2019_02_22 08:59;4;3;1;timed;5;89;0;26;41;13;56;0.059999999999999998;0.40999999999999998;0.050000000000000003;0.47999999999999998;5;97;0;0;0.37;0.63;0.0;0.0;0;2.6016524117476365;55;88;20;2;
2019_02_22 08:59;4;3;1;timed;6;70;1;66;55;69;50;0.22;0.29999999999999999;0.29999999999999999;0.17999999999999999;2;90;0;0;0.34000000000000002;0.66000000000000003;0.0;0.0;1;2.0813864581905364;55;88;20;2;
2019_02_22 08:59;4;3;1;timed;7;116;0;53;65;43;99;0.56999999999999995;0.37;0.050000000000000003;0.010000000000000101;57;72;11;87;0.67000000000000004;0.13;0.14999999999999999;0.050000000000000003;0;2.972066922643535;55;88;20;2;
2019_02_22 08:59;4;3;1;timed;8;36;1;70;17;0;0;0.33000000000000002;0.67000000000000004;0.0;0.0;84;1;12;88;0.22;0.27000000000000002;0.14000000000000001;0.37;0;2.801796543155433;55;88;20;2;
2019_02_22 08:59;4;3;1;timed;9;2;1;59;32;0;0;0.080000000000000002;0.92000000000000004;0.0;0.0;33;38;85;1;0.28999999999999998;0.050000000000000003;0.070000000000000007;0.58999999999999997;0;3.0519466399482553;55;88;20;2;
2019_02_22 08:59;4;3;1;timed;10;136;0;29;67;14;75;0.46000000000000002;0.29999999999999999;0.20999999999999999;0.0300000000000001;70;86;1;85;0.31;0.39000000000000001;0.27000000000000002;0.029999999999999898;1;3.1319953765059836;55;88;20;2;
2019_02_22 08:59;4;3;1;timed;11;85;0;31;22;82;50;0.11;0.69999999999999996;0.01;0.17999999999999999;3;99;0;0;0.62;0.38;0.0;0.0;0;3.0020869227209914;55;88;20;2;
2019_02_22 08:59;4;3;1;timed;12;54;1;44;79;78;52;0.79000000000000004;0.19;0.01;0.0099999999999999603;96;1;0;0;0.28000000000000003;0.71999999999999997;0.0;0.0;0;1.951265688001513;55;88;20;2;
2019_02_22 08:59;4;3;1;timed;13;138;1;8;20;43;51;0.38;0.5;0.02;0.10000000000000001;72;82;70;1;0.39000000000000001;0.050000000000000003;0.070000000000000007;0.48999999999999999;0;2.861840391944952;55;88;20;2;
2019_02_22 08:59;4;3;1;timed;14;44;1;79;74;0;0;0.71999999999999997;0.28000000000000003;0.0;0.0;3;67;15;36;0.41999999999999998;0.53000000000000003;0.02;0.029999999999999999;0;2.3616617511033837;55;88;20;2;
2019_02_22 08:59;4;3;1;timed;15;46;1;5;19;0;0;0.32000000000000001;0.68000000000000005;0.0;0.0;88;38;97;66;0.60999999999999999;0.20000000000000001;0.040000000000000001;0.14999999999999999;1;1.7912307552173843;55;88;20;2;
2019_02_22 08:59;4;3;1;timed;16;61;1;43;18;39;70;0.75;0.089999999999999997;0.089999999999999997;0.070000000000000007;16;66;0;0;0.64000000000000001;0.35999999999999999;0.0;0.0;0;1.9514145019156786;55;88;20;2;
2019_02_22 08:59;4;3;1;timed;17;38;0;40;70;0;0;0.53000000000000003;0.46999999999999997;0.0;0.0;97;90;6;96;0.56999999999999995;0.070000000000000007;0.27000000000000002;0.089999999999999997;1;2.9118877301643806;55;88;20;2;
2019_02_22 08:59;4;3;1;timed;18;45;0;97;87;0;0;0.71999999999999997;0.28000000000000003;0.0;0.0;96;11;14;4;0.25;0.029999999999999999;0.14000000000000001;0.57999999999999996;0;2.121313808776904;55;88;20;2;
2019_02_22 08:59;4;3;1;timed;19;7;0;49;29;0;0;0.95999999999999996;0.040000000000000001;0.0;0.0;23;99;64;25;0.68999999999999995;0.12;0.059999999999999998;0.13;1;2.40163015380449;55;88;20;2;
2019_02_22 08:59;4;3;1;timed;20;79;0;52;46;29;22;0.17999999999999999;0.51000000000000001;0.23999999999999999;0.070000000000000104;93;14;0;0;0.45000000000000001;0.55000000000000004;0.0;0.0;1;2.5217624314141176;55;88;20;2;
2019_02_22 08:59;4;3;1;timed;21;37;0;14;98;0;0;0.93000000000000005;0.070000000000000007;0.0;0.0;41;2;87;66;0.17999999999999999;0.48999999999999999;0.32000000000000001;0.010000000000000101;1;2.671679942321589;55;88;20;2;
2019_02_22 08:59;4;3;1;timed;22;143;0;88;44;56;73;0.95999999999999996;0.02;0.01;0.01;20;3;87;32;0.19;0.40000000000000002;0.28000000000000003;0.13;0;2.131504675450742;55;88;20;2;
2019_02_22 08:59;4;3;1;timed;23;137;0;71;22;28;17;0.25;0.46000000000000002;0.050000000000000003;0.23999999999999999;3;98;92;69;0.42999999999999999;0.23999999999999999;0.20000000000000001;0.13;0;3.212193247697087;55;88;20;2;
2019_02_22 08:59;4;3;1;timed;24;117;0;65;85;92;41;0.23000000000000001;0.17999999999999999;0.54000000000000004;0.050000000000000003;99;93;10;13;0.64000000000000001;0.16;0.01;0.19;1;2.6518427909277307;55;88;20;2;
2019_02_22 08:59;4;3;1;timed;25;65;0;75;64;59;52;0.59999999999999998;0.22;0.14000000000000001;0.040000000000000001;1;99;0;0;0.35999999999999999;0.64000000000000001;0.0;0.0;0;2.921865638995314;55;88;20;2;
2019_02_22 08:59;4;3;1;timed;26;60;1;64;59;57;96;0.83999999999999997;0.13;0.02;0.01;83;6;0;0;0.54000000000000004;0.46000000000000002;0.0;0.0;0;3.5624229471054605;55;88;20;2;
2019_02_22 08:59;4;3;1;timed;27;109;0;75;28;16;56;0.19;0.070000000000000007;0.059999999999999998;0.68000000000000005;3;50;98;44;0.5;0.02;0.34999999999999998;0.13;0;3.422152362356883;55;88;20;2;
2019_02_22 08:59;4;3;1;timed;28;6;1;9;51;0;0;0.14999999999999999;0.84999999999999998;0.0;0.0;6;40;50;73;0.42999999999999999;0.26000000000000001;0.059999999999999998;0.25;1;3.041935055554859;55;88;20;2;
2019_02_22 08:59;4;3;1;timed;29;66;1;89;23;27;15;0.070000000000000007;0.54000000000000004;0.17000000000000001;0.22;9;73;0;0;0.72999999999999998;0.27000000000000002;0.0;0.0;0;2.12149341177701;55;88;20;2;
2019_02_22 08:59;4;3;1;timed;30;14;0;36;40;0;0;0.54000000000000004;0.46000000000000002;0.0;0.0;99;70;1;11;0.16;0.089999999999999997;0.080000000000000002;0.67000000000000004;0;2.2013994280923725;55;88;20;2;
2019_02_22 08:59;4;3;1;timed;31;55;1;74;55;47;48;0.60999999999999999;0.31;0.070000000000000007;0.01;97;6;0;0;0.42999999999999999;0.56999999999999995;0.0;0.0;0;2.611805112784168;55;88;20;2;
2019_02_22 08:59;4;3;1;timed;32;24;1;35;27;0;0;0.070000000000000007;0.93000000000000005;0.0;0.0;62;3;81;95;0.35999999999999999;0.55000000000000004;0.01;0.080000000000000002;1;2.601667806290152;55;88;20;2;
2019_02_22 08:59;4;3;1;timed;33;53;1;26;70;50;80;0.29999999999999999;0.59999999999999998;0.040000000000000001;0.059999999999999998;89;1;0;0;0.40999999999999998;0.58999999999999997;0.0;0.0;0;2.241566676972525;55;88;20;2;
2019_02_22 08:59;4;3;1;timed;34;140;0;36;32;26;27;0.39000000000000001;0.14999999999999999;0.19;0.27000000000000002;44;3;99;25;0.29999999999999999;0.34000000000000002;0.34000000000000002;0.0199999999999999;0;2.7717864853871106;55;88;20;2;
2019_02_22 08:59;4;3;1;timed;35;22;1;32;55;0;0;0.39000000000000001;0.60999999999999999;0.0;0.0;93;72;59;22;0.20000000000000001;0.11;0.14000000000000001;0.55000000000000004;1;2.761755978534893;55;88;20;2;
2019_02_22 08:59;4;3;1;timed;36;50;0;15;20;0;0;0.82999999999999996;0.17000000000000001;0.0;0.0;97;18;88;87;0.56999999999999995;0.39000000000000001;0.01;0.029999999999999999;1;2.9919104884302214;55;88;20;2;
2019_02_22 08:59;4;3;1;timed;37;72;1;63;82;51;61;0.01;0.96999999999999997;0.01;0.01;92;12;0;0;0.89000000000000001;0.11;0.0;0.0;0;2.4815772222341366;55;88;20;2;
2019_02_22 08:59;4;3;1;timed;38;97;0;17;33;32;74;0.94999999999999996;0.01;0.029999999999999999;0.01;76;23;0;0;0.33000000000000002;0.67000000000000004;0.0;0.0;0;2.9619203152801674;55;88;20;2;
2019_02_22 08:59;4;3;1;timed;39;101;1;30;96;61;45;0.65000000000000002;0.14000000000000001;0.11;0.10000000000000001;3;98;63;89;0.75;0.19;0.040000000000000001;0.02;0;2.9318948629693296;55;88;20;2;
2019_02_22 08:59;4;3;1;timed;40;103;1;38;49;89;50;0.89000000000000001;0.070000000000000007;0.01;0.029999999999999999;6;64;99;27;0.70999999999999996;0.17999999999999999;0.059999999999999998;0.050000000000000003;0;2.9320074355641736;55;88;20;2;
2019_02_22 08:59;4;3;1;timed;41;41;1;99;40;0;0;0.89000000000000001;0.11;0.0;0.0;1;67;52;46;0.51000000000000001;0.38;0.029999999999999999;0.080000000000000002;0;2.3615074849549273;55;88;20;2;
2019_02_22 08:59;4;3;1;timed;42;102;1;40;56;53;17;0.28000000000000003;0.26000000000000001;0.14999999999999999;0.31;1;76;29;62;0.68000000000000005;0.23000000000000001;0.050000000000000003;0.039999999999999897;0;2.6618213411979923;55;88;20;2;
2019_02_22 08:59;4;3;1;timed;43;121;0;42;51;47;70;0.41999999999999998;0.17000000000000001;0.23999999999999999;0.17000000000000001;21;76;48;9;0.14999999999999999;0.34000000000000002;0.40999999999999998;0.10000000000000001;0;2.942016774919921;55;88;20;2;
2019_02_22 08:59;4;3;1;timed;44;73;1;65;68;70;47;0.25;0.23000000000000001;0.20999999999999999;0.31;27;95;0;0;0.45000000000000001;0.55000000000000004;0.0;0.0;1;3.4022302202574792;55;88;20;2;
2019_02_22 08:59;4;3;1;timed;45;11;0;17;36;0;0;0.14000000000000001;0.85999999999999999;0.0;0.0;19;41;34;95;0.88;0.02;0.050000000000000003;0.050000000000000003;0;3.372168205907201;55;88;20;2;
2019_02_22 08:59;4;3;1;timed;46;124;0;37;65;15;41;0.17999999999999999;0.45000000000000001;0.02;0.34999999999999998;40;7;98;30;0.070000000000000007;0.45000000000000001;0.45000000000000001;0.029999999999999898;0;2.8518531822446676;55;88;20;2;
2019_02_22 08:59;4;3;1;timed;47;86;1;56;30;57;88;0.20000000000000001;0.35999999999999999;0.080000000000000002;0.35999999999999999;98;2;0;0;0.77000000000000002;0.23000000000000001;0.0;0.0;1;2.57163626030615;55;88;20;2;
2019_02_22 08:59;4;3;1;timed;48;139;1;44;31;16;8;0.79000000000000004;0.070000000000000007;0.13;0.0099999999999999499;92;58;2;88;0.55000000000000004;0.070000000000000007;0.34000000000000002;0.039999999999999897;1;2.8522720420987753;55;88;20;2;
2019_02_22 08:59;4;3;1;timed;49;63;1;56;78;42;36;0.93000000000000005;0.040000000000000001;0.01;0.0199999999999999;2;72;0;0;0.32000000000000001;0.68000000000000005;0.0;0.0;0;2.641706767312826;55;88;20;2;
2019_02_22 08:59;4;3;1;timed;50;77;0;24;17;99;41;0.17999999999999999;0.13;0.10000000000000001;0.58999999999999997;12;97;0;0;0.59999999999999998;0.40000000000000002;0.0;0.0;0;3.202065562792086;55;88;20;2;
2019_02_22 08:59;4;3;1;timed;51;129;1;12;29;81;36;0.17999999999999999;0.79000000000000004;0.01;0.02;5;19;95;92;0.47999999999999998;0.26000000000000001;0.13;0.13;0;2.811961110818629;55;88;20;2;
2019_02_22 08:59;4;3;1;timed;52;96;0;51;54;39;7;0.17000000000000001;0.26000000000000001;0.10000000000000001;0.46999999999999997;24;96;0;0;0.28000000000000003;0.71999999999999997;0.0;0.0;1;2.4416909237625077;55;88;20;2;
2019_02_22 08:59;4;3;1;timed;53;17;0;81;52;0;0;0.059999999999999998;0.93999999999999995;0.0;0.0;34;3;69;41;0.01;0.22;0.75;0.02;0;2.9919034325985194;55;88;20;2;
2019_02_22 08:59;4;3;1;timed;54;142;0;98;65;64;84;0.88;0.070000000000000007;0.01;0.040000000000000001;5;68;60;16;0.46000000000000002;0.080000000000000002;0.27000000000000002;0.19;0;2.141426137624876;55;88;20;2;
2019_02_22 08:59;4;3;1;timed;55;75;1;67;80;36;81;0.81999999999999995;0.080000000000000002;0.059999999999999998;0.040000000000000001;3;97;0;0;0.32000000000000001;0.68000000000000005;0.0;0.0;0;2.241449293583173;55;88;20;2;
2019_02_22 08:59;4;3;1;timed;56;87;1;10;30;63;4;0.56999999999999995;0.12;0.16;0.14999999999999999;86;2;0;0;0.42999999999999999;0.56999999999999995;0.0;0.0;1;2.6416990700413407;55;88;20;2;
2019_02_22 08:59;4;3;1;timed;57;58;0;37;58;76;34;0.20999999999999999;0.57999999999999996;0.19;0.020000000000000101;86;5;0;0;0.47999999999999998;0.52000000000000002;0.0;0.0;0;2.9618892054750177;55;88;20;2;
2019_02_22 08:59;4;3;1;timed;58;118;1;62;52;65;68;0.40999999999999998;0.44;0.10000000000000001;0.0500000000000001;79;20;14;37;0.56999999999999995;0.23999999999999999;0.14000000000000001;0.050000000000000003;0;1.791123634856831;55;88;20;2;
2019_02_22 08:59;4;3;1;timed;59;57;1;52;35;23;47;0.22;0.68000000000000005;0.040000000000000001;0.059999999999999998;71;7;0;0;0.28999999999999998;0.70999999999999996;0.0;0.0;0;3.082082740536407;55;88;20;2;
2019_02_22 08:59;4;3;1;timed;60;147;0;39;43;76;28;0.14000000000000001;0.10000000000000001;0.10000000000000001;0.66000000000000003;6;31;68;85;0.27000000000000002;0.20000000000000001;0.22;0.31;0;1.9815268692505015;55;88;20;2;
2019_02_22 08:59;4;3;1;timed;61;76;0;39;62;9;28;0.01;0.51000000000000001;0.26000000000000001;0.22;77;7;0;0;0.57999999999999996;0.41999999999999998;0.0;0.0;1;2.761903830290521;55;88;20;2;
2019_02_22 08:59;4;3;1;timed;62;9;1;61;69;0;0;0.93999999999999995;0.060000000000000102;0.0;0.0;18;93;72;16;0.40999999999999998;0.34999999999999998;0.089999999999999997;0.14999999999999999;1;3.122165960869552;55;88;20;2;
2019_02_22 08:59;4;3;1;timed;63;108;0;48;72;39;70;0.14000000000000001;0.66000000000000003;0.02;0.17999999999999999;81;44;98;8;0.59999999999999998;0.029999999999999999;0.050000000000000003;0.32000000000000001;1;2.941903240166539;55;88;20;2;
2019_02_22 08:59;4;3;1;timed;64;67;1;44;42;8;89;0.88;0.070000000000000007;0.029999999999999999;0.02;10;63;0;0;0.39000000000000001;0.60999999999999999;0.0;0.0;0;2.8821073076610446;55;88;20;2;
2019_02_22 08:59;4;3;1;timed;65;71;1;68;55;36;51;0.20000000000000001;0.75;0.02;0.029999999999999999;38;81;0;0;0.52000000000000002;0.47999999999999998;0.0;0.0;1;2.8818587499376918;55;88;20;2;
2019_02_22 08:59;4;3;1;timed;66;122;1;35;58;25;31;0.81999999999999995;0.070000000000000007;0.080000000000000002;0.029999999999999999;18;64;68;89;0.63;0.17000000000000001;0.11;0.089999999999999997;0;3.382157660645589;55;88;20;2;
2019_02_22 08:59;4;3;1;timed;67;40;0;45;49;0;0;0.68999999999999995;0.31;0.0;0.0;2;92;65;73;0.23999999999999999;0.59999999999999998;0.11;0.050000000000000003;1;3.3222895662202063;55;88;20;2;
2019_02_22 08:59;4;3;1;timed;68;64;0;48;39;34;19;0.46000000000000002;0.5;0.02;0.02;13;92;0;0;0.68999999999999995;0.31;0.0;0.0;0;3.202041188099429;55;88;20;2;
2019_02_22 08:59;4;3;1;timed;69;144;1;99;93;90;71;0.65000000000000002;0.32000000000000001;0.01;0.02;97;14;48;73;0.23000000000000001;0.46000000000000002;0.13;0.17999999999999999;0;2.09132171130841;55;88;20;2;
2019_02_22 08:59;4;3;1;timed;70;20;0;44;40;0;0;0.91000000000000003;0.089999999999999997;0.0;0.0;29;5;80;99;0.25;0.40000000000000002;0.26000000000000001;0.089999999999999997;0;2.481438029908986;55;88;20;2;
2019_02_22 08:59;4;3;1;timed;71;27;1;44;26;0;0;0.35999999999999999;0.64000000000000001;0.0;0.0;63;10;3;5;0.58999999999999997;0.19;0.14999999999999999;0.070000000000000007;1;2.2814581069587803;55;88;20;2;
2019_02_22 08:59;4;3;1;timed;72;29;1;44;51;0;0;0.78000000000000003;0.22;0.0;0.0;74;1;68;82;0.69999999999999996;0.28000000000000003;0.01;0.01;0;2.6017014818530697;55;88;20;2;
2019_02_22 08:59;4;3;1;timed;73;10;0;45;62;0;0;0.059999999999999998;0.93999999999999995;0.0;0.0;17;99;28;67;0.58999999999999997;0.34000000000000002;0.01;0.059999999999999998;1;2.6817280887548804;55;88;20;2;
2019_02_22 08:59;4;3;1;timed;74;131;1;83;41;81;88;0.23999999999999999;0.58999999999999997;0.10000000000000001;0.070000000000000007;82;97;4;17;0.26000000000000001;0.46999999999999997;0.11;0.16;1;2.2915931684151474;55;88;20;2;
2019_02_22 08:59;4;3;1;timed;75;90;1;27;44;50;72;0.68000000000000005;0.28999999999999998;0.02;0.0099999999999999707;6;96;0;0;0.46999999999999997;0.53000000000000003;0.0;0.0;0;2.6718332463115075;55;88;20;2;
2019_02_22 08:59;4;4;1;control;1;65;0;75;64;59;52;0.59999999999999998;0.22;0.14000000000000001;0.040000000000000001;1;99;0;0;0.35999999999999999;0.64000000000000001;0.0;0.0;0;2.6126771494950844;55;88;20;2;
2019_02_22 08:59;4;4;1;control;2;62;1;12;45;16;50;0.20999999999999999;0.76000000000000001;0.02;0.01;92;15;0;0;0.20999999999999999;0.79000000000000004;0.0;0.0;0;2.561760661041717;55;88;20;2;
2019_02_22 08:59;4;4;1;control;3;75;0;67;80;36;81;0.81999999999999995;0.080000000000000002;0.059999999999999998;0.040000000000000001;3;97;0;0;0.32000000000000001;0.68000000000000005;0.0;0.0;0;2.5916616741310463;55;88;20;2;
2019_02_22 08:59;4;4;1;control;4;147;0;39;43;76;28;0.14000000000000001;0.10000000000000001;0.10000000000000001;0.66000000000000003;6;31;68;85;0.27000000000000002;0.20000000000000001;0.22;0.31;1;2.4917154908871453;55;88;20;2;
2019_02_22 08:59;4;4;1;control;5;78;1;74;36;34;3;0.14999999999999999;0.64000000000000001;0.13;0.080000000000000002;1;83;0;0;0.41999999999999998;0.57999999999999996;0.0;0.0;1;2.2816014686395647;55;88;20;2;
2019_02_22 08:59;4;4;1;control;6;41;0;99;40;0;0;0.89000000000000001;0.11;0.0;0.0;1;67;52;46;0.51000000000000001;0.38;0.029999999999999999;0.080000000000000002;0;2.1713928982408106;55;88;20;2;
2019_02_22 08:59;4;4;1;control;7;100;1;27;14;59;52;0.02;0.95999999999999996;0.01;0.01;17;98;0;0;0.48999999999999999;0.51000000000000001;0.0;0.0;1;2.311607036332134;55;88;20;2;
2019_02_22 08:59;4;4;1;control;8;108;1;48;72;39;70;0.14000000000000001;0.66000000000000003;0.02;0.17999999999999999;81;44;98;8;0.59999999999999998;0.029999999999999999;0.050000000000000003;0.32000000000000001;1;2.5718588397389794;55;88;20;2;
2019_02_22 08:59;4;4;1;control;9;4;1;40;43;0;0;0.58999999999999997;0.40999999999999998;0.0;0.0;2;33;88;81;0.69999999999999996;0.14000000000000001;0.13;0.029999999999999999;0;2.191570653895724;55;88;20;2;
2019_02_22 08:59;4;4;1;control;10;15;0;77;81;0;0;0.28000000000000003;0.71999999999999997;0.0;0.0;98;14;87;18;0.55000000000000004;0.23000000000000001;0.16;0.059999999999999901;1;2.451712129745374;55;88;20;2;
2019_02_22 08:59;4;4;1;control;11;127;0;89;26;62;79;0.02;0.28999999999999998;0.53000000000000003;0.16;96;6;60;13;0.53000000000000003;0.25;0.17000000000000001;0.050000000000000003;0;3.422368848116548;55;88;20;2;
2019_02_22 08:59;4;4;1;control;12;149;0;14;89;73;53;0.93999999999999995;0.01;0.01;0.040000000000000001;97;45;6;13;0.34000000000000002;0.01;0.40999999999999998;0.23999999999999999;0;2.7318889617281457;55;88;20;2;
2019_02_22 08:59;4;4;1;control;13;69;1;54;34;64;49;0.34000000000000002;0.25;0.20999999999999999;0.20000000000000001;14;98;0;0;0.62;0.38;0.0;0.0;1;2.8818452797127065;55;88;20;2;
2019_02_22 08:59;4;4;1;control;14;60;0;64;59;57;96;0.83999999999999997;0.13;0.02;0.01;83;6;0;0;0.54000000000000004;0.46000000000000002;0.0;0.0;0;2.3615078056745915;55;88;20;2;
2019_02_22 08:59;4;4;1;control;15;3;0;53;40;0;0;0.31;0.68999999999999995;0.0;0.0;96;24;7;88;0.11;0.27000000000000002;0.58999999999999997;0.029999999999999999;0;2.131621096681556;55;88;20;2;
2019_02_22 08:59;4;4;1;control;16;76;1;39;62;9;28;0.01;0.51000000000000001;0.26000000000000001;0.22;77;7;0;0;0.57999999999999996;0.41999999999999998;0.0;0.0;1;3.362327885803097;55;88;20;2;
2019_02_22 08:59;4;4;1;control;17;85;1;31;22;82;50;0.11;0.69999999999999996;0.01;0.17999999999999999;3;99;0;0;0.62;0.38;0.0;0.0;0;2.301590320424566;55;88;20;2;
2019_02_22 08:59;4;4;1;control;18;101;0;30;96;61;45;0.65000000000000002;0.14000000000000001;0.11;0.10000000000000001;3;98;63;89;0.75;0.19;0.040000000000000001;0.02;0;2.371652809440093;55;88;20;2;
2019_02_22 08:59;4;4;1;control;19;25;0;50;53;0;0;0.82999999999999996;0.17000000000000001;0.0;0.0;83;16;97;4;0.45000000000000001;0.29999999999999999;0.11;0.14000000000000001;0;2.4416280627119704;55;88;20;2;
2019_02_22 08:59;4;4;1;control;20;140;1;36;32;26;27;0.39000000000000001;0.14999999999999999;0.19;0.27000000000000002;44;3;99;25;0.29999999999999999;0.34000000000000002;0.34000000000000002;0.0199999999999999;0;3.0522112336543614;55;88;20;2;
2019_02_22 08:59;4;4;1;control;21;71;0;68;55;36;51;0.20000000000000001;0.75;0.02;0.029999999999999999;38;81;0;0;0.52000000000000002;0.47999999999999998;0.0;0.0;1;2.601810847251727;55;88;20;2;
2019_02_22 08:59;4;4;1;control;22;129;1;12;29;81;36;0.17999999999999999;0.79000000000000004;0.01;0.02;5;19;95;92;0.47999999999999998;0.26000000000000001;0.13;0.13;1;2.8919729646172527;55;88;20;2;
2019_02_22 08:59;4;4;1;control;23;51;0;52;23;43;16;0.60999999999999999;0.20999999999999999;0.01;0.17000000000000001;92;7;0;0;0.14999999999999999;0.84999999999999998;0.0;0.0;0;2.4815810708701065;55;88;20;2;
2019_02_22 08:59;4;4;1;control;24;131;0;83;41;81;88;0.23999999999999999;0.58999999999999997;0.10000000000000001;0.070000000000000007;82;97;4;17;0.26000000000000001;0.46999999999999997;0.11;0.16;1;2.061378683946259;55;88;20;2;
2019_02_22 08:59;4;4;1;control;25;90;0;27;44;50;72;0.68000000000000005;0.28999999999999998;0.02;0.0099999999999999707;6;96;0;0;0.46999999999999997;0.53000000000000003;0.0;0.0;0;3.001894811653983;55;88;20;2;
2019_02_22 08:59;4;4;1;control;26;86;1;56;30;57;88;0.20000000000000001;0.35999999999999999;0.080000000000000002;0.35999999999999999;98;2;0;0;0.77000000000000002;0.23000000000000001;0.0;0.0;1;1.9613378884073427;55;88;20;2;
2019_02_22 08:59;4;4;1;control;27;19;0;22;53;0;0;0.13;0.87;0.0;0.0;4;93;96;65;0.46999999999999997;0.059999999999999998;0.26000000000000001;0.20999999999999999;0;2.7219145808126086;55;88;20;2;
2019_02_22 08:59;4;4;1;control;28;126;0;16;55;51;42;0.68999999999999995;0.23999999999999999;0.01;0.060000000000000102;66;4;1;5;0.46999999999999997;0.38;0.089999999999999997;0.059999999999999998;0;2.301462674006416;55;88;20;2;
2019_02_22 08:59;4;4;1;control;29;31;0;10;59;0;0;0.23999999999999999;0.76000000000000001;0.0;0.0;1;79;53;73;0.23000000000000001;0.58999999999999997;0.050000000000000003;0.13;0;2.791912605180187;55;88;20;2;
2019_02_22 08:59;4;4;1;control;30;17;0;81;52;0;0;0.059999999999999998;0.93999999999999995;0.0;0.0;34;3;69;41;0.01;0.22;0.75;0.02;0;2.551772168462776;55;88;20;2;
2019_02_22 08:59;4;4;1;control;31;121;0;42;51;47;70;0.41999999999999998;0.17000000000000001;0.23999999999999999;0.17000000000000001;21;76;48;9;0.14999999999999999;0.34000000000000002;0.40999999999999998;0.10000000000000001;1;3.012078622496574;55;88;20;2;
2019_02_22 08:59;4;4;1;control;32;64;1;48;39;34;19;0.46000000000000002;0.5;0.02;0.02;13;92;0;0;0.68999999999999995;0.31;0.0;0.0;1;2.841947435333168;55;88;20;2;
2019_02_22 08:59;4;4;1;control;33;37;1;14;98;0;0;0.93000000000000005;0.070000000000000007;0.0;0.0;41;2;87;66;0.17999999999999999;0.48999999999999999;0.32000000000000001;0.010000000000000101;0;3.202197378566325;55;88;20;2;
2019_02_22 08:59;4;4;1;control;34;124;0;37;65;15;41;0.17999999999999999;0.45000000000000001;0.02;0.34999999999999998;40;7;98;30;0.070000000000000007;0.45000000000000001;0.45000000000000001;0.029999999999999898;1;2.9318833170623293;55;88;20;2;
2019_02_22 08:59;4;4;1;control;35;110;1;47;44;23;52;0.13;0.27000000000000002;0.040000000000000001;0.56000000000000005;99;2;30;22;0.28999999999999998;0.5;0.11;0.10000000000000001;0;3.0220748123470003;55;88;20;2;
2019_02_22 08:59;4;4;1;control;36;47;1;2;40;0;0;0.45000000000000001;0.55000000000000004;0.0;0.0;93;89;11;56;0.58999999999999997;0.070000000000000007;0.28000000000000003;0.059999999999999998;1;2.921990078217277;55;88;20;2;
2019_02_22 08:59;4;4;1;control;37;66;1;89;23;27;15;0.070000000000000007;0.54000000000000004;0.17000000000000001;0.22;9;73;0;0;0.72999999999999998;0.27000000000000002;0.0;0.0;0;3.292137429650211;55;88;20;2;
2019_02_22 08:59;4;4;1;control;38;125;0;37;41;10;35;0.91000000000000003;0.040000000000000001;0.029999999999999999;0.02;7;13;91;93;0.26000000000000001;0.39000000000000001;0.16;0.19;0;2.4515408654556268;55;88;20;2;
2019_02_22 08:59;4;4;1;control;39;135;1;48;60;41;51;0.14000000000000001;0.40000000000000002;0.089999999999999997;0.37;94;1;85;65;0.64000000000000001;0.29999999999999999;0.01;0.050000000000000003;1;3.1721677568993982;55;88;20;2;
2019_02_22 08:59;4;4;1;control;40;120;1;64;40;48;51;0.19;0.02;0.070000000000000007;0.71999999999999997;97;9;79;94;0.23000000000000001;0.54000000000000004;0.01;0.22;0;2.1713624298745344;55;88;20;2;
2019_02_22 08:59;4;4;1;control;41;136;0;29;67;14;75;0.46000000000000002;0.29999999999999999;0.20999999999999999;0.0300000000000001;70;86;1;85;0.31;0.39000000000000001;0.27000000000000002;0.029999999999999898;1;2.9318759405105084;55;88;20;2;
2019_02_22 08:59;4;4;1;control;42;10;1;45;62;0;0;0.059999999999999998;0.93999999999999995;0.0;0.0;17;99;28;67;0.58999999999999997;0.34000000000000002;0.01;0.059999999999999998;0;3.4824017924379405;55;88;20;2;
2019_02_22 08:59;4;4;1;control;43;50;0;15;20;0;0;0.82999999999999996;0.17000000000000001;0.0;0.0;97;18;88;87;0.56999999999999995;0.39000000000000001;0.01;0.029999999999999999;1;2.6817223158009256;55;88;20;2;
2019_02_22 08:59;4;4;1;control;44;107;0;52;48;13;63;0.68000000000000005;0.19;0.050000000000000003;0.079999999999999905;54;91;33;3;0.19;0.17999999999999999;0.33000000000000002;0.29999999999999999;0;3.2520724903370137;55;88;20;2;
2019_02_22 08:59;4;4;1;control;45;79;0;52;46;29;22;0.17999999999999999;0.51000000000000001;0.23999999999999999;0.070000000000000104;93;14;0;0;0.45000000000000001;0.55000000000000004;0.0;0.0;1;3.282109488554852;55;88;20;2;
2019_02_22 08:59;4;4;1;control;46;92;0;90;86;65;94;0.16;0.34000000000000002;0.28000000000000003;0.22;79;22;0;0;0.35999999999999999;0.64000000000000001;0.0;0.0;0;3.772570965635623;55;88;20;2;
2019_02_22 08:59;4;4;1;control;47;104;1;55;85;93;3;0.87;0.02;0.089999999999999997;0.02;1;2;90;8;0.35999999999999999;0.070000000000000007;0.40000000000000002;0.17000000000000001;0;3.6923782259586915;55;88;20;2;
2019_02_22 08:59;4;4;1;control;48;27;1;44;26;0;0;0.35999999999999999;0.64000000000000001;0.0;0.0;63;10;3;5;0.58999999999999997;0.19;0.14999999999999999;0.070000000000000007;0;2.841818506036816;55;88;20;2;
2019_02_22 08:59;4;4;1;control;49;67;1;44;42;8;89;0.88;0.070000000000000007;0.029999999999999999;0.02;10;63;0;0;0.39000000000000001;0.60999999999999999;0.0;0.0;1;3.002061265149223;55;88;20;2;
2019_02_22 08:59;4;4;1;control;50;139;0;44;31;16;8;0.79000000000000004;0.070000000000000007;0.13;0.0099999999999999499;92;58;2;88;0.55000000000000004;0.070000000000000007;0.34000000000000002;0.039999999999999897;1;3.011937826573103;55;88;20;2;
2019_02_22 08:59;4;4;1;control;51;128;0;70;49;27;54;0.27000000000000002;0.53000000000000003;0.02;0.17999999999999999;72;97;6;20;0.29999999999999999;0.39000000000000001;0.22;0.0899999999999999;0;2.6717020719770517;55;88;20;2;
2019_02_22 08:59;4;4;1;control;52;109;0;75;28;16;56;0.19;0.070000000000000007;0.059999999999999998;0.68000000000000005;3;50;98;44;0.5;0.02;0.34999999999999998;0.13;0;2.731938673272907;55;88;20;2;
2019_02_22 08:59;4;4;1;control;53;38;1;40;70;0;0;0.53000000000000003;0.46999999999999997;0.0;0.0;97;90;6;96;0.56999999999999995;0.070000000000000007;0.27000000000000002;0.089999999999999997;0;2.281453616883482;55;88;20;2;
2019_02_22 08:59;4;4;1;control;54;28;0;47;30;0;0;0.97999999999999998;0.02;0.0;0.0;55;48;77;13;0.070000000000000007;0.26000000000000001;0.42999999999999999;0.23999999999999999;1;3.242215492811283;55;88;20;2;
2019_02_22 08:59;4;4;1;control;55;55;0;74;55;47;48;0.60999999999999999;0.31;0.070000000000000007;0.01;97;6;0;0;0.42999999999999999;0.56999999999999995;0.0;0.0;0;2.6118548243289297;55;88;20;2;
2019_02_22 08:59;4;4;1;control;56;20;1;44;40;0;0;0.91000000000000003;0.089999999999999997;0.0;0.0;29;5;80;99;0.25;0.40000000000000002;0.26000000000000001;0.089999999999999997;0;2.8718128485420493;55;88;20;2;
2019_02_22 08:59;4;4;1;control;57;82;1;78;66;30;27;0.28999999999999998;0.58999999999999997;0.080000000000000002;0.040000000000000001;90;6;0;0;0.82999999999999996;0.17000000000000001;0.0;0.0;1;2.761899981655006;55;88;20;2;
2019_02_22 08:59;4;4;1;control;58;30;0;33;30;0;0;0.71999999999999997;0.28000000000000003;0.0;0.0;9;88;1;14;0.55000000000000004;0.39000000000000001;0.01;0.049999999999999899;0;3.282242587206838;55;88;20;2;
2019_02_22 08:59;4;4;1;control;59;70;0;66;55;69;50;0.22;0.29999999999999999;0.29999999999999999;0.17999999999999999;2;90;0;0;0.34000000000000002;0.66000000000000003;0.0;0.0;0;3.522235492888285;55;88;20;2;
2019_02_22 08:59;4;4;1;control;60;54;0;44;79;78;52;0.79000000000000004;0.19;0.01;0.0099999999999999603;96;1;0;0;0.28000000000000003;0.71999999999999997;0.0;0.0;0;3.0120978656750594;55;88;20;2;
2019_02_22 08:59;4;4;1;control;61;96;1;51;54;39;7;0.17000000000000001;0.26000000000000001;0.10000000000000001;0.46999999999999997;24;96;0;0;0.28000000000000003;0.71999999999999997;0.0;0.0;1;2.7217388264484725;55;88;20;2;
2019_02_22 08:59;4;4;1;control;62;11;1;17;36;0;0;0.14000000000000001;0.85999999999999999;0.0;0.0;19;41;34;95;0.88;0.02;0.050000000000000003;0.050000000000000003;0;3.272313748481338;55;88;20;2;
2019_02_22 08:59;4;4;1;control;63;33;0;27;70;0;0;0.88;0.12;0.0;0.0;93;3;77;16;0.080000000000000002;0.40000000000000002;0.5;0.02;1;2.921870129070612;55;88;20;2;
2019_02_22 08:59;4;4;1;control;64;7;1;49;29;0;0;0.95999999999999996;0.040000000000000001;0.0;0.0;23;99;64;25;0.68999999999999995;0.12;0.059999999999999998;0.13;0;3.7725626269248096;55;88;20;2;
2019_02_22 08:59;4;4;1;control;65;1;0;22;51;0;0;0.26000000000000001;0.73999999999999999;0.0;0.0;14;11;92;31;0.29999999999999999;0.40999999999999998;0.14999999999999999;0.14000000000000001;0;3.1221037412587975;55;88;20;2;
2019_02_22 08:59;4;4;1;control;66;74;0;66;47;52;44;0.41999999999999998;0.26000000000000001;0.17999999999999999;0.14000000000000001;17;99;0;0;0.47999999999999998;0.52000000000000002;0.0;0.0;0;3.041979956305113;55;88;20;2;
2019_02_22 08:59;4;4;1;control;67;53;0;26;70;50;80;0.29999999999999999;0.59999999999999998;0.040000000000000001;0.059999999999999998;89;1;0;0;0.40999999999999998;0.58999999999999997;0.0;0.0;0;2.8818558634607143;55;88;20;2;
2019_02_22 08:59;4;4;1;control;68;117;0;65;85;92;41;0.23000000000000001;0.17999999999999999;0.54000000000000004;0.050000000000000003;99;93;10;13;0.64000000000000001;0.16;0.01;0.19;1;2.571762303126434;55;88;20;2;
2019_02_22 08:59;4;4;1;control;69;97;1;17;33;32;74;0.94999999999999996;0.01;0.029999999999999999;0.01;76;23;0;0;0.33000000000000002;0.67000000000000004;0.0;0.0;1;3.3321757492331017;55;88;20;2;
2019_02_22 08:59;4;4;1;control;70;87;1;10;30;63;4;0.56999999999999995;0.12;0.16;0.14999999999999999;86;2;0;0;0.42999999999999999;0.56999999999999995;0.0;0.0;0;3.3222991878096764;55;88;20;2;
2019_02_22 08:59;4;4;1;control;71;143;1;88;44;56;73;0.95999999999999996;0.02;0.01;0.01;20;3;87;32;0.19;0.40000000000000002;0.28000000000000003;0.13;0;2.4217918734771047;55;88;20;2;
2019_02_22 08:59;4;4;1;control;72;103;0;38;49;89;50;0.89000000000000001;0.070000000000000007;0.01;0.029999999999999999;6;64;99;27;0.70999999999999996;0.17999999999999999;0.059999999999999998;0.050000000000000003;0;3.772510670342399;55;88;20;2;
2019_02_22 08:59;4;4;1;control;73;148;1;37;63;55;10;0.72999999999999998;0.070000000000000007;0.029999999999999999;0.17000000000000001;80;14;23;70;0.46999999999999997;0.10000000000000001;0.23000000000000001;0.20000000000000001;1;2.7017483710651504;55;88;20;2;
2019_02_22 08:59;4;4;1;control;74;122;1;35;58;25;31;0.81999999999999995;0.070000000000000007;0.080000000000000002;0.029999999999999999;18;64;68;89;0.63;0.17000000000000001;0.11;0.089999999999999997;0;3.3321080773885114;55;88;20;2;
2019_02_22 08:59;4;4;1;control;75;29;1;44;51;0;0;0.78000000000000003;0.22;0.0;0.0;74;1;68;82;0.69999999999999996;0.28000000000000003;0.01;0.01;1;3.242078545523327;55;88;20;2;
