date;id;block;order;cond;trial;gameid;leftright;oa1;oa2;oa3;oa4;pa1;pa2;pa3;pa4;ob1;ob2;ob3;ob4;pb1;pb2;pb3;pb4;choice;rt;paytrial;payout;alter;geschlecht;comment
2019_02_22 10:00;6;0;1;practice;1;28;1;37;83;75;8;0.83999999999999997;0.070000000000000007;0.01;0.080000000000000002;94;2;0;0;0.19;0.81000000000000005;0.0;0.0;0;14.011728151154784;32;50;19;2; 
2019_02_22 10:00;6;0;1;practice;2;1;0;67;36;0;0;0.14999999999999999;0.84999999999999998;0.0;0.0;1;4;81;77;0.25;0.54000000000000004;0.14000000000000001;0.070000000000000007;1;11.31635315051335;32;50;19;2; 
2019_02_22 10:00;6;0;1;practice;3;6;1;42;59;0;0;0.35999999999999999;0.64000000000000001;0.0;0.0;77;19;6;7;0.44;0.14999999999999999;0.17999999999999999;0.23000000000000001;0;9.583110859380213;32;50;19;2; 
2019_02_22 10:00;6;0;1;practice;4;17;0;27;61;0;0;0.68999999999999995;0.31;0.0;0.0;3;91;69;43;0.29999999999999999;0.33000000000000002;0.27000000000000002;0.099999999999999895;1;12.94974130587616;32;50;19;2; 
2019_02_22 10:00;6;0;1;practice;5;70;0;21;42;14;63;0.96999999999999997;0.01;0.01;0.01;70;2;6;76;0.23999999999999999;0.42999999999999999;0.01;0.32000000000000001;0;17.266298435391946;32;50;19;2; 
2019_02_22 10:00;6;0;1;practice;6;51;0;38;13;51;84;0.91000000000000003;0.070000000000000007;0.01;0.0099999999999999603;4;89;35;16;0.80000000000000004;0.089999999999999997;0.059999999999999998;0.050000000000000003;0;8.88313414377535;32;50;19;2; 
2019_02_22 10:00;6;0;1;practice;7;44;1;69;48;22;63;0.39000000000000001;0.40999999999999998;0.19;0.01;1;94;0;0;0.22;0.78000000000000003;0.0;0.0;0;6.450004618392086;32;50;19;2; 
2019_02_22 10:00;6;0;1;practice;8;30;0;54;78;85;25;0.20999999999999999;0.60999999999999999;0.089999999999999997;0.090000000000000094;87;20;0;0;0.58999999999999997;0.40999999999999998;0.0;0.0;0;9.3163784875278;32;50;19;2; 
2019_02_22 10:00;6;0;1;practice;9;20;1;32;11;0;0;0.40999999999999998;0.58999999999999997;0.0;0.0;1;86;42;65;0.45000000000000001;0.38;0.050000000000000003;0.12;1;8.799855226224281;32;50;19;2; 
2019_02_22 10:00;6;0;1;practice;10;8;0;20;44;0;0;0.26000000000000001;0.73999999999999999;0.0;0.0;99;3;69;24;0.20999999999999999;0.60999999999999999;0.12;0.060000000000000102;0;9.066567713331096;32;50;19;2; 
2019_02_22 10:00;6;0;1;practice;11;52;1;17;61;57;59;0.070000000000000007;0.050000000000000003;0.33000000000000002;0.55000000000000004;12;93;94;62;0.71999999999999997;0.16;0.080000000000000002;0.040000000000000001;0;8.066567713331096;32;50;19;2; 
2019_02_22 10:00;6;0;1;practice;12;61;1;51;48;56;88;0.91000000000000003;0.02;0.01;0.059999999999999998;78;21;14;82;0.55000000000000004;0.29999999999999999;0.070000000000000007;0.080000000000000002;0;10.999977228759235;32;50;19;2; 
2019_02_22 10:00;6;0;1;practice;13;19;0;25;73;0;0;0.69999999999999996;0.29999999999999999;0.0;0.0;87;84;1;86;0.040000000000000001;0.59999999999999998;0.28000000000000003;0.080000000000000002;1;12.483076478013572;32;50;19;2; 
2019_02_22 10:00;6;0;1;practice;14;63;0;24;82;6;96;0.91000000000000003;0.070000000000000007;0.01;0.0099999999999999603;73;10;71;22;0.31;0.51000000000000001;0.050000000000000003;0.13;0;18.966572780734168;32;50;19;2; 
2019_02_22 10:00;6;0;1;practice;15;39;0;53;65;48;75;0.92000000000000004;0.029999999999999999;0.01;0.040000000000000001;16;83;0;0;0.31;0.68999999999999995;0.0;0.0;0;7.383164291615685;32;50;19;2; 
2019_02_22 10:00;6;0;1;practice;16;27;1;68;43;98;36;0.54000000000000004;0.44;0.01;0.0099999999999999603;97;13;0;0;0.27000000000000002;0.72999999999999998;0.0;0.0;0;9.383091487789898;32;50;19;2; 
2019_02_22 10:00;6;0;1;practice;17;46;1;79;57;98;81;0.67000000000000004;0.070000000000000007;0.20999999999999999;0.050000000000000003;1;76;0;0;0.56000000000000005;0.44;0.0;0.0;0;5.066509662703538;32;50;19;2; 
2019_02_22 10:00;6;0;1;practice;18;68;1;39;58;40;8;0.48999999999999999;0.44;0.02;0.050000000000000003;92;83;51;2;0.57999999999999996;0.13;0.02;0.27000000000000002;1;10.466595872696416;32;50;19;2; 
2019_02_22 10:00;6;0;1;practice;19;4;1;40;59;0;0;0.19;0.81000000000000005;0.0;0.0;10;88;13;45;0.56000000000000005;0.28999999999999998;0.01;0.14000000000000001;0;7.7999495184039915;32;50;19;2; 
2019_02_22 10:00;6;0;1;practice;20;34;0;57;23;66;79;0.56000000000000005;0.23000000000000001;0.13;0.079999999999999905;85;9;0;0;0.56000000000000005;0.44;0.0;0.0;0;5.449836239499746;32;50;19;2; 
2019_02_22 10:00;6;0;1;practice;21;10;1;34;59;0;0;0.16;0.83999999999999997;0.0;0.0;21;61;96;7;0.19;0.01;0.5;0.29999999999999999;1;20.816386184848852;32;50;19;2; 
2019_02_22 10:00;6;0;1;practice;22;54;0;69;80;22;55;0.27000000000000002;0.31;0.059999999999999998;0.35999999999999999;52;2;49;90;0.059999999999999998;0.33000000000000002;0.20000000000000001;0.40999999999999998;0;12.783243125008994;32;50;19;2; 
2019_02_22 10:00;6;0;1;practice;23;75;1;21;86;27;62;0.88;0.040000000000000001;0.070000000000000007;0.0099999999999999794;13;3;49;87;0.28999999999999998;0.39000000000000001;0.070000000000000007;0.25;0;18.01632858323137;32;50;19;2; 
2019_02_22 10:00;6;0;1;practice;24;2;0;41;60;0;0;0.97999999999999998;0.02;0.0;0.0;10;14;97;6;0.54000000000000004;0.17000000000000001;0.12;0.17000000000000001;0;2.833237544451549;32;50;19;2; 
2019_02_22 10:00;6;0;1;practice;25;57;1;39;68;59;91;0.73999999999999999;0.040000000000000001;0.14999999999999999;0.070000000000000007;9;22;40;84;0.29999999999999999;0.32000000000000001;0.040000000000000001;0.34000000000000002;0;8.849933995474203;32;50;19;2; 
2019_02_22 10:00;6;0;1;practice;26;33;1;54;82;55;71;0.56000000000000005;0.20999999999999999;0.02;0.20999999999999999;13;99;0;0;0.5;0.5;0.0;0.0;0;8.54983822797385;32;50;19;2; 
2019_02_22 10:00;6;0;1;practice;27;50;1;17;12;21;14;0.55000000000000004;0.34000000000000002;0.059999999999999998;0.049999999999999899;13;93;0;0;0.28999999999999998;0.70999999999999996;0.0;0.0;1;5.383335877725585;32;50;19;2; 
2019_02_22 10:00;6;0;1;practice;28;73;1;99;88;95;28;0.83999999999999997;0.14000000000000001;0.01;0.01;90;93;10;74;0.080000000000000002;0.46000000000000002;0.34999999999999998;0.11;0;5.183167370543742;32;50;19;2; 
2019_02_22 10:00;6;0;1;practice;29;64;0;44;60;96;45;0.53000000000000003;0.10000000000000001;0.029999999999999999;0.34000000000000002;88;20;43;31;0.47999999999999998;0.38;0.050000000000000003;0.089999999999999997;0;13.049867734371219;32;50;19;2; 
2019_02_22 10:00;6;0;1;practice;30;66;0;44;18;63;36;0.47999999999999998;0.10000000000000001;0.029999999999999999;0.39000000000000001;13;93;61;53;0.52000000000000002;0.45000000000000001;0.02;0.0099999999999999707;0;18.182929074319873;32;50;19;2; 
2019_02_22 10:00;6;0;1;practice;31;32;0;21;86;16;78;0.45000000000000001;0.41999999999999998;0.050000000000000003;0.080000000000000099;95;9;0;0;0.42999999999999999;0.56999999999999995;0.0;0.0;0;4.049893392106242;32;50;19;2; 
2019_02_22 10:00;6;0;1;practice;32;25;1;7;18;0;0;0.20999999999999999;0.79000000000000004;0.0;0.0;92;45;33;13;0.41999999999999998;0.17999999999999999;0.22;0.17999999999999999;1;3.1166240320626457;32;50;19;2; 
2019_02_22 10:00;6;0;1;practice;33;38;1;51;89;10;60;0.57999999999999996;0.029999999999999999;0.080000000000000002;0.31;8;84;0;0;0.33000000000000002;0.67000000000000004;0.0;0.0;1;6.600003271361857;32;50;19;2; 
2019_02_22 10:00;6;0;1;practice;34;60;0;39;93;27;78;0.85999999999999999;0.02;0.11;0.01;22;5;62;95;0.059999999999999998;0.56999999999999995;0.14000000000000001;0.23000000000000001;0;8.283168076131005;32;50;19;2; 
2019_02_22 10:00;6;0;1;practice;35;67;1;74;31;10;77;0.11;0.070000000000000007;0.77000000000000002;0.050000000000000003;2;23;8;97;0.56999999999999995;0.01;0.059999999999999998;0.35999999999999999;0;8.19978588619233;32;50;19;2; 
2019_02_22 10:00;6;0;1;practice;36;74;1;36;46;10;12;0.11;0.19;0.65000000000000002;0.049999999999999899;92;24;79;19;0.51000000000000001;0.40999999999999998;0.02;0.059999999999999998;1;6.599864719586549;32;50;19;2; 
2019_02_22 10:00;6;0;1;practice;37;24;0;19;38;0;0;0.89000000000000001;0.11;0.0;0.0;45;76;95;57;0.29999999999999999;0.22;0.40000000000000002;0.080000000000000002;1;5.716720633438854;32;50;19;2; 
2019_02_22 10:00;6;0;1;practice;38;3;0;20;70;0;0;0.13;0.87;0.0;0.0;95;19;80;73;0.31;0.57999999999999996;0.029999999999999999;0.080000000000000002;0;5.949972866944336;32;50;19;2; 
2019_02_22 10:00;6;0;1;practice;39;16;1;50;42;0;0;0.32000000000000001;0.68000000000000005;0.0;0.0;97;2;56;31;0.35999999999999999;0.16;0.16;0.32000000000000001;0;9.683041968358339;32;50;19;2; 
2019_02_22 10:00;6;0;1;practice;40;43;1;11;17;21;44;0.16;0.46000000000000002;0.25;0.13;2;66;0;0;0.44;0.56000000000000005;0.0;0.0;0;11.516478360265864;32;50;19;2; 
2019_02_22 10:00;6;0;1;practice;41;21;0;59;69;0;0;0.34000000000000002;0.66000000000000003;0.0;0.0;64;18;5;24;0.14999999999999999;0.040000000000000001;0.51000000000000001;0.29999999999999999;0;2.4166646354296972;32;50;19;2; 
2019_02_22 10:00;6;0;1;practice;42;12;0;45;86;0;0;0.97999999999999998;0.02;0.0;0.0;6;23;95;81;0.14999999999999999;0.40999999999999998;0.050000000000000003;0.39000000000000001;0;12.049932840875954;32;50;19;2; 
2019_02_22 10:00;6;0;1;practice;43;72;1;86;85;97;43;0.51000000000000001;0.14999999999999999;0.33000000000000002;0.0099999999999999499;72;29;10;90;0.01;0.11;0.65000000000000002;0.23000000000000001;0;8.716604852904311;32;50;19;2; 
2019_02_22 10:00;6;0;1;practice;44;55;1;53;11;80;74;0.31;0.37;0.28000000000000003;0.039999999999999897;6;93;98;96;0.69999999999999996;0.22;0.050000000000000003;0.029999999999999999;0;7.316463478778132;32;50;19;2; 
2019_02_22 10:00;6;0;1;practice;45;62;0;65;52;74;55;0.16;0.12;0.14999999999999999;0.56999999999999995;72;86;2;68;0.12;0.53000000000000003;0.22;0.13;0;10.516462324179884;32;50;19;2; 
2019_02_22 10:00;6;0;1;practice;46;47;1;91;99;90;78;0.93000000000000005;0.040000000000000001;0.02;0.0099999999999999499;10;87;0;0;0.23000000000000001;0.77000000000000002;0.0;0.0;0;6.299822191888779;32;50;19;2; 
2019_02_22 10:00;6;0;1;practice;47;14;0;92;56;0;0;0.11;0.89000000000000001;0.0;0.0;97;31;51;4;0.58999999999999997;0.22;0.080000000000000002;0.11;0;10.199855162079075;32;50;19;2; 
2019_02_22 10:00;6;0;1;practice;48;26;1;24;46;74;59;0.29999999999999999;0.11;0.25;0.34000000000000002;91;6;0;0;0.28999999999999998;0.70999999999999996;0.0;0.0;0;5.416586379334149;32;50;19;2; 
2019_02_22 10:00;6;0;1;practice;49;49;1;14;31;42;22;0.77000000000000002;0.089999999999999997;0.02;0.12;87;28;0;0;0.68000000000000005;0.32000000000000001;0.0;0.0;1;3.41658862438544;32;50;19;2; 
2019_02_22 10:00;6;0;1;practice;50;71;1;94;87;26;75;0.71999999999999997;0.23999999999999999;0.02;0.02;90;27;12;83;0.16;0.73999999999999999;0.02;0.080000000000000002;0;5.966540387842542;32;50;19;2; 
2019_02_22 10:00;6;0;1;practice;51;42;1;23;45;91;22;0.72999999999999998;0.02;0.20000000000000001;0.050000000000000003;2;86;0;0;0.40999999999999998;0.58999999999999997;0.0;0.0;0;7.333131064847294;32;50;19;2; 
2019_02_22 10:00;6;0;1;practice;52;58;1;44;50;85;42;0.38;0.57999999999999996;0.02;0.02;37;88;19;12;0.20000000000000001;0.29999999999999999;0.46000000000000002;0.040000000000000001;0;5.516518771199117;32;50;19;2; 
2019_02_22 10:00;6;0;1;practice;53;5;0;23;58;0;0;0.71999999999999997;0.28000000000000003;0.0;0.0;94;12;52;3;0.11;0.84999999999999998;0.029999999999999999;0.01;0;6.499844449975171;32;50;19;2; 
2019_02_22 10:00;6;0;1;practice;54;65;1;35;15;77;1;0.62;0.33000000000000002;0.029999999999999999;0.02;68;3;25;96;0.38;0.28000000000000003;0.28000000000000003;0.059999999999999901;0;12.816429161555789;32;50;19;2; 
2019_02_22 10:00;6;0;1;practice;55;31;0;72;59;40;92;0.59999999999999998;0.34999999999999998;0.02;0.029999999999999999;97;29;0;0;0.38;0.62;0.0;0.0;0;3.583205472282316;32;50;19;2; 
2019_02_22 10:00;6;0;1;practice;56;48;0;20;25;24;35;0.32000000000000001;0.13;0.48999999999999999;0.059999999999999901;44;76;0;0;0.29999999999999999;0.69999999999999996;0.0;0.0;1;2.9331939904450337;32;50;19;2; 
2019_02_22 10:00;6;0;1;practice;57;45;0;37;40;75;23;0.54000000000000004;0.38;0.059999999999999998;0.02;1;90;0;0;0.28000000000000003;0.71999999999999997;0.0;0.0;0;4.833332478075135;32;50;19;2; 
2019_02_22 10:00;6;0;1;practice;58;7;0;13;31;0;0;0.51000000000000001;0.48999999999999999;0.0;0.0;8;79;42;18;0.85999999999999999;0.089999999999999997;0.02;0.029999999999999999;0;8.399820331703268;32;50;19;2; 
2019_02_22 10:00;6;0;1;practice;59;9;1;57;44;0;0;0.14999999999999999;0.84999999999999998;0.0;0.0;38;35;64;95;0.34000000000000002;0.45000000000000001;0.089999999999999997;0.12;0;6.04985298117208;32;50;19;2; 
2019_02_22 10:00;6;0;1;practice;60;13;1;15;25;0;0;0.29999999999999999;0.69999999999999996;0.0;0.0;3;43;35;73;0.44;0.40000000000000002;0.01;0.14999999999999999;1;8.049781460233135;32;50;19;2; 
2019_02_22 10:00;6;0;1;practice;61;11;0;10;44;0;0;0.48999999999999999;0.51000000000000001;0.0;0.0;88;12;54;50;0.17000000000000001;0.75;0.02;0.059999999999999998;0;14.399599033729828;32;50;19;2; 
2019_02_22 10:00;6;0;1;practice;62;69;1;38;74;27;73;0.22;0.19;0.45000000000000001;0.14000000000000001;1;97;79;84;0.28000000000000003;0.45000000000000001;0.17000000000000001;0.10000000000000001;1;15.566226786162588;32;50;19;2; 
2019_02_22 10:00;6;0;1;practice;63;40;1;29;65;30;41;0.70999999999999996;0.01;0.14999999999999999;0.13;2;59;0;0;0.32000000000000001;0.68000000000000005;0.0;0.0;0;3.1000892247775482;32;50;19;2; 
2019_02_22 10:00;6;0;1;practice;64;15;1;24;59;0;0;0.56999999999999995;0.42999999999999999;0.0;0.0;9;8;80;22;0.31;0.10000000000000001;0.55000000000000004;0.039999999999999897;0;3.8331705136160963;32;50;19;2; 
2019_02_22 10:00;6;0;1;practice;65;23;0;99;93;0;0;0.57999999999999996;0.41999999999999998;0.0;0.0;64;10;80;81;0.13;0.55000000000000004;0.02;0.29999999999999999;0;2.4168121674110807;32;50;19;2; 
2019_02_22 10:00;6;0;1;practice;66;29;1;66;40;92;49;0.46999999999999997;0.10000000000000001;0.34000000000000002;0.089999999999999997;8;94;0;0;0.44;0.56000000000000005;0.0;0.0;0;2.0167567467015033;32;50;19;2; 
2019_02_22 10:00;6;0;1;practice;67;35;1;84;95;4;35;0.89000000000000001;0.050000000000000003;0.01;0.050000000000000003;5;98;0;0;0.19;0.81000000000000005;0.0;0.0;0;2.8833987391781193;32;50;19;2; 
2019_02_22 10:00;6;0;1;practice;68;41;1;19;54;51;8;0.76000000000000001;0.070000000000000007;0.16;0.0099999999999999794;2;77;0;0;0.54000000000000004;0.46000000000000002;0.0;0.0;0;7.449836560221229;32;50;19;2; 
2019_02_22 10:00;6;0;1;practice;69;37;1;50;66;99;12;0.26000000000000001;0.71999999999999997;0.01;0.01;22;90;0;0;0.37;0.63;0.0;0.0;0;3.4833571095023217;32;50;19;2; 
2019_02_22 10:00;6;0;1;practice;70;18;0;47;36;0;0;0.089999999999999997;0.91000000000000003;0.0;0.0;2;44;81;9;0.20000000000000001;0.25;0.51000000000000001;0.040000000000000001;1;7.666677464297209;32;50;19;2; 
2019_02_22 10:00;6;0;1;practice;71;53;0;47;24;95;38;0.57999999999999996;0.28000000000000003;0.02;0.12;8;22;93;96;0.54000000000000004;0.34000000000000002;0.10000000000000001;0.0199999999999999;0;5.399614428371024;32;50;19;2; 
2019_02_22 10:00;6;0;1;practice;72;22;1;84;87;0;0;0.17000000000000001;0.82999999999999996;0.0;0.0;3;24;41;83;0.68000000000000005;0.11;0.10000000000000001;0.11;0;3.0165979894591146;32;50;19;2; 
2019_02_22 10:00;6;0;1;practice;73;56;1;47;52;64;10;0.77000000000000002;0.040000000000000001;0.11;0.080000000000000002;1;5;12;99;0.14000000000000001;0.28999999999999998;0.27000000000000002;0.29999999999999999;0;5.949841691768597;32;50;19;2; 
2019_02_22 10:00;6;0;1;practice;74;59;1;13;27;48;51;0.56999999999999995;0.13;0.13;0.17000000000000001;8;37;97;1;0.65000000000000002;0.16;0.14999999999999999;0.040000000000000001;0;13.999734763153356;32;50;19;2; 
2019_02_22 10:00;6;0;1;practice;75;36;1;56;89;86;77;0.66000000000000003;0.080000000000000002;0.14999999999999999;0.11;29;91;0;0;0.40999999999999998;0.58999999999999997;0.0;0.0;0;6.283334209972963;32;50;19;2; 
2019_02_22 10:00;6;1;1;timed;1;17;0;81;52;0;0;0.059999999999999998;0.93999999999999995;0.0;0.0;34;3;69;41;0.01;0.22;0.75;0.02;0;3.928515622995292;32;50;19;2; 
2019_02_22 10:00;6;1;1;timed;2;149;0;14;89;73;53;0.93999999999999995;0.01;0.01;0.040000000000000001;97;45;6;13;0.34000000000000002;0.01;0.40999999999999998;0.23999999999999999;1;3.8999325842987673;32;50;19;2; 
2019_02_22 10:00;6;1;1;timed;3;31;0;10;59;0;0;0.23999999999999999;0.76000000000000001;0.0;0.0;1;79;53;73;0.23000000000000001;0.58999999999999997;0.050000000000000003;0.13;1;4.416494652928122;32;50;19;2; 
2019_02_22 10:00;6;1;1;timed;4;103;0;38;49;89;50;0.89000000000000001;0.070000000000000007;0.01;0.029999999999999999;6;64;99;27;0.70999999999999996;0.17999999999999999;0.059999999999999998;0.050000000000000003;0;2.933213233747665;32;50;19;2; 
2019_02_22 10:00;6;1;1;timed;5;51;1;52;23;43;16;0.60999999999999999;0.20999999999999999;0.01;0.17000000000000001;92;7;0;0;0.14999999999999999;0.84999999999999998;0.0;0.0;0;2.7832601232594243;32;50;19;2; 
2019_02_22 10:00;6;1;1;timed;6;98;0;27;10;31;79;0.23000000000000001;0.67000000000000004;0.070000000000000007;0.029999999999999999;25;99;0;0;0.38;0.62;0.0;0.0;1;4.0499950608855215;32;50;19;2; 
2019_02_22 10:00;6;1;1;timed;7;120;1;64;40;48;51;0.19;0.02;0.070000000000000007;0.71999999999999997;97;9;79;94;0.23000000000000001;0.54000000000000004;0.01;0.22;0;2.6832395329265637;32;50;19;2; 
2019_02_22 10:00;6;1;1;timed;8;80;1;47;39;45;10;0.13;0.76000000000000001;0.059999999999999998;0.050000000000000003;2;87;0;0;0.48999999999999999;0.51000000000000001;0.0;0.0;0;3.1499364329592936;32;50;19;2; 
2019_02_22 10:00;6;1;1;timed;9;72;0;63;82;51;61;0.01;0.96999999999999997;0.01;0.01;92;12;0;0;0.89000000000000001;0.11;0.0;0.0;0;3.9998707491549794;32;50;19;2; 
2019_02_22 10:00;6;1;1;timed;10;45;1;97;87;0;0;0.71999999999999997;0.28000000000000003;0.0;0.0;96;11;14;4;0.25;0.029999999999999999;0.14000000000000001;0.57999999999999996;0;3.1665453269570207;32;50;19;2; 
2019_02_22 10:00;6;1;1;timed;11;55;0;74;55;47;48;0.60999999999999999;0.31;0.070000000000000007;0.01;97;6;0;0;0.42999999999999999;0.56999999999999995;0.0;0.0;0;3.7165644419701493;32;50;19;2; 
2019_02_22 10:00;6;1;1;timed;12;35;1;33;37;0;0;0.88;0.12;0.0;0.0;63;4;79;98;0.16;0.46000000000000002;0.17000000000000001;0.20999999999999999;0;3.5500316231600664;32;50;19;2; 
2019_02_22 10:00;6;1;1;timed;13;4;1;40;43;0;0;0.58999999999999997;0.40999999999999998;0.0;0.0;2;33;88;81;0.69999999999999996;0.14000000000000001;0.13;0.029999999999999999;1;3.916536026027643;32;50;19;2; 
2019_02_22 10:00;6;1;1;timed;14;63;0;56;78;42;36;0.93000000000000005;0.040000000000000001;0.01;0.0199999999999999;2;72;0;0;0.32000000000000001;0.68000000000000005;0.0;0.0;0;4.066700171393677;32;50;19;2; 
2019_02_22 10:00;6;1;1;timed;15;128;0;70;49;27;54;0.27000000000000002;0.53000000000000003;0.02;0.17999999999999999;72;97;6;20;0.29999999999999999;0.39000000000000001;0.22;0.0899999999999999;1;4.416539233244293;32;50;19;2; 
2019_02_22 10:00;6;1;1;timed;16;39;0;14;33;0;0;0.78000000000000003;0.22;0.0;0.0;93;84;1;25;0.14000000000000001;0.23999999999999999;0.39000000000000001;0.23000000000000001;1;4.566643724374444;32;50;19;2; 
2019_02_22 10:00;6;1;1;timed;17;5;0;70;5;0;0;0.98999999999999999;0.01;0.0;0.0;92;87;47;1;0.44;0.02;0.16;0.38;0;3.9500408599451475;32;50;19;2; 
2019_02_22 10:00;6;1;1;timed;18;33;0;27;70;0;0;0.88;0.12;0.0;0.0;93;3;77;16;0.080000000000000002;0.40000000000000002;0.5;0.02;0;4.133254735135779;32;50;19;2; 
2019_02_22 10:00;6;1;1;timed;19;30;0;33;30;0;0;0.71999999999999997;0.28000000000000003;0.0;0.0;9;88;1;14;0.55000000000000004;0.39000000000000001;0.01;0.049999999999999899;0;2.5998987160865;32;50;19;2; 
2019_02_22 10:00;6;1;1;timed;20;89;1;26;41;13;56;0.059999999999999998;0.40999999999999998;0.050000000000000003;0.47999999999999998;5;97;0;0;0.37;0.63;0.0;0.0;1;3.649973315954412;32;50;19;2; 
2019_02_22 10:00;6;1;1;timed;21;49;0;21;30;0;0;0.53000000000000003;0.46999999999999997;0.0;0.0;93;99;89;25;0.44;0.02;0.11;0.42999999999999999;1;3.033388732662388;32;50;19;2; 
2019_02_22 10:00;6;1;1;timed;22;92;0;90;86;65;94;0.16;0.34000000000000002;0.28000000000000003;0.22;79;22;0;0;0.35999999999999999;0.64000000000000001;0.0;0.0;0;2.3332202254796357;32;50;19;2; 
2019_02_22 10:00;6;1;1;timed;23;141;1;93;28;60;91;0.81999999999999995;0.10000000000000001;0.01;0.070000000000000007;14;85;7;89;0.45000000000000001;0.070000000000000007;0.23999999999999999;0.23999999999999999;0;2.4165693810837183;32;50;19;2; 
2019_02_22 10:00;6;1;1;timed;24;117;1;65;85;92;41;0.23000000000000001;0.17999999999999999;0.54000000000000004;0.050000000000000003;99;93;10;13;0.64000000000000001;0.16;0.01;0.19;0;3.6165493039061403;32;50;19;2; 
2019_02_22 10:00;6;1;1;timed;25;44;1;79;74;0;0;0.71999999999999997;0.28000000000000003;0.0;0.0;3;67;15;36;0.41999999999999998;0.53000000000000003;0.02;0.029999999999999999;0;3.4166925382178306;32;50;19;2; 
2019_02_22 10:00;6;1;1;timed;26;64;0;48;39;34;19;0.46000000000000002;0.5;0.02;0.02;13;92;0;0;0.68999999999999995;0.31;0.0;0.0;0;3.183211950860823;32;50;19;2; 
2019_02_22 10:00;6;1;1;timed;27;140;1;36;32;26;27;0.39000000000000001;0.14999999999999999;0.19;0.27000000000000002;44;3;99;25;0.29999999999999999;0.34000000000000002;0.34000000000000002;0.0199999999999999;0;3.499859844616367;32;50;19;2; 
2019_02_22 10:00;6;1;1;timed;28;53;0;26;70;50;80;0.29999999999999999;0.59999999999999998;0.040000000000000001;0.059999999999999998;89;1;0;0;0.40999999999999998;0.58999999999999997;0.0;0.0;0;3.716576629393785;32;50;19;2; 
2019_02_22 10:00;6;1;1;timed;29;54;1;44;79;78;52;0.79000000000000004;0.19;0.01;0.0099999999999999603;96;1;0;0;0.28000000000000003;0.71999999999999997;0.0;0.0;0;2.2832315790283246;32;50;19;2; 
2019_02_22 10:00;6;1;1;timed;30;37;1;14;98;0;0;0.93000000000000005;0.070000000000000007;0.0;0.0;41;2;87;66;0.17999999999999999;0.48999999999999999;0.32000000000000001;0.010000000000000101;0;4.533161661697704;32;50;19;2; 
2019_02_22 10:00;6;1;1;timed;31;142;0;98;65;64;84;0.88;0.070000000000000007;0.01;0.040000000000000001;5;68;60;16;0.46000000000000002;0.080000000000000002;0.27000000000000002;0.19;0;2.0998919809308063;32;50;19;2; 
2019_02_22 10:00;6;1;1;timed;32;34;0;32;48;0;0;0.28000000000000003;0.71999999999999997;0.0;0.0;97;83;7;62;0.040000000000000001;0.54000000000000004;0.35999999999999999;0.059999999999999901;1;4.183192707559101;32;50;19;2; 
2019_02_22 10:00;6;1;1;timed;33;40;0;45;49;0;0;0.68999999999999995;0.31;0.0;0.0;2;92;65;73;0.23999999999999999;0.59999999999999998;0.11;0.050000000000000003;0;2.583292387862457;32;50;19;2; 
2019_02_22 10:00;6;1;1;timed;34;127;0;89;26;62;79;0.02;0.28999999999999998;0.53000000000000003;0.16;96;6;60;13;0.53000000000000003;0.25;0.17000000000000001;0.050000000000000003;1;4.133189628630134;32;50;19;2; 
2019_02_22 10:00;6;1;1;timed;35;95;1;93;88;68;85;0.83999999999999997;0.14000000000000001;0.01;0.01;2;82;0;0;0.41999999999999998;0.57999999999999996;0.0;0.0;0;1.9833981618794496;32;50;19;2; 
2019_02_22 10:00;6;1;1;timed;36;58;1;37;58;76;34;0.20999999999999999;0.57999999999999996;0.19;0.020000000000000101;86;5;0;0;0.47999999999999998;0.52000000000000002;0.0;0.0;0;4.416716271623045;32;50;19;2; 
2019_02_22 10:00;6;1;1;timed;37;73;0;65;68;70;47;0.25;0.23000000000000001;0.20999999999999999;0.31;27;95;0;0;0.45000000000000001;0.55000000000000004;0.0;0.0;0;1.799953687786001;32;50;19;2; 
2019_02_22 10:00;6;1;1;timed;38;43;1;60;83;0;0;0.23000000000000001;0.77000000000000002;0.0;0.0;72;5;70;12;0.29999999999999999;0.40999999999999998;0.12;0.17000000000000001;0;2.316620311689803;32;50;19;2; 
2019_02_22 10:00;6;1;1;timed;39;10;0;45;62;0;0;0.059999999999999998;0.93999999999999995;0.0;0.0;17;99;28;67;0.58999999999999997;0.34000000000000002;0.01;0.059999999999999998;0;4.016561106463996;32;50;19;2; 
2019_02_22 10:00;6;1;1;timed;40;84;1;43;10;5;45;0.78000000000000003;0.13;0.059999999999999998;0.029999999999999999;87;1;0;0;0.57999999999999996;0.41999999999999998;0.0;0.0;0;3.2832190708822964;32;50;19;2; 
2019_02_22 10:00;6;1;1;timed;41;111;1;51;36;48;27;0.93000000000000005;0.01;0.01;0.049999999999999899;31;78;30;53;0.55000000000000004;0.16;0.029999999999999999;0.26000000000000001;0;3.833342741169872;32;50;19;2; 
2019_02_22 10:00;6;1;1;timed;42;66;1;89;23;27;15;0.070000000000000007;0.54000000000000004;0.17000000000000001;0.22;9;73;0;0;0.72999999999999998;0.27000000000000002;0.0;0.0;0;4.149868119236999;32;50;19;2; 
2019_02_22 10:00;6;1;1;timed;43;24;0;35;27;0;0;0.070000000000000007;0.93000000000000005;0.0;0.0;62;3;81;95;0.35999999999999999;0.55000000000000004;0.01;0.080000000000000002;1;4.883207909766497;32;50;19;2; 
2019_02_22 10:00;6;1;1;timed;44;74;1;66;47;52;44;0.41999999999999998;0.26000000000000001;0.17999999999999999;0.14000000000000001;17;99;0;0;0.47999999999999998;0.52000000000000002;0.0;0.0;0;3.0499071831400215;32;50;19;2; 
2019_02_22 10:00;6;1;1;timed;45;145;0;91;89;90;74;0.57999999999999996;0.29999999999999999;0.11;0.010000000000000101;2;75;84;39;0.32000000000000001;0.27000000000000002;0.39000000000000001;0.0199999999999999;0;1.6665953595420433;32;50;19;2; 
2019_02_22 10:00;6;1;1;timed;46;15;1;77;81;0;0;0.28000000000000003;0.71999999999999997;0.0;0.0;98;14;87;18;0.55000000000000004;0.23000000000000001;0.16;0.059999999999999901;0;2.1170079359380907;32;50;19;2; 
2019_02_22 10:00;6;1;1;timed;47;79;1;52;46;29;22;0.17999999999999999;0.51000000000000001;0.23999999999999999;0.070000000000000104;93;14;0;0;0.45000000000000001;0.55000000000000004;0.0;0.0;0;3.4500373320061044;32;50;19;2; 
2019_02_22 10:00;6;1;1;timed;48;6;1;9;51;0;0;0.14999999999999999;0.84999999999999998;0.0;0.0;6;40;50;73;0.42999999999999999;0.26000000000000001;0.059999999999999998;0.25;0;4.083194567743703;32;50;19;2; 
2019_02_22 10:00;6;1;1;timed;49;32;0;19;81;0;0;0.93000000000000005;0.070000000000000007;0.0;0.0;1;65;41;68;0.45000000000000001;0.050000000000000003;0.059999999999999998;0.44;0;4.766706714116481;32;50;19;2; 
2019_02_22 10:00;6;1;1;timed;50;77;0;24;17;99;41;0.17999999999999999;0.13;0.10000000000000001;0.58999999999999997;12;97;0;0;0.59999999999999998;0.40000000000000002;0.0;0.0;0;2.3832496035884105;32;50;19;2; 
2019_02_22 10:00;6;1;1;timed;51;25;0;50;53;0;0;0.82999999999999996;0.17000000000000001;0.0;0.0;83;16;97;4;0.45000000000000001;0.29999999999999999;0.11;0.14000000000000001;0;4.18315871105824;32;50;19;2; 
2019_02_22 10:00;6;1;1;timed;52;107;0;52;48;13;63;0.68000000000000005;0.19;0.050000000000000003;0.079999999999999905;54;91;33;3;0.19;0.17999999999999999;0.33000000000000002;0.29999999999999999;0;3.899852083151927;32;50;19;2; 
2019_02_22 10:00;6;1;1;timed;53;9;0;61;69;0;0;0.93999999999999995;0.060000000000000102;0.0;0.0;18;93;72;16;0.40999999999999998;0.34999999999999998;0.089999999999999997;0.14999999999999999;0;2.183333504384791;32;50;19;2; 
2019_02_22 10:00;6;1;1;timed;54;61;0;43;18;39;70;0.75;0.089999999999999997;0.089999999999999997;0.070000000000000007;16;66;0;0;0.64000000000000001;0.35999999999999999;0.0;0.0;0;2.749778060583594;32;50;19;2; 
2019_02_22 10:00;6;1;1;timed;55;47;1;2;40;0;0;0.45000000000000001;0.55000000000000004;0.0;0.0;93;89;11;56;0.58999999999999997;0.070000000000000007;0.28000000000000003;0.059999999999999998;1;2.5166432112191615;32;50;19;2; 
2019_02_22 10:00;6;1;1;timed;56;14;0;36;40;0;0;0.54000000000000004;0.46000000000000002;0.0;0.0;99;70;1;11;0.16;0.089999999999999997;0.080000000000000002;0.67000000000000004;0;3.716559310422781;32;50;19;2; 
2019_02_22 10:00;6;1;1;timed;57;48;1;13;32;0;0;0.90000000000000002;0.10000000000000001;0.0;0.0;24;99;84;94;0.62;0.14999999999999999;0.20000000000000001;0.029999999999999999;1;3.7998824875685386;32;50;19;2; 
2019_02_22 10:00;6;1;1;timed;58;13;0;52;56;0;0;0.46999999999999997;0.53000000000000003;0.0;0.0;94;71;27;2;0.089999999999999997;0.31;0.57999999999999996;0.020000000000000101;0;2.4999390628772744;32;50;19;2; 
2019_02_22 10:00;6;1;1;timed;59;78;1;74;36;34;3;0.14999999999999999;0.64000000000000001;0.13;0.080000000000000002;1;83;0;0;0.41999999999999998;0.57999999999999996;0.0;0.0;0;3.8999877484311583;32;50;19;2; 
2019_02_22 10:00;6;1;1;timed;60;96;0;51;54;39;7;0.17000000000000001;0.26000000000000001;0.10000000000000001;0.46999999999999997;24;96;0;0;0.28000000000000003;0.71999999999999997;0.0;0.0;1;4.666443016734775;32;50;19;2; 
2019_02_22 10:00;6;1;1;timed;61;118;0;62;52;65;68;0.40999999999999998;0.44;0.10000000000000001;0.0500000000000001;79;20;14;37;0.56999999999999995;0.23999999999999999;0.14000000000000001;0.050000000000000003;0;4.166541157574102;32;50;19;2; 
2019_02_22 10:00;6;1;1;timed;62;108;1;48;72;39;70;0.14000000000000001;0.66000000000000003;0.02;0.17999999999999999;81;44;98;8;0.59999999999999998;0.029999999999999999;0.050000000000000003;0.32000000000000001;0;2.2832424835660277;32;50;19;2; 
2019_02_22 10:00;6;1;1;timed;63;68;1;84;27;55;62;0.01;0.050000000000000003;0.40999999999999998;0.53000000000000003;9;82;0;0;0.37;0.63;0.0;0.0;0;2.283379752453584;32;50;19;2; 
2019_02_22 10:00;6;1;1;timed;64;16;1;64;53;0;0;0.65000000000000002;0.34999999999999998;0.0;0.0;29;17;81;46;0.10000000000000001;0.01;0.44;0.45000000000000001;0;2.166601453253861;32;50;19;2; 
2019_02_22 10:00;6;1;1;timed;65;116;1;53;65;43;99;0.56999999999999995;0.37;0.050000000000000003;0.010000000000000101;57;72;11;87;0.67000000000000004;0.13;0.14999999999999999;0.050000000000000003;NA;5.433221251790201;32;50;19;2; 
2019_02_22 10:00;6;1;1;timed;66;50;0;15;20;0;0;0.82999999999999996;0.17000000000000001;0.0;0.0;97;18;88;87;0.56999999999999995;0.39000000000000001;0.01;0.029999999999999999;1;2.1165739994767137;32;50;19;2; 
2019_02_22 10:00;6;1;1;timed;67;1;0;22;51;0;0;0.26000000000000001;0.73999999999999999;0.0;0.0;14;11;92;31;0.29999999999999999;0.40999999999999998;0.14999999999999999;0.14000000000000001;1;4.800045093470544;32;50;19;2; 
2019_02_22 10:00;6;1;1;timed;68;123;0;26;24;51;92;0.72999999999999998;0.16;0.070000000000000007;0.040000000000000001;6;90;82;49;0.64000000000000001;0.25;0.050000000000000003;0.059999999999999998;0;2.633174554710422;32;50;19;2; 
2019_02_22 10:00;6;1;1;timed;69;133;1;59;88;60;36;0.67000000000000004;0.070000000000000007;0.12;0.14000000000000001;7;91;66;61;0.25;0.68999999999999995;0.01;0.0500000000000001;0;3.2331932207125647;32;50;19;2; 
2019_02_22 10:00;6;1;1;timed;70;136;1;29;67;14;75;0.46000000000000002;0.29999999999999999;0.20999999999999999;0.0300000000000001;70;86;1;85;0.31;0.39000000000000001;0.27000000000000002;0.029999999999999898;0;3.283370772246599;32;50;19;2; 
2019_02_22 10:00;6;1;1;timed;71;137;1;71;22;28;17;0.25;0.46000000000000002;0.050000000000000003;0.23999999999999999;3;98;92;69;0.42999999999999999;0.23999999999999999;0.20000000000000001;0.13;0;2.183253644680917;32;50;19;2; 
2019_02_22 10:00;6;1;1;timed;72;114;1;57;39;79;97;0.77000000000000002;0.02;0.13;0.080000000000000002;92;36;6;1;0.54000000000000004;0.12;0.13;0.20999999999999999;0;3.3165638646714797;32;50;19;2; 
2019_02_22 10:00;6;1;1;timed;73;3;0;53;40;0;0;0.31;0.68999999999999995;0.0;0.0;96;24;7;88;0.11;0.27000000000000002;0.58999999999999997;0.029999999999999999;0;3.8665566805048;32;50;19;2; 
2019_02_22 10:00;6;1;1;timed;74;70;1;66;55;69;50;0.22;0.29999999999999999;0.29999999999999999;0.17999999999999999;2;90;0;0;0.34000000000000002;0.66000000000000003;0.0;0.0;0;1.8665932427784355;32;50;19;2; 
2019_02_22 10:00;6;1;1;timed;75;129;1;12;29;81;36;0.17999999999999999;0.79000000000000004;0.01;0.02;5;19;95;92;0.47999999999999998;0.26000000000000001;0.13;0.13;0;3.016563351516197;32;50;19;2; 
2019_02_22 10:00;6;2;1;control;1;59;1;56;47;83;90;0.31;0.12;0.54000000000000004;0.029999999999999898;10;98;0;0;0.46999999999999997;0.53000000000000003;0.0;0.0;0;2.8909886182282207;32;50;19;2; 
2019_02_22 10:00;6;2;1;control;2;114;0;57;39;79;97;0.77000000000000002;0.02;0.13;0.080000000000000002;92;36;6;1;0.54000000000000004;0.12;0.13;0.20999999999999999;0;3.2332054081380193;32;50;19;2; 
2019_02_22 10:00;6;2;1;control;3;32;1;19;81;0;0;0.93000000000000005;0.070000000000000007;0.0;0.0;1;65;41;68;0.45000000000000001;0.050000000000000003;0.059999999999999998;0.44;1;7.7165192202101025;32;50;19;2; 
2019_02_22 10:00;6;2;1;control;4;125;1;37;41;10;35;0.91000000000000003;0.040000000000000001;0.029999999999999999;0.02;7;13;91;93;0.26000000000000001;0.39000000000000001;0.16;0.19;0;5.749770042540149;32;50;19;2; 
2019_02_22 10:00;6;2;1;control;5;127;1;89;26;62;79;0.02;0.28999999999999998;0.53000000000000003;0.16;96;6;60;13;0.53000000000000003;0.25;0.17000000000000001;0.050000000000000003;0;2.333181738876192;32;50;19;2; 
2019_02_22 10:00;6;2;1;control;6;62;0;12;45;16;50;0.20999999999999999;0.76000000000000001;0.02;0.01;92;15;0;0;0.20999999999999999;0.79000000000000004;0.0;0.0;0;6.69977947175812;32;50;19;2; 
2019_02_22 10:00;6;2;1;control;7;23;0;54;40;0;0;0.93000000000000005;0.070000000000000007;0.0;0.0;36;23;71;86;0.02;0.41999999999999998;0.19;0.37;0;12.132999761382962;32;50;19;2; 
2019_02_22 10:00;6;2;1;control;8;121;0;42;51;47;70;0.41999999999999998;0.17000000000000001;0.23999999999999999;0.17000000000000001;21;76;48;9;0.14999999999999999;0.34000000000000002;0.40999999999999998;0.10000000000000001;0;2.166622620886301;32;50;19;2; 
2019_02_22 10:00;6;2;1;control;9;87;0;10;30;63;4;0.56999999999999995;0.12;0.16;0.14999999999999999;86;2;0;0;0.42999999999999999;0.56999999999999995;0.0;0.0;0;4.099868247525592;32;50;19;2; 
2019_02_22 10:00;6;2;1;control;10;86;1;56;30;57;88;0.20000000000000001;0.35999999999999999;0.080000000000000002;0.35999999999999999;98;2;0;0;0.77000000000000002;0.23000000000000001;0.0;0.0;0;12.233075836570606;32;50;19;2; 
2019_02_22 10:00;6;2;1;control;11;132;0;27;70;21;19;0.64000000000000001;0.23000000000000001;0.029999999999999999;0.10000000000000001;11;85;55;6;0.39000000000000001;0.46999999999999997;0.029999999999999999;0.11;1;5.299994098720163;32;50;19;2; 
2019_02_22 10:00;6;2;1;control;12;16;0;64;53;0;0;0.65000000000000002;0.34999999999999998;0.0;0.0;29;17;81;46;0.10000000000000001;0.01;0.44;0.45000000000000001;0;2.400018858435942;32;50;19;2; 
2019_02_22 10:00;6;2;1;control;13;55;1;74;55;47;48;0.60999999999999999;0.31;0.070000000000000007;0.01;97;6;0;0;0.42999999999999999;0.56999999999999995;0.0;0.0;0;3.0832324129050903;32;50;19;2; 
2019_02_22 10:00;6;2;1;control;14;128;1;70;49;27;54;0.27000000000000002;0.53000000000000003;0.02;0.17999999999999999;72;97;6;20;0.29999999999999999;0.39000000000000001;0.22;0.0899999999999999;0;6.566480797750046;32;50;19;2; 
2019_02_22 10:00;6;2;1;control;15;36;0;70;17;0;0;0.33000000000000002;0.67000000000000004;0.0;0.0;84;1;12;88;0.22;0.27000000000000002;0.14000000000000001;0.37;1;9.299753236723518;32;50;19;2; 
2019_02_22 10:00;6;2;1;control;16;64;1;48;39;34;19;0.46000000000000002;0.5;0.02;0.02;13;92;0;0;0.68999999999999995;0.31;0.0;0.0;0;6.149792108192742;32;50;19;2; 
2019_02_22 10:00;6;2;1;control;17;137;1;71;22;28;17;0.25;0.46000000000000002;0.050000000000000003;0.23999999999999999;3;98;92;69;0.42999999999999999;0.23999999999999999;0.20000000000000001;0.13;1;3.4498910829106535;32;50;19;2; 
2019_02_22 10:00;6;2;1;control;18;104;0;55;85;93;3;0.87;0.02;0.089999999999999997;0.02;1;2;90;8;0.35999999999999999;0.070000000000000007;0.40000000000000002;0.17000000000000001;0;6.016482208925481;32;50;19;2; 
2019_02_22 10:00;6;2;1;control;19;142;1;98;65;64;84;0.88;0.070000000000000007;0.01;0.040000000000000001;5;68;60;16;0.46000000000000002;0.080000000000000002;0.27000000000000002;0.19;0;2.6832334392138364;32;50;19;2; 
2019_02_22 10:00;6;2;1;control;20;28;0;47;30;0;0;0.97999999999999998;0.02;0.0;0.0;55;48;77;13;0.070000000000000007;0.26000000000000001;0.42999999999999999;0.23999999999999999;1;5.149776713551546;32;50;19;2; 
2019_02_22 10:00;6;2;1;control;21;118;0;62;52;65;68;0.40999999999999998;0.44;0.10000000000000001;0.0500000000000001;79;20;14;37;0.56999999999999995;0.23999999999999999;0.14000000000000001;0.050000000000000003;0;1.8498810763931033;32;50;19;2; 
2019_02_22 10:00;6;2;1;control;22;107;0;52;48;13;63;0.68000000000000005;0.19;0.050000000000000003;0.079999999999999905;54;91;33;3;0.19;0.17999999999999999;0.33000000000000002;0.29999999999999999;0;7.566423709286937;32;50;19;2; 
2019_02_22 10:00;6;2;1;control;23;101;1;30;96;61;45;0.65000000000000002;0.14000000000000001;0.11;0.10000000000000001;3;98;63;89;0.75;0.19;0.040000000000000001;0.02;0;3.5000121874254546;32;50;19;2; 
2019_02_22 10:00;6;2;1;control;24;117;0;65;85;92;41;0.23000000000000001;0.17999999999999999;0.54000000000000004;0.050000000000000003;99;93;10;13;0.64000000000000001;0.16;0.01;0.19;0;14.09968800192928;32;50;19;2; 
2019_02_22 10:00;6;2;1;control;25;25;0;50;53;0;0;0.82999999999999996;0.17000000000000001;0.0;0.0;83;16;97;4;0.45000000000000001;0.29999999999999999;0.11;0.14000000000000001;0;5.583330553745327;32;50;19;2; 
2019_02_22 10:00;6;2;1;control;26;108;0;48;72;39;70;0.14000000000000001;0.66000000000000003;0.02;0.17999999999999999;81;44;98;8;0.59999999999999998;0.029999999999999999;0.050000000000000003;0.32000000000000001;1;13.966483620100917;32;50;19;2; 
2019_02_22 10:00;6;2;1;control;27;43;1;60;83;0;0;0.23000000000000001;0.77000000000000002;0.0;0.0;72;5;70;12;0.29999999999999999;0.40999999999999998;0.12;0.17000000000000001;0;2.3500789616828115;32;50;19;2; 
2019_02_22 10:00;6;2;1;control;28;96;1;51;54;39;7;0.17000000000000001;0.26000000000000001;0.10000000000000001;0.46999999999999997;24;96;0;0;0.28000000000000003;0.71999999999999997;0.0;0.0;1;4.100013213734201;32;50;19;2; 
2019_02_22 10:00;6;2;1;control;29;65;0;75;64;59;52;0.59999999999999998;0.22;0.14000000000000001;0.040000000000000001;1;99;0;0;0.35999999999999999;0.64000000000000001;0.0;0.0;0;1.949984412925005;32;50;19;2; 
2019_02_22 10:00;6;2;1;control;30;94;0;84;86;93;39;0.78000000000000003;0.20000000000000001;0.01;0.0099999999999999603;9;83;0;0;0.46999999999999997;0.53000000000000003;0.0;0.0;0;3.0664981167219594;32;50;19;2; 
2019_02_22 10:00;6;2;1;control;31;148;1;37;63;55;10;0.72999999999999998;0.070000000000000007;0.029999999999999999;0.17000000000000001;80;14;23;70;0.46999999999999997;0.10000000000000001;0.23000000000000001;0.20000000000000001;1;7.483111436679792;32;50;19;2; 
2019_02_22 10:00;6;2;1;control;32;85;0;31;22;82;50;0.11;0.69999999999999996;0.01;0.17999999999999999;3;99;0;0;0.62;0.38;0.0;0.0;0;5.516504659444763;32;50;19;2; 
2019_02_22 10:00;6;2;1;control;33;33;1;27;70;0;0;0.88;0.12;0.0;0.0;93;3;77;16;0.080000000000000002;0.40000000000000002;0.5;0.02;1;4.683115734350395;32;50;19;2; 
2019_02_22 10:00;6;2;1;control;34;56;0;28;84;37;41;0.68000000000000005;0.28000000000000003;0.02;0.0199999999999999;6;95;0;0;0.72999999999999998;0.27000000000000002;0.0;0.0;0;4.983161148543331;32;50;19;2; 
2019_02_22 10:00;6;2;1;control;35;102;0;40;56;53;17;0.28000000000000003;0.26000000000000001;0.14999999999999999;0.31;1;76;29;62;0.68000000000000005;0.23000000000000001;0.050000000000000003;0.039999999999999897;0;4.617068552339333;32;50;19;2; 
2019_02_22 10:00;6;2;1;control;36;40;1;45;49;0;0;0.68999999999999995;0.31;0.0;0.0;2;92;65;73;0.23999999999999999;0.59999999999999998;0.11;0.050000000000000003;0;12.58326095713619;32;50;19;2; 
2019_02_22 10:00;6;2;1;control;37;80;1;47;39;45;10;0.13;0.76000000000000001;0.059999999999999998;0.050000000000000003;2;87;0;0;0.48999999999999999;0.51000000000000001;0.0;0.0;0;2.0500402826455684;32;50;19;2; 
2019_02_22 10:00;6;2;1;control;38;130;0;37;79;23;95;0.94999999999999996;0.029999999999999999;0.01;0.01;94;4;58;49;0.46000000000000002;0.5;0.029999999999999999;0.01;0;2.599854135770329;32;50;19;2; 
2019_02_22 10:00;6;2;1;control;39;4;0;40;43;0;0;0.58999999999999997;0.40999999999999998;0.0;0.0;2;33;88;81;0.69999999999999996;0.14000000000000001;0.13;0.029999999999999999;0;3.499668053039386;32;50;19;2; 
2019_02_22 10:00;6;2;1;control;40;129;0;12;29;81;36;0.17999999999999999;0.79000000000000004;0.01;0.02;5;19;95;92;0.47999999999999998;0.26000000000000001;0.13;0.13;0;9.249847977914214;32;50;19;2; 
2019_02_22 10:00;6;2;1;control;41;134;0;57;48;50;55;0.02;0.62;0.17999999999999999;0.17999999999999999;80;96;15;18;0.23999999999999999;0.35999999999999999;0.33000000000000002;0.070000000000000007;0;5.516468097171128;32;50;19;2; 
2019_02_22 10:00;6;2;1;control;42;120;0;64;40;48;51;0.19;0.02;0.070000000000000007;0.71999999999999997;97;9;79;94;0.23000000000000001;0.54000000000000004;0.01;0.22;0;2.166589907273192;32;50;19;2; 
2019_02_22 10:00;6;2;1;control;43;63;0;56;78;42;36;0.93000000000000005;0.040000000000000001;0.01;0.0199999999999999;2;72;0;0;0.32000000000000001;0.68000000000000005;0.0;0.0;0;5.733212784736679;32;50;19;2; 
2019_02_22 10:00;6;2;1;control;44;5;0;70;5;0;0;0.98999999999999999;0.01;0.0;0.0;92;87;47;1;0.44;0.02;0.16;0.38;0;5.583203868673081;32;50;19;2; 
2019_02_22 10:00;6;2;1;control;45;27;1;44;26;0;0;0.35999999999999999;0.64000000000000001;0.0;0.0;63;10;3;5;0.58999999999999997;0.19;0.14999999999999999;0.070000000000000007;0;6.399960166364508;32;50;19;2; 
2019_02_22 10:00;6;2;1;control;46;75;1;67;80;36;81;0.81999999999999995;0.080000000000000002;0.059999999999999998;0.040000000000000001;3;97;0;0;0.32000000000000001;0.68000000000000005;0.0;0.0;0;10.383030871387746;32;50;19;2; 
2019_02_22 10:00;6;2;1;control;47;77;1;24;17;99;41;0.17999999999999999;0.13;0.10000000000000001;0.58999999999999997;12;97;0;0;0.59999999999999998;0.40000000000000002;0.0;0.0;0;4.416703763476107;32;50;19;2; 
2019_02_22 10:00;6;2;1;control;48;34;1;32;48;0;0;0.28000000000000003;0.71999999999999997;0.0;0.0;97;83;7;62;0.040000000000000001;0.54000000000000004;0.35999999999999999;0.059999999999999901;1;11.733041198626779;32;50;19;2; 
2019_02_22 10:00;6;2;1;control;49;51;1;52;23;43;16;0.60999999999999999;0.20999999999999999;0.01;0.17000000000000001;92;7;0;0;0.14999999999999999;0.84999999999999998;0.0;0.0;0;2.283350566779518;32;50;19;2; 
2019_02_22 10:00;6;2;1;control;50;30;1;33;30;0;0;0.71999999999999997;0.28000000000000003;0.0;0.0;9;88;1;14;0.55000000000000004;0.39000000000000001;0.01;0.049999999999999899;0;3.0665702791047806;32;50;19;2; 
2019_02_22 10:00;6;2;1;control;51;76;0;39;62;9;28;0.01;0.51000000000000001;0.26000000000000001;0.22;77;7;0;0;0.57999999999999996;0.41999999999999998;0.0;0.0;1;10.883239661215157;32;50;19;2; 
2019_02_22 10:00;6;2;1;control;52;19;1;22;53;0;0;0.13;0.87;0.0;0.0;4;93;96;65;0.46999999999999997;0.059999999999999998;0.26000000000000001;0.20999999999999999;1;4.816711396652863;32;50;19;2; 
2019_02_22 10:00;6;2;1;control;53;136;0;29;67;14;75;0.46000000000000002;0.29999999999999999;0.20999999999999999;0.0300000000000001;70;86;1;85;0.31;0.39000000000000001;0.27000000000000002;0.029999999999999898;0;2.8999511861566134;32;50;19;2; 
2019_02_22 10:00;6;2;1;control;54;12;1;53;68;0;0;0.31;0.68999999999999995;0.0;0.0;69;54;97;29;0.25;0.20999999999999999;0.20000000000000001;0.34000000000000002;1;5.199844898986157;32;50;19;2; 
2019_02_22 10:00;6;2;1;control;55;124;1;37;65;15;41;0.17999999999999999;0.45000000000000001;0.02;0.34999999999999998;40;7;98;30;0.070000000000000007;0.45000000000000001;0.45000000000000001;0.029999999999999898;0;8.866438334196573;32;50;19;2; 
2019_02_22 10:00;6;2;1;control;56;119;1;60;58;11;18;0.25;0.72999999999999998;0.01;0.01;96;23;42;85;0.44;0.48999999999999999;0.059999999999999998;0.010000000000000101;1;2.6334170203153917;32;50;19;2; 
2019_02_22 10:00;6;2;1;control;57;60;0;64;59;57;96;0.83999999999999997;0.13;0.02;0.01;83;6;0;0;0.54000000000000004;0.46000000000000002;0.0;0.0;0;2.9165735504666372;32;50;19;2; 
2019_02_22 10:00;6;2;1;control;58;131;0;83;41;81;88;0.23999999999999999;0.58999999999999997;0.10000000000000001;0.070000000000000007;82;97;4;17;0.26000000000000001;0.46999999999999997;0.11;0.16;0;2.1165691886508284;32;50;19;2; 
2019_02_22 10:00;6;2;1;control;59;113;0;85;65;39;64;0.44;0.34000000000000002;0.13;0.089999999999999997;87;2;4;35;0.67000000000000004;0.17000000000000001;0.11;0.049999999999999899;0;2.3999120581102034;32;50;19;2; 
2019_02_22 10:00;6;2;1;control;60;149;0;14;89;73;53;0.93999999999999995;0.01;0.01;0.040000000000000001;97;45;6;13;0.34000000000000002;0.01;0.40999999999999998;0.23999999999999999;0;8.833104444946002;32;50;19;2; 
2019_02_22 10:00;6;2;1;control;61;95;1;93;88;68;85;0.83999999999999997;0.14000000000000001;0.01;0.01;2;82;0;0;0.41999999999999998;0.57999999999999996;0.0;0.0;0;2.28321522222177;32;50;19;2; 
2019_02_22 10:00;6;2;1;control;62;89;1;26;41;13;56;0.059999999999999998;0.40999999999999998;0.050000000000000003;0.47999999999999998;5;97;0;0;0.37;0.63;0.0;0.0;0;4.666496897980323;32;50;19;2; 
2019_02_22 10:00;6;2;1;control;63;39;0;14;33;0;0;0.78000000000000003;0.22;0.0;0.0;93;84;1;25;0.14000000000000001;0.23999999999999999;0.39000000000000001;0.23000000000000001;1;6.633200212446354;32;50;19;2; 
2019_02_22 10:00;6;2;1;control;64;45;0;97;87;0;0;0.71999999999999997;0.28000000000000003;0.0;0.0;96;11;14;4;0.25;0.029999999999999999;0.14000000000000001;0.57999999999999996;0;1.816582787250809;32;50;19;2; 
2019_02_22 10:00;6;2;1;control;65;53;1;26;70;50;80;0.29999999999999999;0.59999999999999998;0.040000000000000001;0.059999999999999998;89;1;0;0;0.40999999999999998;0.58999999999999997;0.0;0.0;0;2.516549239760934;32;50;19;2; 
2019_02_22 10:00;6;2;1;control;66;81;1;67;38;52;65;0.27000000000000002;0.35999999999999999;0.01;0.35999999999999999;2;77;0;0;0.14000000000000001;0.85999999999999999;0.0;0.0;0;2.183213554469148;32;50;19;2; 
2019_02_22 10:00;6;2;1;control;67;70;1;66;55;69;50;0.22;0.29999999999999999;0.29999999999999999;0.17999999999999999;2;90;0;0;0.34000000000000002;0.66000000000000003;0.0;0.0;0;1.6998769711553905;32;50;19;2; 
2019_02_22 10:00;6;2;1;control;68;22;0;32;55;0;0;0.39000000000000001;0.60999999999999999;0.0;0.0;93;72;59;22;0.20000000000000001;0.11;0.14000000000000001;0.55000000000000004;1;1.9832855885624667;32;50;19;2; 
2019_02_22 10:00;6;2;1;control;69;18;1;68;50;0;0;0.029999999999999999;0.96999999999999997;0.0;0.0;34;64;15;89;0.65000000000000002;0.029999999999999999;0.050000000000000003;0.27000000000000002;0;3.7832408799577024;32;50;19;2; 
2019_02_22 10:00;6;2;1;control;70;112;0;70;44;98;64;0.02;0.75;0.12;0.11;33;2;63;85;0.23999999999999999;0.31;0.080000000000000002;0.37;0;2.0833722475663308;32;50;19;2; 
2019_02_22 10:00;6;2;1;control;71;66;1;89;23;27;15;0.070000000000000007;0.54000000000000004;0.17000000000000001;0.22;9;73;0;0;0.72999999999999998;0.27000000000000002;0.0;0.0;0;2.8166902290204234;32;50;19;2; 
2019_02_22 10:00;6;2;1;control;72;92;0;90;86;65;94;0.16;0.34000000000000002;0.28000000000000003;0.22;79;22;0;0;0.35999999999999999;0.64000000000000001;0.0;0.0;0;1.5832227912542294;32;50;19;2; 
2019_02_22 10:00;6;2;1;control;73;105;0;49;74;63;58;0.84999999999999998;0.080000000000000002;0.02;0.050000000000000003;97;5;86;8;0.25;0.52000000000000002;0.070000000000000007;0.16;0;4.616641992476616;32;50;19;2; 
2019_02_22 10:00;6;2;1;control;74;88;0;77;13;12;7;0.12;0.19;0.66000000000000003;0.029999999999999898;94;2;0;0;0.40999999999999998;0.58999999999999997;0.0;0.0;0;4.516535128006581;32;50;19;2; 
2019_02_22 10:00;6;2;1;control;75;14;0;36;40;0;0;0.54000000000000004;0.46000000000000002;0.0;0.0;99;70;1;11;0.16;0.089999999999999997;0.080000000000000002;0.67000000000000004;0;5.016612421935861;32;50;19;2; 
2019_02_22 10:00;6;3;1;timed;1;2;1;59;32;0;0;0.080000000000000002;0.92000000000000004;0.0;0.0;33;38;85;1;0.28999999999999998;0.050000000000000003;0.070000000000000007;0.58999999999999997;0;2.5972761747389086;32;50;19;2; 
2019_02_22 10:00;6;3;1;timed;2;76;1;39;62;9;28;0.01;0.51000000000000001;0.26000000000000001;0.22;77;7;0;0;0.57999999999999996;0.41999999999999998;0.0;0.0;0;2.100070943640276;32;50;19;2; 
2019_02_22 10:00;6;3;1;timed;3;135;1;48;60;41;51;0.14000000000000001;0.40000000000000002;0.089999999999999997;0.37;94;1;85;65;0.64000000000000001;0.29999999999999999;0.01;0.050000000000000003;0;2.233212784736679;32;50;19;2; 
2019_02_22 10:00;6;3;1;timed;4;99;1;8;24;15;73;0.56000000000000005;0.35999999999999999;0.070000000000000007;0.0099999999999999499;88;12;0;0;0.52000000000000002;0.47999999999999998;0.0;0.0;1;2.1498248218076697;32;50;19;2; 
2019_02_22 10:00;6;3;1;timed;5;20;1;44;40;0;0;0.91000000000000003;0.089999999999999997;0.0;0.0;29;5;80;99;0.25;0.40000000000000002;0.26000000000000001;0.089999999999999997;0;2.0501364991559967;32;50;19;2; 
2019_02_22 10:00;6;3;1;timed;6;7;0;49;29;0;0;0.95999999999999996;0.040000000000000001;0.0;0.0;23;99;64;25;0.68999999999999995;0.12;0.059999999999999998;0.13;1;2.749872032040912;32;50;19;2; 
2019_02_22 10:00;6;3;1;timed;7;113;1;85;65;39;64;0.44;0.34000000000000002;0.13;0.089999999999999997;87;2;4;35;0.67000000000000004;0.17000000000000001;0.11;0.049999999999999899;0;1.499928479060145;32;50;19;2; 
2019_02_22 10:00;6;3;1;timed;8;12;0;53;68;0;0;0.31;0.68999999999999995;0.0;0.0;69;54;97;29;0.25;0.20999999999999999;0.20000000000000001;0.34000000000000002;1;1.8498182149405693;32;50;19;2; 
2019_02_22 10:00;6;3;1;timed;9;147;1;39;43;76;28;0.14000000000000001;0.10000000000000001;0.10000000000000001;0.66000000000000003;6;31;68;85;0.27000000000000002;0.20000000000000001;0.22;0.31;0;1.833423883760588;32;50;19;2; 
2019_02_22 10:00;6;3;1;timed;10;57;1;52;35;23;47;0.22;0.68000000000000005;0.040000000000000001;0.059999999999999998;71;7;0;0;0.28999999999999998;0.70999999999999996;0.0;0.0;0;2.416599849645536;32;50;19;2; 
2019_02_22 10:00;6;3;1;timed;11;104;1;55;85;93;3;0.87;0.02;0.089999999999999997;0.02;1;2;90;8;0.35999999999999999;0.070000000000000007;0.40000000000000002;0.17000000000000001;0;2.549879280351888;32;50;19;2; 
2019_02_22 10:00;6;3;1;timed;12;56;0;28;84;37;41;0.68000000000000005;0.28000000000000003;0.02;0.0199999999999999;6;95;0;0;0.72999999999999998;0.27000000000000002;0.0;0.0;0;3.2333285652703125;32;50;19;2; 
2019_02_22 10:00;6;3;1;timed;13;101;1;30;96;61;45;0.65000000000000002;0.14000000000000001;0.11;0.10000000000000001;3;98;63;89;0.75;0.19;0.040000000000000001;0.02;0;2.5332405592362193;32;50;19;2; 
2019_02_22 10:00;6;3;1;timed;14;148;1;37;63;55;10;0.72999999999999998;0.070000000000000007;0.029999999999999999;0.17000000000000001;80;14;23;70;0.46999999999999997;0.10000000000000001;0.23000000000000001;0.20000000000000001;1;3.0333832803935366;32;50;19;2; 
2019_02_22 10:00;6;3;1;timed;15;100;1;27;14;59;52;0.02;0.95999999999999996;0.01;0.01;17;98;0;0;0.48999999999999999;0.51000000000000001;0.0;0.0;1;2.9167072914151504;32;50;19;2; 
2019_02_22 10:00;6;3;1;timed;16;115;1;50;28;61;79;0.83999999999999997;0.040000000000000001;0.059999999999999998;0.059999999999999998;1;26;97;55;0.45000000000000001;0.080000000000000002;0.40999999999999998;0.060000000000000102;0;2.1332431891542;32;50;19;2; 
2019_02_22 10:00;6;3;1;timed;17;102;0;40;56;53;17;0.28000000000000003;0.26000000000000001;0.14999999999999999;0.31;1;76;29;62;0.68000000000000005;0.23000000000000001;0.050000000000000003;0.039999999999999897;0;2.833259994970831;32;50;19;2; 
2019_02_22 10:00;6;3;1;timed;18;19;0;22;53;0;0;0.13;0.87;0.0;0.0;4;93;96;65;0.46999999999999997;0.059999999999999998;0.26000000000000001;0.20999999999999999;1;3.28322580603799;32;50;19;2; 
2019_02_22 10:00;6;3;1;timed;19;106;0;85;69;22;61;0.10000000000000001;0.58999999999999997;0.17999999999999999;0.13;20;79;91;84;0.55000000000000004;0.14999999999999999;0.26000000000000001;0.039999999999999897;0;3.899885438208912;32;50;19;2; 
2019_02_22 10:00;6;3;1;timed;20;122;0;35;58;25;31;0.81999999999999995;0.070000000000000007;0.080000000000000002;0.029999999999999999;18;64;68;89;0.63;0.17000000000000001;0.11;0.089999999999999997;0;2.2332567236089744;32;50;19;2; 
2019_02_22 10:00;6;3;1;timed;21;91;1;74;81;86;48;0.93000000000000005;0.02;0.01;0.039999999999999897;7;64;0;0;0.13;0.87;0.0;0.0;0;1.5833886043728853;32;50;19;2; 
2019_02_22 10:00;6;3;1;timed;22;52;0;71;51;10;54;0.22;0.12;0.19;0.46999999999999997;91;1;0;0;0.29999999999999999;0.69999999999999996;0.0;0.0;0;1.3501661979853452;32;50;19;2; 
2019_02_22 10:00;6;3;1;timed;23;27;1;44;26;0;0;0.35999999999999999;0.64000000000000001;0.0;0.0;63;10;3;5;0.58999999999999997;0.19;0.14999999999999999;0.070000000000000007;0;3.666544044069269;32;50;19;2; 
2019_02_22 10:00;6;3;1;timed;24;26;1;76;41;0;0;0.57999999999999996;0.41999999999999998;0.0;0.0;61;79;84;2;0.13;0.029999999999999999;0.67000000000000004;0.17000000000000001;0;2.3500112894043923;32;50;19;2; 
2019_02_22 10:00;6;3;1;timed;25;94;0;84;86;93;39;0.78000000000000003;0.20000000000000001;0.01;0.0099999999999999603;9;83;0;0;0.46999999999999997;0.53000000000000003;0.0;0.0;0;1.2832870638831082;32;50;19;2; 
2019_02_22 10:00;6;3;1;timed;26;67;1;44;42;8;89;0.88;0.070000000000000007;0.029999999999999999;0.02;10;63;0;0;0.39000000000000001;0.60999999999999999;0.0;0.0;0;3.449864142287879;32;50;19;2; 
2019_02_22 10:00;6;3;1;timed;27;121;1;42;51;47;70;0.41999999999999998;0.17000000000000001;0.23999999999999999;0.17000000000000001;21;76;48;9;0.14999999999999999;0.34000000000000002;0.40999999999999998;0.10000000000000001;0;1.7667901017584882;32;50;19;2; 
2019_02_22 10:00;6;3;1;timed;28;126;0;16;55;51;42;0.68999999999999995;0.23999999999999999;0.01;0.060000000000000102;66;4;1;5;0.46999999999999997;0.38;0.089999999999999997;0.059999999999999998;0;1.3667779784782397;32;50;19;2; 
2019_02_22 10:00;6;3;1;timed;29;146;1;25;5;64;35;0.94999999999999996;0.02;0.01;0.02;47;97;12;79;0.20999999999999999;0.029999999999999999;0.02;0.73999999999999999;1;1.666601453253861;32;50;19;2; 
2019_02_22 10:00;6;3;1;timed;30;124;1;37;65;15;41;0.17999999999999999;0.45000000000000001;0.02;0.34999999999999998;40;7;98;30;0.070000000000000007;0.45000000000000001;0.45000000000000001;0.029999999999999898;0;2.0332437664528697;32;50;19;2; 
2019_02_22 10:00;6;3;1;timed;31;46;1;5;19;0;0;0.32000000000000001;0.68000000000000005;0.0;0.0;88;38;97;66;0.60999999999999999;0.20000000000000001;0.040000000000000001;0.14999999999999999;1;2.0498837704553807;32;50;19;2; 
2019_02_22 10:00;6;3;1;timed;32;109;0;75;28;16;56;0.19;0.070000000000000007;0.059999999999999998;0.68000000000000005;3;50;98;44;0.5;0.02;0.34999999999999998;0.13;0;2.4000515720499607;32;50;19;2; 
2019_02_22 10:00;6;3;1;timed;33;8;0;50;36;0;0;0.080000000000000002;0.92000000000000004;0.0;0.0;6;19;84;29;0.54000000000000004;0.070000000000000007;0.17000000000000001;0.22;0;2.2000389356144296;32;50;19;2; 
2019_02_22 10:00;6;3;1;timed;34;130;1;37;79;23;95;0.94999999999999996;0.029999999999999999;0.01;0.01;94;4;58;49;0.46000000000000002;0.5;0.029999999999999999;0.01;0;2.766470983666295;32;50;19;2; 
2019_02_22 10:00;6;3;1;timed;35;105;0;49;74;63;58;0.84999999999999998;0.080000000000000002;0.02;0.050000000000000003;97;5;86;8;0.25;0.52000000000000002;0.070000000000000007;0.16;0;1.2833752623500914;32;50;19;2; 
2019_02_22 10:00;6;3;1;timed;36;75;1;67;80;36;81;0.81999999999999995;0.080000000000000002;0.059999999999999998;0.040000000000000001;3;97;0;0;0.32000000000000001;0.68000000000000005;0.0;0.0;0;1.9667289722019632;32;50;19;2; 
2019_02_22 10:00;6;3;1;timed;37;42;0;70;48;0;0;0.79000000000000004;0.20999999999999999;0.0;0.0;51;8;12;67;0.19;0.26000000000000001;0.28999999999999998;0.26000000000000001;0;1.4832515920625156;32;50;19;2; 
2019_02_22 10:00;6;3;1;timed;38;150;0;25;21;78;38;0.84999999999999998;0.059999999999999998;0.050000000000000003;0.040000000000000001;31;43;64;95;0.059999999999999998;0.45000000000000001;0.13;0.35999999999999999;0;1.250041052377128;32;50;19;2; 
2019_02_22 10:00;6;3;1;timed;39;18;0;68;50;0;0;0.029999999999999999;0.96999999999999997;0.0;0.0;34;64;15;89;0.65000000000000002;0.029999999999999999;0.050000000000000003;0.27000000000000002;0;3.8498403447374585;32;50;19;2; 
2019_02_22 10:00;6;3;1;timed;40;132;0;27;70;21;19;0.64000000000000001;0.23000000000000001;0.029999999999999999;0.10000000000000001;11;85;55;6;0.39000000000000001;0.46999999999999997;0.029999999999999999;0.11;0;3.7998834497338976;32;50;19;2; 
2019_02_22 10:00;6;3;1;timed;41;60;0;64;59;57;96;0.83999999999999997;0.13;0.02;0.01;83;6;0;0;0.54000000000000004;0.46000000000000002;0.0;0.0;0;1.6498957013036488;32;50;19;2; 
2019_02_22 10:00;6;3;1;timed;42;81;1;67;38;52;65;0.27000000000000002;0.35999999999999999;0.01;0.35999999999999999;2;77;0;0;0.14000000000000001;0.85999999999999999;0.0;0.0;0;1.583183983928393;32;50;19;2; 
2019_02_22 10:00;6;3;1;timed;43;97;1;17;33;32;74;0.94999999999999996;0.01;0.029999999999999999;0.01;76;23;0;0;0.33000000000000002;0.67000000000000004;0.0;0.0;1;2.616618900514368;32;50;19;2; 
2019_02_22 10:00;6;3;1;timed;44;90;0;27;44;50;72;0.68000000000000005;0.28999999999999998;0.02;0.0099999999999999707;6;96;0;0;0.46999999999999997;0.53000000000000003;0.0;0.0;0;2.0999737649644885;32;50;19;2; 
2019_02_22 10:00;6;3;1;timed;45;131;1;83;41;81;88;0.23999999999999999;0.58999999999999997;0.10000000000000001;0.070000000000000007;82;97;4;17;0.26000000000000001;0.46999999999999997;0.11;0.16;0;2.966595551974933;32;50;19;2; 
2019_02_22 10:00;6;3;1;timed;46;83;1;17;12;7;41;0.65000000000000002;0.19;0.089999999999999997;0.070000000000000007;6;84;0;0;0.72999999999999998;0.27000000000000002;0.0;0.0;0;2.1166862520722134;32;50;19;2; 
2019_02_22 10:00;6;3;1;timed;47;110;0;47;44;23;52;0.13;0.27000000000000002;0.040000000000000001;0.56000000000000005;99;2;30;22;0.28999999999999998;0.5;0.11;0.10000000000000001;0;1.5665664304442544;32;50;19;2; 
2019_02_22 10:00;6;3;1;timed;48;65;1;75;64;59;52;0.59999999999999998;0.22;0.14000000000000001;0.040000000000000001;1;99;0;0;0.35999999999999999;0.64000000000000001;0.0;0.0;0;1.5166047246157177;32;50;19;2; 
2019_02_22 10:00;6;3;1;timed;49;22;1;32;55;0;0;0.39000000000000001;0.60999999999999999;0.0;0.0;93;72;59;22;0.20000000000000001;0.11;0.14000000000000001;0.55000000000000004;1;1.2501039138305714;32;50;19;2; 
2019_02_22 10:00;6;3;1;timed;50;143;0;88;44;56;73;0.95999999999999996;0.02;0.01;0.01;20;3;87;32;0.19;0.40000000000000002;0.28000000000000003;0.13;0;1.56671107593138;32;50;19;2; 
2019_02_22 10:00;6;3;1;timed;51;71;1;68;55;36;51;0.20000000000000001;0.75;0.02;0.029999999999999999;38;81;0;0;0.52000000000000002;0.47999999999999998;0.0;0.0;0;1.683231514884028;32;50;19;2; 
2019_02_22 10:00;6;3;1;timed;52;82;1;78;66;30;27;0.28999999999999998;0.58999999999999997;0.080000000000000002;0.040000000000000001;90;6;0;0;0.82999999999999996;0.17000000000000001;0.0;0.0;0;1.4498702360006064;32;50;19;2; 
2019_02_22 10:00;6;3;1;timed;53;125;1;37;41;10;35;0.91000000000000003;0.040000000000000001;0.029999999999999999;0.02;7;13;91;93;0.26000000000000001;0.39000000000000001;0.16;0.19;0;1.7166879198248353;32;50;19;2; 
2019_02_22 10:00;6;3;1;timed;54;62;0;12;45;16;50;0.20999999999999999;0.76000000000000001;0.02;0.01;92;15;0;0;0.20999999999999999;0.79000000000000004;0.0;0.0;0;3.9832073324678277;32;50;19;2; 
2019_02_22 10:00;6;3;1;timed;55;69;0;54;34;64;49;0.34000000000000002;0.25;0.20999999999999999;0.20000000000000001;14;98;0;0;0.62;0.38;0.0;0.0;0;1.1665937559328086;32;50;19;2; 
2019_02_22 10:00;6;3;1;timed;56;28;0;47;30;0;0;0.97999999999999998;0.02;0.0;0.0;55;48;77;13;0.070000000000000007;0.26000000000000001;0.42999999999999999;0.23999999999999999;1;1.4499112883777343;32;50;19;2; 
2019_02_22 10:00;6;3;1;timed;57;139;1;44;31;16;8;0.79000000000000004;0.070000000000000007;0.13;0.0099999999999999499;92;58;2;88;0.55000000000000004;0.070000000000000007;0.34000000000000002;0.039999999999999897;1;2.066586315189852;32;50;19;2; 
2019_02_22 10:00;6;3;1;timed;58;11;0;17;36;0;0;0.14000000000000001;0.85999999999999999;0.0;0.0;19;41;34;95;0.88;0.02;0.050000000000000003;0.050000000000000003;1;1.7165217859837867;32;50;19;2; 
2019_02_22 10:00;6;3;1;timed;59;36;0;70;17;0;0;0.33000000000000002;0.67000000000000004;0.0;0.0;84;1;12;88;0.22;0.27000000000000002;0.14000000000000001;0.37;1;3.56667932448363;32;50;19;2; 
2019_02_22 10:00;6;3;1;timed;60;21;0;64;28;0;0;0.080000000000000002;0.92000000000000004;0.0;0.0;50;1;88;13;0.57999999999999996;0.13;0.02;0.27000000000000002;1;3.649854648924702;32;50;19;2; 
2019_02_22 10:00;6;3;1;timed;61;41;0;99;40;0;0;0.89000000000000001;0.11;0.0;0.0;1;67;52;46;0.51000000000000001;0.38;0.029999999999999999;0.080000000000000002;0;1.2499836431934455;32;50;19;2; 
2019_02_22 10:00;6;3;1;timed;62;85;1;31;22;82;50;0.11;0.69999999999999996;0.01;0.17999999999999999;3;99;0;0;0.62;0.38;0.0;0.0;0;1.333274106726094;32;50;19;2; 
2019_02_22 10:00;6;3;1;timed;63;59;0;56;47;83;90;0.31;0.12;0.54000000000000004;0.029999999999999898;10;98;0;0;0.46999999999999997;0.53000000000000003;0.0;0.0;0;1.6501772949559381;32;50;19;2; 
2019_02_22 10:00;6;3;1;timed;64;86;1;56;30;57;88;0.20000000000000001;0.35999999999999999;0.080000000000000002;0.35999999999999999;98;2;0;0;0.77000000000000002;0.23000000000000001;0.0;0.0;0;1.5500582430604481;32;50;19;2; 
2019_02_22 10:00;6;3;1;timed;65;144;0;99;93;90;71;0.65000000000000002;0.32000000000000001;0.01;0.02;97;14;48;73;0.23000000000000001;0.46000000000000002;0.13;0.17999999999999999;0;1.1332030989415216;32;50;19;2; 
2019_02_22 10:00;6;3;1;timed;66;38;1;40;70;0;0;0.53000000000000003;0.46999999999999997;0.0;0.0;97;90;6;96;0.56999999999999995;0.070000000000000007;0.27000000000000002;0.089999999999999997;1;2.700041180665721;32;50;19;2; 
2019_02_22 10:00;6;3;1;timed;67;119;0;60;58;11;18;0.25;0.72999999999999998;0.01;0.01;96;23;42;85;0.44;0.48999999999999999;0.059999999999999998;0.010000000000000101;1;2.066550394359183;32;50;19;2; 
2019_02_22 10:00;6;3;1;timed;68;88;0;77;13;12;7;0.12;0.19;0.66000000000000003;0.029999999999999898;94;2;0;0;0.40999999999999998;0.58999999999999997;0.0;0.0;0;1.9833988033233254;32;50;19;2; 
2019_02_22 10:00;6;3;1;timed;69;138;1;8;20;43;51;0.38;0.5;0.02;0.10000000000000001;72;82;70;1;0.39000000000000001;0.050000000000000003;0.070000000000000007;0.48999999999999999;1;4.583378341278149;32;50;19;2; 
2019_02_22 10:00;6;3;1;timed;70;23;1;54;40;0;0;0.93000000000000005;0.070000000000000007;0.0;0.0;36;23;71;86;0.02;0.41999999999999998;0.19;0.37;1;1.250092367849902;32;50;19;2; 
2019_02_22 10:00;6;3;1;timed;71;29;0;44;51;0;0;0.78000000000000003;0.22;0.0;0.0;74;1;68;82;0.69999999999999996;0.28000000000000003;0.01;0.01;1;3.2164929210302944;32;50;19;2; 
2019_02_22 10:00;6;3;1;timed;72;134;1;57;48;50;55;0.02;0.62;0.17999999999999999;0.17999999999999999;80;96;15;18;0.23999999999999999;0.35999999999999999;0.33000000000000002;0.070000000000000007;0;2.1332816757585533;32;50;19;2; 
2019_02_22 10:00;6;3;1;timed;73;87;1;10;30;63;4;0.56999999999999995;0.12;0.16;0.14999999999999999;86;2;0;0;0.42999999999999999;0.56999999999999995;0.0;0.0;0;2.6499226419264232;32;50;19;2; 
2019_02_22 10:00;6;3;1;timed;74;112;1;70;44;98;64;0.02;0.75;0.12;0.11;33;2;63;85;0.23999999999999999;0.31;0.080000000000000002;0.37;0;1.9665888168192396;32;50;19;2; 
2019_02_22 10:00;6;3;1;timed;75;93;0;87;81;73;98;0.80000000000000004;0.040000000000000001;0.14999999999999999;0.0099999999999999499;5;71;0;0;0.51000000000000001;0.48999999999999999;0.0;0.0;0;1.90005991081307;32;50;19;2; 
2019_02_22 10:00;6;4;1;control;1;135;0;48;60;41;51;0.14000000000000001;0.40000000000000002;0.089999999999999997;0.37;94;1;85;65;0.64000000000000001;0.29999999999999999;0.01;0.050000000000000003;0;1.9823590235691881;32;50;19;2; 
2019_02_22 10:00;6;4;1;control;2;42;0;70;48;0;0;0.79000000000000004;0.20999999999999999;0.0;0.0;51;8;12;67;0.19;0.26000000000000001;0.28999999999999998;0.26000000000000001;0;1.9164750889040079;32;50;19;2; 
2019_02_22 10:00;6;4;1;control;3;8;1;50;36;0;0;0.080000000000000002;0.92000000000000004;0.0;0.0;6;19;84;29;0.54000000000000004;0.070000000000000007;0.17000000000000001;0.22;0;3.8333568529242257;32;50;19;2; 
2019_02_22 10:00;6;4;1;control;4;111;1;51;36;48;27;0.93000000000000005;0.01;0.01;0.049999999999999899;31;78;30;53;0.55000000000000004;0.16;0.029999999999999999;0.26000000000000001;0;3.966630831362636;32;50;19;2; 
2019_02_22 10:00;6;4;1;control;5;10;1;45;62;0;0;0.059999999999999998;0.93999999999999995;0.0;0.0;17;99;28;67;0.58999999999999997;0.34000000000000002;0.01;0.059999999999999998;0;3.216579836611345;32;50;19;2; 
2019_02_22 10:00;6;4;1;control;6;68;0;84;27;55;62;0.01;0.050000000000000003;0.40999999999999998;0.53000000000000003;9;82;0;0;0.37;0.63;0.0;0.0;0;1.5165861227569621;32;50;19;2; 
2019_02_22 10:00;6;4;1;control;7;35;1;33;37;0;0;0.88;0.12;0.0;0.0;63;4;79;98;0.16;0.46000000000000002;0.17000000000000001;0.20999999999999999;0;2.1832619834458455;32;50;19;2; 
2019_02_22 10:00;6;4;1;control;8;79;0;52;46;29;22;0.17999999999999999;0.51000000000000001;0.23999999999999999;0.070000000000000104;93;14;0;0;0.45000000000000001;0.55000000000000004;0.0;0.0;0;1.783496174431093;32;50;19;2; 
2019_02_22 10:00;6;4;1;control;9;15;1;77;81;0;0;0.28000000000000003;0.71999999999999997;0.0;0.0;98;14;87;18;0.55000000000000004;0.23000000000000001;0.16;0.059999999999999901;0;2.933245305917808;32;50;19;2; 
2019_02_22 10:00;6;4;1;control;10;140;0;36;32;26;27;0.39000000000000001;0.14999999999999999;0.19;0.27000000000000002;44;3;99;25;0.29999999999999999;0.34000000000000002;0.34000000000000002;0.0199999999999999;0;1.8498830007238212;32;50;19;2; 
2019_02_22 10:00;6;4;1;control;11;110;1;47;44;23;52;0.13;0.27000000000000002;0.040000000000000001;0.56000000000000005;99;2;30;22;0.28999999999999998;0.5;0.11;0.10000000000000001;0;1.7498835780234003;32;50;19;2; 
2019_02_22 10:00;6;4;1;control;12;52;1;71;51;10;54;0.22;0.12;0.19;0.46999999999999997;91;1;0;0;0.29999999999999999;0.69999999999999996;0.0;0.0;0;3.383228435955971;32;50;19;2; 
2019_02_22 10:00;6;4;1;control;13;93;0;87;81;73;98;0.80000000000000004;0.040000000000000001;0.14999999999999999;0.0099999999999999499;5;71;0;0;0.51000000000000001;0.48999999999999999;0.0;0.0;0;1.2500974993972704;32;50;19;2; 
2019_02_22 10:00;6;4;1;control;14;123;1;26;24;51;92;0.72999999999999998;0.16;0.070000000000000007;0.040000000000000001;6;90;82;49;0.64000000000000001;0.25;0.050000000000000003;0.059999999999999998;0;1.800065298937625;32;50;19;2; 
2019_02_22 10:00;6;4;1;control;15;122;1;35;58;25;31;0.81999999999999995;0.070000000000000007;0.080000000000000002;0.029999999999999999;18;64;68;89;0.63;0.17000000000000001;0.11;0.089999999999999997;0;4.566481759915405;32;50;19;2; 
2019_02_22 10:00;6;4;1;control;16;21;1;64;28;0;0;0.080000000000000002;0.92000000000000004;0.0;0.0;50;1;88;13;0.57999999999999996;0.13;0.02;0.27000000000000002;0;2.0832506940423627;32;50;19;2; 
2019_02_22 10:00;6;4;1;control;17;147;0;39;43;76;28;0.14000000000000001;0.10000000000000001;0.10000000000000001;0.66000000000000003;6;31;68;85;0.27000000000000002;0.20000000000000001;0.22;0.31;0;5.349869851133917;32;50;19;2; 
2019_02_22 10:00;6;4;1;control;18;83;1;17;12;7;41;0.65000000000000002;0.19;0.089999999999999997;0.070000000000000007;6;84;0;0;0.72999999999999998;0.27000000000000002;0.0;0.0;0;5.049828927045382;32;50;19;2; 
2019_02_22 10:00;6;4;1;control;19;38;0;40;70;0;0;0.53000000000000003;0.46999999999999997;0.0;0.0;97;90;6;96;0.56999999999999995;0.070000000000000007;0.27000000000000002;0.089999999999999997;0;1.2833576226566947;32;50;19;2; 
2019_02_22 10:00;6;4;1;control;20;141;1;93;28;60;91;0.81999999999999995;0.10000000000000001;0.01;0.070000000000000007;14;85;7;89;0.45000000000000001;0.070000000000000007;0.23999999999999999;0.23999999999999999;0;2.116699080939725;32;50;19;2; 
2019_02_22 10:00;6;4;1;control;21;17;1;81;52;0;0;0.059999999999999998;0.93999999999999995;0.0;0.0;34;3;69;41;0.01;0.22;0.75;0.02;0;2.8832252287393203;32;50;19;2; 
2019_02_22 10:00;6;4;1;control;22;133;1;59;88;60;36;0.67000000000000004;0.070000000000000007;0.12;0.14000000000000001;7;91;66;61;0.25;0.68999999999999995;0.01;0.0500000000000001;0;5.26649375490706;32;50;19;2; 
2019_02_22 10:00;6;4;1;control;23;103;1;38;49;89;50;0.89000000000000001;0.070000000000000007;0.01;0.029999999999999999;6;64;99;27;0.70999999999999996;0.17999999999999999;0.059999999999999998;0.050000000000000003;0;3.4665968348617753;32;50;19;2; 
2019_02_22 10:00;6;4;1;control;24;50;0;15;20;0;0;0.82999999999999996;0.17000000000000001;0.0;0.0;97;18;88;87;0.56999999999999995;0.39000000000000001;0.01;0.029999999999999999;1;2.2165506509363695;32;50;19;2; 
2019_02_22 10:00;6;4;1;control;25;98;0;27;10;31;79;0.23000000000000001;0.67000000000000004;0.070000000000000007;0.029999999999999999;25;99;0;0;0.38;0.62;0.0;0.0;1;4.183150693015705;32;50;19;2; 
2019_02_22 10:00;6;4;1;control;26;143;0;88;44;56;73;0.95999999999999996;0.02;0.01;0.01;20;3;87;32;0.19;0.40000000000000002;0.28000000000000003;0.13;0;2.0332049591270334;32;50;19;2; 
2019_02_22 10:00;6;4;1;control;27;71;1;68;55;36;51;0.20000000000000001;0.75;0.02;0.029999999999999999;38;81;0;0;0.52000000000000002;0.47999999999999998;0.0;0.0;0;2.016641607610836;32;50;19;2; 
2019_02_22 10:00;6;4;1;control;28;37;1;14;98;0;0;0.93000000000000005;0.070000000000000007;0.0;0.0;41;2;87;66;0.17999999999999999;0.48999999999999999;0.32000000000000001;0.010000000000000101;0;3.949888196415486;32;50;19;2; 
2019_02_22 10:00;6;4;1;control;29;138;0;8;20;43;51;0.38;0.5;0.02;0.10000000000000001;72;82;70;1;0.39000000000000001;0.050000000000000003;0.070000000000000007;0.48999999999999999;0;5.683325486342255;32;50;19;2; 
2019_02_22 10:00;6;4;1;control;30;84;0;43;10;5;45;0.78000000000000003;0.13;0.059999999999999998;0.029999999999999999;87;1;0;0;0.57999999999999996;0.41999999999999998;0.0;0.0;0;4.050062412443367;32;50;19;2; 
2019_02_22 10:00;6;4;1;control;31;7;1;49;29;0;0;0.95999999999999996;0.040000000000000001;0.0;0.0;23;99;64;25;0.68999999999999995;0.12;0.059999999999999998;0.13;0;6.633380778764149;32;50;19;2; 
2019_02_22 10:00;6;4;1;control;32;6;1;9;51;0;0;0.14999999999999999;0.84999999999999998;0.0;0.0;6;40;50;73;0.42999999999999999;0.26000000000000001;0.059999999999999998;0.25;0;3.916653730891994;32;50;19;2; 
2019_02_22 10:00;6;4;1;control;33;78;1;74;36;34;3;0.14999999999999999;0.64000000000000001;0.13;0.080000000000000002;1;83;0;0;0.41999999999999998;0.57999999999999996;0.0;0.0;0;3.1000860175608977;32;50;19;2; 
2019_02_22 10:00;6;4;1;control;34;47;1;2;40;0;0;0.45000000000000001;0.55000000000000004;0.0;0.0;93;89;11;56;0.58999999999999997;0.070000000000000007;0.28000000000000003;0.059999999999999998;1;1.8165859944683689;32;50;19;2; 
2019_02_22 10:00;6;4;1;control;35;72;1;63;82;51;61;0.01;0.96999999999999997;0.01;0.01;92;12;0;0;0.89000000000000001;0.11;0.0;0.0;0;2.2498964068909117;32;50;19;2; 
2019_02_22 10:00;6;4;1;control;36;41;0;99;40;0;0;0.89000000000000001;0.11;0.0;0.0;1;67;52;46;0.51000000000000001;0.38;0.029999999999999999;0.080000000000000002;0;2.1332140034792246;32;50;19;2; 
2019_02_22 10:00;6;4;1;control;37;67;1;44;42;8;89;0.88;0.070000000000000007;0.029999999999999999;0.02;10;63;0;0;0.39000000000000001;0.60999999999999999;0.0;0.0;0;2.116785675799292;32;50;19;2; 
2019_02_22 10:00;6;4;1;control;38;61;1;43;18;39;70;0.75;0.089999999999999997;0.089999999999999997;0.070000000000000007;16;66;0;0;0.64000000000000001;0.35999999999999999;0.0;0.0;0;2.8164163326891867;32;50;19;2; 
2019_02_22 10:00;6;4;1;control;39;46;1;5;19;0;0;0.32000000000000001;0.68000000000000005;0.0;0.0;88;38;97;66;0.60999999999999999;0.20000000000000001;0.040000000000000001;0.14999999999999999;1;1.599913148563246;32;50;19;2; 
2019_02_22 10:00;6;4;1;control;40;69;0;54;34;64;49;0.34000000000000002;0.25;0.20999999999999999;0.20000000000000001;14;98;0;0;0.62;0.38;0.0;0.0;0;1.2998860155075818;32;50;19;2; 
2019_02_22 10:00;6;4;1;control;41;97;0;17;33;32;74;0.94999999999999996;0.01;0.029999999999999999;0.01;76;23;0;0;0.33000000000000002;0.67000000000000004;0.0;0.0;1;2.949883064868118;32;50;19;2; 
2019_02_22 10:00;6;4;1;control;42;82;1;78;66;30;27;0.28999999999999998;0.58999999999999997;0.080000000000000002;0.040000000000000001;90;6;0;0;0.82999999999999996;0.17000000000000001;0.0;0.0;0;2.5500460556368125;32;50;19;2; 
2019_02_22 10:00;6;4;1;control;43;20;0;44;40;0;0;0.91000000000000003;0.089999999999999997;0.0;0.0;29;5;80;99;0.25;0.40000000000000002;0.26000000000000001;0.089999999999999997;0;2.3167239047988915;32;50;19;2; 
2019_02_22 10:00;6;4;1;control;44;145;0;91;89;90;74;0.57999999999999996;0.29999999999999999;0.11;0.010000000000000101;2;75;84;39;0.32000000000000001;0.27000000000000002;0.39000000000000001;0.0199999999999999;0;1.2666252508042817;32;50;19;2; 
2019_02_22 10:00;6;4;1;control;45;9;1;61;69;0;0;0.93999999999999995;0.060000000000000102;0.0;0.0;18;93;72;16;0.40999999999999998;0.34999999999999998;0.089999999999999997;0.14999999999999999;0;2.116678234028768;32;50;19;2; 
2019_02_22 10:00;6;4;1;control;46;150;0;25;21;78;38;0.84999999999999998;0.059999999999999998;0.050000000000000003;0.040000000000000001;31;43;64;95;0.059999999999999998;0.45000000000000001;0.13;0.35999999999999999;1;2.316595936840713;32;50;19;2; 
2019_02_22 10:00;6;4;1;control;47;139;1;44;31;16;8;0.79000000000000004;0.070000000000000007;0.13;0.0099999999999999499;92;58;2;88;0.55000000000000004;0.070000000000000007;0.34000000000000002;0.039999999999999897;0;1.7999921743903542;32;50;19;2; 
2019_02_22 10:00;6;4;1;control;48;24;0;35;27;0;0;0.070000000000000007;0.93000000000000005;0.0;0.0;62;3;81;95;0.35999999999999999;0.55000000000000004;0.01;0.080000000000000002;0;3.2498168679094306;32;50;19;2; 
2019_02_22 10:00;6;4;1;control;49;90;1;27;44;50;72;0.68000000000000005;0.28999999999999998;0.02;0.0099999999999999707;6;96;0;0;0.46999999999999997;0.53000000000000003;0.0;0.0;0;1.8665505867920729;32;50;19;2; 
2019_02_22 10:00;6;4;1;control;50;106;0;85;69;22;61;0.10000000000000001;0.58999999999999997;0.17999999999999999;0.13;20;79;91;84;0.55000000000000004;0.14999999999999999;0.26000000000000001;0.039999999999999897;1;3.7331662800897902;32;50;19;2; 
2019_02_22 10:00;6;4;1;control;51;144;1;99;93;90;71;0.65000000000000002;0.32000000000000001;0.01;0.02;97;14;48;73;0.23000000000000001;0.46000000000000002;0.13;0.17999999999999999;0;2.43322221395465;32;50;19;2; 
2019_02_22 10:00;6;4;1;control;52;1;1;22;51;0;0;0.26000000000000001;0.73999999999999999;0.0;0.0;14;11;92;31;0.29999999999999999;0.40999999999999998;0.14999999999999999;0.14000000000000001;0;6.699858690018118;32;50;19;2; 
2019_02_22 10:00;6;4;1;control;53;48;1;13;32;0;0;0.90000000000000002;0.10000000000000001;0.0;0.0;24;99;84;94;0.62;0.14999999999999999;0.20000000000000001;0.029999999999999999;1;2.783364037090905;32;50;19;2; 
2019_02_22 10:00;6;4;1;control;54;13;0;52;56;0;0;0.46999999999999997;0.53000000000000003;0.0;0.0;94;71;27;2;0.089999999999999997;0.31;0.57999999999999996;0.020000000000000101;0;3.1832331184923532;32;50;19;2; 
2019_02_22 10:00;6;4;1;control;55;74;0;66;47;52;44;0.41999999999999998;0.26000000000000001;0.17999999999999999;0.14000000000000001;17;99;0;0;0.47999999999999998;0.52000000000000002;0.0;0.0;0;2.0834004710759473;32;50;19;2; 
2019_02_22 10:00;6;4;1;control;56;100;0;27;14;59;52;0.02;0.95999999999999996;0.01;0.01;17;98;0;0;0.48999999999999999;0.51000000000000001;0.0;0.0;0;2.233332734652322;32;50;19;2; 
2019_02_22 10:00;6;4;1;control;57;44;1;79;74;0;0;0.71999999999999997;0.28000000000000003;0.0;0.0;3;67;15;36;0.41999999999999998;0.53000000000000003;0.02;0.029999999999999999;0;1.2833951470965985;32;50;19;2; 
2019_02_22 10:00;6;4;1;control;58;11;0;17;36;0;0;0.14000000000000001;0.85999999999999999;0.0;0.0;19;41;34;95;0.88;0.02;0.050000000000000003;0.050000000000000003;0;5.033178018504259;32;50;19;2; 
2019_02_22 10:00;6;4;1;control;59;2;1;59;32;0;0;0.080000000000000002;0.92000000000000004;0.0;0.0;33;38;85;1;0.28999999999999998;0.050000000000000003;0.070000000000000007;0.58999999999999997;0;3.216778042623446;32;50;19;2; 
2019_02_22 10:00;6;4;1;control;60;54;1;44;79;78;52;0.79000000000000004;0.19;0.01;0.0099999999999999603;96;1;0;0;0.28000000000000003;0.71999999999999997;0.0;0.0;0;1.9166582209945773;32;50;19;2; 
2019_02_22 10:00;6;4;1;control;61;91;0;74;81;86;48;0.93000000000000005;0.02;0.01;0.039999999999999897;7;64;0;0;0.13;0.87;0.0;0.0;0;1.4500726113928977;32;50;19;2; 
2019_02_22 10:00;6;4;1;control;62;99;1;8;24;15;73;0.56000000000000005;0.35999999999999999;0.070000000000000007;0.0099999999999999499;88;12;0;0;0.52000000000000002;0.47999999999999998;0.0;0.0;1;4.883388796806685;32;50;19;2; 
2019_02_22 10:00;6;4;1;control;63;49;1;21;30;0;0;0.53000000000000003;0.46999999999999997;0.0;0.0;93;99;89;25;0.44;0.02;0.11;0.42999999999999999;1;1.5000679929999023;32;50;19;2; 
2019_02_22 10:00;6;4;1;control;64;126;1;16;55;51;42;0.68999999999999995;0.23999999999999999;0.01;0.060000000000000102;66;4;1;5;0.46999999999999997;0.38;0.089999999999999997;0.059999999999999998;0;1.5331972618059808;32;50;19;2; 
2019_02_22 10:00;6;4;1;control;65;109;0;75;28;16;56;0.19;0.070000000000000007;0.059999999999999998;0.68000000000000005;3;50;98;44;0.5;0.02;0.34999999999999998;0.13;0;1.9665599518666568;32;50;19;2; 
2019_02_22 10:00;6;4;1;control;66;73;1;65;68;70;47;0.25;0.23000000000000001;0.20999999999999999;0.31;27;95;0;0;0.45000000000000001;0.55000000000000004;0.0;0.0;0;2.0998878115497064;32;50;19;2; 
2019_02_22 10:00;6;4;1;control;67;116;1;53;65;43;99;0.56999999999999995;0.37;0.050000000000000003;0.010000000000000101;57;72;11;87;0.67000000000000004;0.13;0.14999999999999999;0.050000000000000003;0;8.349841948345784;32;50;19;2; 
2019_02_22 10:00;6;4;1;control;68;57;0;52;35;23;47;0.22;0.68000000000000005;0.040000000000000001;0.059999999999999998;71;7;0;0;0.28999999999999998;0.70999999999999996;0.0;0.0;0;4.266534165841222;32;50;19;2; 
2019_02_22 10:00;6;4;1;control;69;26;1;76;41;0;0;0.57999999999999996;0.41999999999999998;0.0;0.0;61;79;84;2;0.13;0.029999999999999999;0.67000000000000004;0.17000000000000001;1;5.299810004465144;32;50;19;2; 
2019_02_22 10:00;6;4;1;control;70;58;0;37;58;76;34;0.20999999999999999;0.57999999999999996;0.19;0.020000000000000101;86;5;0;0;0.47999999999999998;0.52000000000000002;0.0;0.0;0;5.09999621548377;32;50;19;2; 
2019_02_22 10:00;6;4;1;control;71;3;1;53;40;0;0;0.31;0.68999999999999995;0.0;0.0;96;24;7;88;0.11;0.27000000000000002;0.58999999999999997;0.029999999999999999;0;2.5166983753515524;32;50;19;2; 
2019_02_22 10:00;6;4;1;control;72;29;0;44;51;0;0;0.78000000000000003;0.22;0.0;0.0;74;1;68;82;0.69999999999999996;0.28000000000000003;0.01;0.01;1;4.04986677220586;32;50;19;2; 
2019_02_22 10:00;6;4;1;control;73;146;1;25;5;64;35;0.94999999999999996;0.02;0.01;0.02;47;97;12;79;0.20999999999999999;0.029999999999999999;0.02;0.73999999999999999;1;2.1332454342054916;32;50;19;2; 
2019_02_22 10:00;6;4;1;control;74;115;1;50;28;61;79;0.83999999999999997;0.040000000000000001;0.059999999999999998;0.059999999999999998;1;26;97;55;0.45000000000000001;0.080000000000000002;0.40999999999999998;0.060000000000000102;0;1.683196876940201;32;50;19;2; 
2019_02_22 10:00;6;4;1;control;75;31;0;10;59;0;0;0.23999999999999999;0.76000000000000001;0.0;0.0;1;79;53;73;0.23000000000000001;0.58999999999999997;0.050000000000000003;0.13;1;2.483325037332179;32;50;19;2; 
