date;id;block;order;cond;trial;gameid;leftright;oa1;oa2;oa3;oa4;pa1;pa2;pa3;pa4;ob1;ob2;ob3;ob4;pb1;pb2;pb3;pb4;choice;rt;paytrial;payout;alter;geschlecht;comment
2019_03_18 11:42;40;0;1;practice;1;75;0;21;86;27;62;0.88;0.040000000000000001;0.070000000000000007;0.0099999999999999794;13;3;49;87;0.28999999999999998;0.39000000000000001;0.070000000000000007;0.25;0;8.071948274628085;37;64;24;2;nein
2019_03_18 11:42;40;0;1;practice;2;54;0;69;80;22;55;0.27000000000000002;0.31;0.059999999999999998;0.35999999999999999;52;2;49;90;0.059999999999999998;0.33000000000000002;0.20000000000000001;0.40999999999999998;0;13.16670007643188;37;64;24;2;nein
2019_03_18 11:42;40;0;1;practice;3;58;1;44;50;85;42;0.38;0.57999999999999996;0.02;0.02;37;88;19;12;0.20000000000000001;0.29999999999999999;0.46000000000000002;0.040000000000000001;0;11.200371024784545;37;64;24;2;nein
2019_03_18 11:42;40;0;1;practice;4;5;0;23;58;0;0;0.71999999999999997;0.28000000000000003;0.0;0.0;94;12;52;3;0.11;0.84999999999999998;0.029999999999999999;0.01;0;9.166572424403057;37;64;24;2;nein
2019_03_18 11:42;40;0;1;practice;5;8;0;20;44;0;0;0.26000000000000001;0.73999999999999999;0.0;0.0;99;3;69;24;0.20999999999999999;0.60999999999999999;0.12;0.060000000000000102;0;8.449928492414983;37;64;24;2;nein
2019_03_18 11:42;40;0;1;practice;6;20;0;32;11;0;0;0.40999999999999998;0.58999999999999997;0.0;0.0;1;86;42;65;0.45000000000000001;0.38;0.050000000000000003;0.12;0;7.233557985933658;37;64;24;2;nein
2019_03_18 11:42;40;0;1;practice;7;55;1;53;11;80;74;0.31;0.37;0.28000000000000003;0.039999999999999897;6;93;98;96;0.69999999999999996;0.22;0.050000000000000003;0.029999999999999999;0;7.350070930266156;37;64;24;2;nein
2019_03_18 11:42;40;0;1;practice;8;23;1;99;93;0;0;0.57999999999999996;0.41999999999999998;0.0;0.0;64;10;80;81;0.13;0.55000000000000004;0.02;0.29999999999999999;0;5.41661965244748;37;64;24;2;nein
2019_03_18 11:42;40;0;1;practice;9;25;1;7;18;0;0;0.20999999999999999;0.79000000000000004;0.0;0.0;92;45;33;13;0.41999999999999998;0.17999999999999999;0.22;0.17999999999999999;1;7.366502440301701;37;64;24;2;nein
2019_03_18 11:42;40;0;1;practice;10;22;1;84;87;0;0;0.17000000000000001;0.82999999999999996;0.0;0.0;3;24;41;83;0.68000000000000005;0.11;0.10000000000000001;0.11;0;4.483281272901877;37;64;24;2;nein
2019_03_18 11:42;40;0;1;practice;11;13;1;15;25;0;0;0.29999999999999999;0.69999999999999996;0.0;0.0;3;43;35;73;0.44;0.40000000000000002;0.01;0.14999999999999999;0;9.41657154238601;37;64;24;2;nein
2019_03_18 11:42;40;0;1;practice;12;63;0;24;82;6;96;0.91000000000000003;0.070000000000000007;0.01;0.0099999999999999603;73;10;71;22;0.31;0.51000000000000001;0.050000000000000003;0.13;0;12.267343436231386;37;64;24;2;nein
2019_03_18 11:42;40;0;1;practice;13;10;0;34;59;0;0;0.16;0.83999999999999997;0.0;0.0;21;61;96;7;0.19;0.01;0.5;0.29999999999999999;0;12.04994177079061;37;64;24;2;nein
2019_03_18 11:42;40;0;1;practice;14;61;0;51;48;56;88;0.91000000000000003;0.02;0.01;0.059999999999999998;78;21;14;82;0.55000000000000004;0.29999999999999999;0.070000000000000007;0.080000000000000002;0;12.599981846471564;37;64;24;2;nein
2019_03_18 11:42;40;0;1;practice;15;42;1;23;45;91;22;0.72999999999999998;0.02;0.20000000000000001;0.050000000000000003;2;86;0;0;0.40999999999999998;0.58999999999999997;0.0;0.0;0;4.783229217817279;37;64;24;2;nein
2019_03_18 11:42;40;0;1;practice;16;59;0;13;27;48;51;0.56999999999999995;0.13;0.13;0.17000000000000001;8;37;97;1;0.65000000000000002;0.16;0.14999999999999999;0.040000000000000001;0;14.150064259003557;37;64;24;2;nein
2019_03_18 11:42;40;0;1;practice;17;2;0;41;60;0;0;0.97999999999999998;0.02;0.0;0.0;10;14;97;6;0.54000000000000004;0.17000000000000001;0.12;0.17000000000000001;0;12.64995312476458;37;64;24;2;nein
2019_03_18 11:42;40;0;1;practice;18;6;0;42;59;0;0;0.35999999999999999;0.64000000000000001;0.0;0.0;77;19;6;7;0.44;0.14999999999999999;0.17999999999999999;0.23000000000000001;0;11.74987707879518;37;64;24;2;nein
2019_03_18 11:42;40;0;1;practice;19;52;1;17;61;57;59;0.070000000000000007;0.050000000000000003;0.33000000000000002;0.55000000000000004;12;93;94;62;0.71999999999999997;0.16;0.080000000000000002;0.040000000000000001;0;7.883428361392362;37;64;24;2;nein
2019_03_18 11:42;40;0;1;practice;20;57;0;39;68;59;91;0.73999999999999999;0.040000000000000001;0.14999999999999999;0.070000000000000007;9;22;40;84;0.29999999999999999;0.32000000000000001;0.040000000000000001;0.34000000000000002;0;12.966607769260008;37;64;24;2;nein
2019_03_18 11:42;40;0;1;practice;21;47;1;91;99;90;78;0.93000000000000005;0.040000000000000001;0.02;0.0099999999999999499;10;87;0;0;0.23000000000000001;0.77000000000000002;0.0;0.0;0;5.350048478905592;37;64;24;2;nein
2019_03_18 11:42;40;0;1;practice;22;3;0;20;70;0;0;0.13;0.87;0.0;0.0;95;19;80;73;0.31;0.57999999999999996;0.029999999999999999;0.080000000000000002;0;11.833467988046323;37;64;24;2;nein
2019_03_18 11:42;40;0;1;practice;23;26;1;24;46;74;59;0.29999999999999999;0.11;0.25;0.34000000000000002;91;6;0;0;0.28999999999999998;0.70999999999999996;0.0;0.0;0;10.033363043969075;37;64;24;2;nein
2019_03_18 11:42;40;0;1;practice;24;37;1;50;66;99;12;0.26000000000000001;0.71999999999999997;0.01;0.01;22;90;0;0;0.37;0.63;0.0;0.0;1;8.066758482043952;37;64;24;2;nein
2019_03_18 11:42;40;0;1;practice;25;72;0;86;85;97;43;0.51000000000000001;0.14999999999999999;0.33000000000000002;0.0099999999999999499;72;29;10;90;0.01;0.11;0.65000000000000002;0.23000000000000001;0;4.966564470207231;37;64;24;2;nein
2019_03_18 11:42;40;0;1;practice;26;64;0;44;60;96;45;0.53000000000000003;0.10000000000000001;0.029999999999999999;0.34000000000000002;88;20;43;31;0.47999999999999998;0.38;0.050000000000000003;0.089999999999999997;1;14.066748218565408;37;64;24;2;nein
2019_03_18 11:42;40;0;1;practice;27;68;0;39;58;40;8;0.48999999999999999;0.44;0.02;0.050000000000000003;92;83;51;2;0.57999999999999996;0.13;0.02;0.27000000000000002;1;15.199946373319108;37;64;24;2;nein
2019_03_18 11:42;40;0;1;practice;28;43;0;11;17;21;44;0.16;0.46000000000000002;0.25;0.13;2;66;0;0;0.44;0.56000000000000005;0.0;0.0;1;7.116638030489412;37;64;24;2;nein
2019_03_18 11:42;40;0;1;practice;29;44;1;69;48;22;63;0.39000000000000001;0.40999999999999998;0.19;0.01;1;94;0;0;0.22;0.78000000000000003;0.0;0.0;0;7.283430157502153;37;64;24;2;nein
2019_03_18 11:42;40;0;1;practice;30;34;1;57;23;66;79;0.56000000000000005;0.23000000000000001;0.13;0.079999999999999905;85;9;0;0;0.56000000000000005;0.44;0.0;0.0;0;3.049951392802541;37;64;24;2;nein
2019_03_18 11:42;40;0;1;practice;31;65;0;35;15;77;1;0.62;0.33000000000000002;0.029999999999999999;0.02;68;3;25;96;0.38;0.28000000000000003;0.28000000000000003;0.059999999999999901;1;12.199962410006265;37;64;24;2;nein
2019_03_18 11:42;40;0;1;practice;32;35;1;84;95;4;35;0.89000000000000001;0.050000000000000003;0.01;0.050000000000000003;5;98;0;0;0.19;0.81000000000000005;0.0;0.0;0;8.899890020402381;37;64;24;2;nein
2019_03_18 11:42;40;0;1;practice;33;53;1;47;24;95;38;0.57999999999999996;0.28000000000000003;0.02;0.12;8;22;93;96;0.54000000000000004;0.34000000000000002;0.10000000000000001;0.0199999999999999;0;6.399946309171355;37;64;24;2;nein
2019_03_18 11:42;40;0;1;practice;34;56;1;47;52;64;10;0.77000000000000002;0.040000000000000001;0.11;0.080000000000000002;1;5;12;99;0.14000000000000001;0.28999999999999998;0.27000000000000002;0.29999999999999999;1;10.133404386546317;37;64;24;2;nein
2019_03_18 11:42;40;0;1;practice;35;40;1;29;65;30;41;0.70999999999999996;0.01;0.14999999999999999;0.13;2;59;0;0;0.32000000000000001;0.68000000000000005;0.0;0.0;0;7.983429932988656;37;64;24;2;nein
2019_03_18 11:42;40;0;1;practice;36;19;1;25;73;0;0;0.69999999999999996;0.29999999999999999;0.0;0.0;87;84;1;86;0.040000000000000001;0.59999999999999998;0.28000000000000003;0.080000000000000002;0;13.333416189549098;37;64;24;2;nein
2019_03_18 11:42;40;0;1;practice;37;41;0;19;54;51;8;0.76000000000000001;0.070000000000000007;0.16;0.0099999999999999794;2;77;0;0;0.54000000000000004;0.46000000000000002;0.0;0.0;0;7.899939413397078;37;64;24;2;nein
2019_03_18 11:42;40;0;1;practice;38;24;0;19;38;0;0;0.89000000000000001;0.11;0.0;0.0;45;76;95;57;0.29999999999999999;0.22;0.40000000000000002;0.080000000000000002;1;2.866629611229655;37;64;24;2;nein
2019_03_18 11:42;40;0;1;practice;39;21;0;59;69;0;0;0.34000000000000002;0.66000000000000003;0.0;0.0;64;18;5;24;0.14999999999999999;0.040000000000000001;0.51000000000000001;0.29999999999999999;0;4.816581677572685;37;64;24;2;nein
2019_03_18 11:42;40;0;1;practice;40;27;1;68;43;98;36;0.54000000000000004;0.44;0.01;0.0099999999999999603;97;13;0;0;0.27000000000000002;0.72999999999999998;0.0;0.0;0;8.0834359948567;37;64;24;2;nein
2019_03_18 11:42;40;0;1;practice;41;48;0;20;25;24;35;0.32000000000000001;0.13;0.48999999999999999;0.059999999999999901;44;76;0;0;0.29999999999999999;0.69999999999999996;0.0;0.0;1;6.083632604637387;37;64;24;2;nein
2019_03_18 11:42;40;0;1;practice;42;36;1;56;89;86;77;0.66000000000000003;0.080000000000000002;0.14999999999999999;0.11;29;91;0;0;0.40999999999999998;0.58999999999999997;0.0;0.0;0;15.750095819203125;37;64;24;2;nein
2019_03_18 11:42;40;0;1;practice;43;60;1;39;93;27;78;0.85999999999999999;0.02;0.11;0.01;22;5;62;95;0.059999999999999998;0.56999999999999995;0.14000000000000001;0.23000000000000001;0;8.633426356807831;37;64;24;2;nein
2019_03_18 11:42;40;0;1;practice;44;32;1;21;86;16;78;0.45000000000000001;0.41999999999999998;0.050000000000000003;0.080000000000000099;95;9;0;0;0.42999999999999999;0.56999999999999995;0.0;0.0;0;10.183274633713154;37;64;24;2;nein
2019_03_18 11:42;40;0;1;practice;45;49;0;14;31;42;22;0.77000000000000002;0.089999999999999997;0.02;0.12;87;28;0;0;0.68000000000000005;0.32000000000000001;0.0;0.0;1;4.383269117093732;37;64;24;2;nein
2019_03_18 11:42;40;0;1;practice;46;51;1;38;13;51;84;0.91000000000000003;0.070000000000000007;0.01;0.0099999999999999603;4;89;35;16;0.80000000000000004;0.089999999999999997;0.059999999999999998;0.050000000000000003;0;5.999972737632561;37;64;24;2;nein
2019_03_18 11:42;40;0;1;practice;47;38;1;51;89;10;60;0.57999999999999996;0.029999999999999999;0.080000000000000002;0.31;8;84;0;0;0.33000000000000002;0.67000000000000004;0.0;0.0;1;15.116704422373004;37;64;24;2;nein
2019_03_18 11:42;40;0;1;practice;48;70;0;21;42;14;63;0.96999999999999997;0.01;0.01;0.01;70;2;6;76;0.23999999999999999;0.42999999999999999;0.01;0.32000000000000001;0;4.5000899658134585;37;64;24;2;nein
2019_03_18 11:42;40;0;1;practice;49;30;1;54;78;85;25;0.20999999999999999;0.60999999999999999;0.089999999999999997;0.090000000000000094;87;20;0;0;0.58999999999999997;0.40999999999999998;0.0;0.0;0;12.616597778405776;37;64;24;2;nein
2019_03_18 11:42;40;0;1;practice;50;71;1;94;87;26;75;0.71999999999999997;0.23999999999999999;0.02;0.02;90;27;12;83;0.16;0.73999999999999999;0.02;0.080000000000000002;0;4.700153086212595;37;64;24;2;nein
2019_03_18 11:42;40;0;1;practice;51;15;1;24;59;0;0;0.56999999999999995;0.42999999999999999;0.0;0.0;9;8;80;22;0.31;0.10000000000000001;0.55000000000000004;0.039999999999999897;0;8.066641734963923;37;64;24;2;nein
2019_03_18 11:42;40;0;1;practice;52;66;0;44;18;63;36;0.47999999999999998;0.10000000000000001;0.029999999999999999;0.39000000000000001;13;93;61;53;0.52000000000000002;0.45000000000000001;0.02;0.0099999999999999707;1;13.599918661924676;37;64;24;2;nein
2019_03_18 11:42;40;0;1;practice;53;39;0;53;65;48;75;0.92000000000000004;0.029999999999999999;0.01;0.040000000000000001;16;83;0;0;0.31;0.68999999999999995;0.0;0.0;0;7.599940471818627;37;64;24;2;nein
2019_03_18 11:42;40;0;1;practice;54;14;1;92;56;0;0;0.11;0.89000000000000001;0.0;0.0;97;31;51;4;0.58999999999999997;0.22;0.080000000000000002;0.11;0;11.383289323319332;37;64;24;2;nein
2019_03_18 11:42;40;0;1;practice;55;50;1;17;12;21;14;0.55000000000000004;0.34000000000000002;0.059999999999999998;0.049999999999999899;13;93;0;0;0.28999999999999998;0.70999999999999996;0.0;0.0;1;2.449933944886652;37;64;24;2;nein
2019_03_18 11:42;40;0;1;practice;56;31;1;72;59;40;92;0.59999999999999998;0.34999999999999998;0.02;0.029999999999999999;97;29;0;0;0.38;0.62;0.0;0.0;0;7.383293492857774;37;64;24;2;nein
2019_03_18 11:42;40;0;1;practice;57;18;0;47;36;0;0;0.089999999999999997;0.91000000000000003;0.0;0.0;2;44;81;9;0.20000000000000001;0.25;0.51000000000000001;0.040000000000000001;0;9.450332616921514;37;64;24;2;nein
2019_03_18 11:42;40;0;1;practice;58;28;0;37;83;75;8;0.83999999999999997;0.070000000000000007;0.01;0.080000000000000002;94;2;0;0;0.19;0.81000000000000005;0.0;0.0;0;5.183415115090611;37;64;24;2;nein
2019_03_18 11:42;40;0;1;practice;59;7;1;13;31;0;0;0.51000000000000001;0.48999999999999999;0.0;0.0;8;79;42;18;0.85999999999999999;0.089999999999999997;0.02;0.029999999999999999;1;6.116735854278886;37;64;24;2;nein
2019_03_18 11:42;40;0;1;practice;60;4;0;40;59;0;0;0.19;0.81000000000000005;0.0;0.0;10;88;13;45;0.56000000000000005;0.28999999999999998;0.01;0.14000000000000001;0;10.199886075377435;37;64;24;2;nein
2019_03_18 11:42;40;0;1;practice;61;69;0;38;74;27;73;0.22;0.19;0.45000000000000001;0.14000000000000001;1;97;79;84;0.28000000000000003;0.45000000000000001;0.17000000000000001;0.10000000000000001;0;14.100464390377965;37;64;24;2;nein
2019_03_18 11:42;40;0;1;practice;62;62;1;65;52;74;55;0.16;0.12;0.14999999999999999;0.56999999999999995;72;86;2;68;0.12;0.53000000000000003;0.22;0.13;0;10.14991319341425;37;64;24;2;nein
2019_03_18 11:42;40;0;1;practice;63;17;0;27;61;0;0;0.68999999999999995;0.31;0.0;0.0;3;91;69;43;0.29999999999999999;0.33000000000000002;0.27000000000000002;0.099999999999999895;0;7.449876212813251;37;64;24;2;nein
2019_03_18 11:42;40;0;1;practice;64;33;1;54;82;55;71;0.56000000000000005;0.20999999999999999;0.02;0.20999999999999999;13;99;0;0;0.5;0.5;0.0;0.0;0;11.1665615194579;37;64;24;2;nein
2019_03_18 11:42;40;0;1;practice;65;9;0;57;44;0;0;0.14999999999999999;0.84999999999999998;0.0;0.0;38;35;64;95;0.34000000000000002;0.45000000000000001;0.089999999999999997;0.12;0;6.983526794578211;37;64;24;2;nein
2019_03_18 11:42;40;0;1;practice;66;11;0;10;44;0;0;0.48999999999999999;0.51000000000000001;0.0;0.0;88;12;54;50;0.17000000000000001;0.75;0.02;0.059999999999999998;0;9.083442409531926;37;64;24;2;nein
2019_03_18 11:42;40;0;1;practice;67;12;0;45;86;0;0;0.97999999999999998;0.02;0.0;0.0;6;23;95;81;0.14999999999999999;0.40999999999999998;0.050000000000000003;0.39000000000000001;0;3.24992566995752;37;64;24;2;nein
2019_03_18 11:42;40;0;1;practice;68;73;0;99;88;95;28;0.83999999999999997;0.14000000000000001;0.01;0.01;90;93;10;74;0.080000000000000002;0.46000000000000002;0.34999999999999998;0.11;0;6.266601258366791;37;64;24;2;nein
2019_03_18 11:42;40;0;1;practice;69;29;0;66;40;92;49;0.46999999999999997;0.10000000000000001;0.34000000000000002;0.089999999999999997;8;94;0;0;0.44;0.56000000000000005;0.0;0.0;0;7.316605892969164;37;64;24;2;nein
2019_03_18 11:42;40;0;1;practice;70;16;1;50;42;0;0;0.32000000000000001;0.68000000000000005;0.0;0.0;97;2;56;31;0.35999999999999999;0.16;0.16;0.32000000000000001;1;13.216725879459773;37;64;24;2;nein
2019_03_18 11:42;40;0;1;practice;71;67;1;74;31;10;77;0.11;0.070000000000000007;0.77000000000000002;0.050000000000000003;2;23;8;97;0.56999999999999995;0.01;0.059999999999999998;0.35999999999999999;0;5.133281545526188;37;64;24;2;nein
2019_03_18 11:42;40;0;1;practice;72;74;0;36;46;10;12;0.11;0.19;0.65000000000000002;0.049999999999999899;92;24;79;19;0.51000000000000001;0.40999999999999998;0.02;0.059999999999999998;1;8.866725189882345;37;64;24;2;nein
2019_03_18 11:42;40;0;1;practice;73;1;1;67;36;0;0;0.14999999999999999;0.84999999999999998;0.0;0.0;1;4;81;77;0.25;0.54000000000000004;0.14000000000000001;0.070000000000000007;0;4.016680078682839;37;64;24;2;nein
2019_03_18 11:42;40;0;1;practice;74;46;1;79;57;98;81;0.67000000000000004;0.070000000000000007;0.20999999999999999;0.050000000000000003;1;76;0;0;0.56000000000000005;0.44;0.0;0.0;0;3.31670884849882;37;64;24;2;nein
2019_03_18 11:42;40;0;1;practice;75;45;0;37;40;75;23;0.54000000000000004;0.38;0.059999999999999998;0.02;1;90;0;0;0.28000000000000003;0.71999999999999997;0.0;0.0;1;7.766610399277852;37;64;24;2;nein
2019_03_18 11:42;40;1;1;timed;1;7;0;49;29;0;0;0.95999999999999996;0.040000000000000001;0.0;0.0;23;99;64;25;0.68999999999999995;0.12;0.059999999999999998;0.13;0;4.473236213019845;37;64;24;2;nein
2019_03_18 11:42;40;1;1;timed;2;16;1;64;53;0;0;0.65000000000000002;0.34999999999999998;0.0;0.0;29;17;81;46;0.10000000000000001;0.01;0.44;0.45000000000000001;0;3.1501774780135747;37;64;24;2;nein
2019_03_18 11:42;40;1;1;timed;3;64;0;48;39;34;19;0.46000000000000002;0.5;0.02;0.02;13;92;0;0;0.68999999999999995;0.31;0.0;0.0;0;3.983350391023123;37;64;24;2;nein
2019_03_18 11:42;40;1;1;timed;4;109;1;75;28;16;56;0.19;0.070000000000000007;0.059999999999999998;0.68000000000000005;3;50;98;44;0.5;0.02;0.34999999999999998;0.13;0;4.4666608506940975;37;64;24;2;nein
2019_03_18 11:42;40;1;1;timed;5;89;0;26;41;13;56;0.059999999999999998;0.40999999999999998;0.050000000000000003;0.47999999999999998;5;97;0;0;0.37;0.63;0.0;0.0;0;5.7833953578920045;37;64;24;2;nein
2019_03_18 11:42;40;1;1;timed;6;49;0;21;30;0;0;0.53000000000000003;0.46999999999999997;0.0;0.0;93;99;89;25;0.44;0.02;0.11;0.42999999999999999;1;3.083298400084459;37;64;24;2;nein
2019_03_18 11:42;40;1;1;timed;7;96;0;51;54;39;7;0.17000000000000001;0.26000000000000001;0.10000000000000001;0.46999999999999997;24;96;0;0;0.28000000000000003;0.71999999999999997;0.0;0.0;1;4.616604513814309;37;64;24;2;nein
2019_03_18 11:42;40;1;1;timed;8;43;1;60;83;0;0;0.23000000000000001;0.77000000000000002;0.0;0.0;72;5;70;12;0.29999999999999999;0.40999999999999998;0.12;0.17000000000000001;0;3.483274537493344;37;64;24;2;nein
2019_03_18 11:42;40;1;1;timed;9;1;1;22;51;0;0;0.26000000000000001;0.73999999999999999;0.0;0.0;14;11;92;31;0.29999999999999999;0.40999999999999998;0.14999999999999999;0.14000000000000001;0;4.149943663118393;37;64;24;2;nein
2019_03_18 11:42;40;1;1;timed;10;147;1;39;43;76;28;0.14000000000000001;0.10000000000000001;0.10000000000000001;0.66000000000000003;6;31;68;85;0.27000000000000002;0.20000000000000001;0.22;0.31;0;4.933300212229369;37;64;24;2;nein
2019_03_18 11:42;40;1;1;timed;11;108;0;48;72;39;70;0.14000000000000001;0.66000000000000003;0.02;0.17999999999999999;81;44;98;8;0.59999999999999998;0.029999999999999999;0.050000000000000003;0.32000000000000001;1;5.400048302501091;37;64;24;2;nein
2019_03_18 11:42;40;1;1;timed;12;148;1;37;63;55;10;0.72999999999999998;0.070000000000000007;0.029999999999999999;0.17000000000000001;80;14;23;70;0.46999999999999997;0.10000000000000001;0.23000000000000001;0.20000000000000001;1;3.8000731914380594;37;64;24;2;nein
2019_03_18 11:42;40;1;1;timed;13;135;0;48;60;41;51;0.14000000000000001;0.40000000000000002;0.089999999999999997;0.37;94;1;85;65;0.64000000000000001;0.29999999999999999;0.01;0.050000000000000003;0;4.266668933185429;37;64;24;2;nein
2019_03_18 11:42;40;1;1;timed;14;140;1;36;32;26;27;0.39000000000000001;0.14999999999999999;0.19;0.27000000000000002;44;3;99;25;0.29999999999999999;0.34000000000000002;0.34000000000000002;0.0199999999999999;0;3.600153118284652;37;64;24;2;nein
2019_03_18 11:42;40;1;1;timed;15;121;0;42;51;47;70;0.41999999999999998;0.17000000000000001;0.23999999999999999;0.17000000000000001;21;76;48;9;0.14999999999999999;0.34000000000000002;0.40999999999999998;0.10000000000000001;0;5.633251236187789;37;64;24;2;nein
2019_03_18 11:42;40;1;1;timed;16;87;1;10;30;63;4;0.56999999999999995;0.12;0.16;0.14999999999999999;86;2;0;0;0.42999999999999999;0.56999999999999995;0.0;0.0;0;4.850102843272907;37;64;24;2;nein
2019_03_18 11:42;40;1;1;timed;17;5;0;70;5;0;0;0.98999999999999999;0.01;0.0;0.0;92;87;47;1;0.44;0.02;0.16;0.38;0;2.5166157715684676;37;64;24;2;nein
2019_03_18 11:42;40;1;1;timed;18;50;1;15;20;0;0;0.82999999999999996;0.17000000000000001;0.0;0.0;97;18;88;87;0.56999999999999995;0.39000000000000001;0.01;0.029999999999999999;1;2.9166679228728754;37;64;24;2;nein
2019_03_18 11:42;40;1;1;timed;19;122;1;35;58;25;31;0.81999999999999995;0.070000000000000007;0.080000000000000002;0.029999999999999999;18;64;68;89;0.63;0.17000000000000001;0.11;0.089999999999999997;0;4.333425170092596;37;64;24;2;nein
2019_03_18 11:42;40;1;1;timed;20;44;0;79;74;0;0;0.71999999999999997;0.28000000000000003;0.0;0.0;3;67;15;36;0.41999999999999998;0.53000000000000003;0.02;0.029999999999999999;0;2.4500872556127433;37;64;24;2;nein
2019_03_18 11:42;40;1;1;timed;21;20;1;44;40;0;0;0.91000000000000003;0.089999999999999997;0.0;0.0;29;5;80;99;0.25;0.40000000000000002;0.26000000000000001;0.089999999999999997;0;5.6999625703720085;37;64;24;2;nein
2019_03_18 11:42;40;1;1;timed;22;114;0;57;39;79;97;0.77000000000000002;0.02;0.13;0.080000000000000002;92;36;6;1;0.54000000000000004;0.12;0.13;0.20999999999999999;0;3.500051477765737;37;64;24;2;nein
2019_03_18 11:42;40;1;1;timed;23;31;1;10;59;0;0;0.23999999999999999;0.76000000000000001;0.0;0.0;1;79;53;73;0.23000000000000001;0.58999999999999997;0.050000000000000003;0.13;1;5.633252198389528;37;64;24;2;nein
2019_03_18 11:42;40;1;1;timed;24;86;0;56;30;57;88;0.20000000000000001;0.35999999999999999;0.080000000000000002;0.35999999999999999;98;2;0;0;0.77000000000000002;0.23000000000000001;0.0;0.0;1;2.5833056165938615;37;64;24;2;nein
2019_03_18 11:42;40;1;1;timed;25;48;1;13;32;0;0;0.90000000000000002;0.10000000000000001;0.0;0.0;24;99;84;94;0.62;0.14999999999999999;0.20000000000000001;0.029999999999999999;1;3.066599398111066;37;64;24;2;nein
2019_03_18 11:42;40;1;1;timed;26;29;1;44;51;0;0;0.78000000000000003;0.22;0.0;0.0;74;1;68;82;0.69999999999999996;0.28000000000000003;0.01;0.01;0;3.016606951390713;37;64;24;2;nein
2019_03_18 11:42;40;1;1;timed;27;106;0;85;69;22;61;0.10000000000000001;0.58999999999999997;0.17999999999999999;0.13;20;79;91;84;0.55000000000000004;0.14999999999999999;0.26000000000000001;0.039999999999999897;1;5.400087752750551;37;64;24;2;nein
2019_03_18 11:42;40;1;1;timed;28;25;0;50;53;0;0;0.82999999999999996;0.17000000000000001;0.0;0.0;83;16;97;4;0.45000000000000001;0.29999999999999999;0.11;0.14000000000000001;0;3.7832683473334328;37;64;24;2;nein
2019_03_18 11:42;40;1;1;timed;29;3;0;53;40;0;0;0.31;0.68999999999999995;0.0;0.0;96;24;7;88;0.11;0.27000000000000002;0.58999999999999997;0.029999999999999999;0;3.9834382720655412;37;64;24;2;nein
2019_03_18 11:42;40;1;1;timed;30;37;1;14;98;0;0;0.93000000000000005;0.070000000000000007;0.0;0.0;41;2;87;66;0.17999999999999999;0.48999999999999999;0.32000000000000001;0.010000000000000101;0;3.9501053770691215;37;64;24;2;nein
2019_03_18 11:42;40;1;1;timed;31;52;0;71;51;10;54;0.22;0.12;0.19;0.46999999999999997;91;1;0;0;0.29999999999999999;0.69999999999999996;0.0;0.0;0;3.05010309986028;37;64;24;2;nein
2019_03_18 11:42;40;1;1;timed;32;32;0;19;81;0;0;0.93000000000000005;0.070000000000000007;0.0;0.0;1;65;41;68;0.45000000000000001;0.050000000000000003;0.059999999999999998;0.44;1;4.216611056781403;37;64;24;2;nein
2019_03_18 11:42;40;1;1;timed;33;36;0;70;17;0;0;0.33000000000000002;0.67000000000000004;0.0;0.0;84;1;12;88;0.22;0.27000000000000002;0.14000000000000001;0.37;1;4.750142004861118;37;64;24;2;nein
2019_03_18 11:42;40;1;1;timed;34;150;1;25;21;78;38;0.84999999999999998;0.059999999999999998;0.050000000000000003;0.040000000000000001;31;43;64;95;0.059999999999999998;0.45000000000000001;0.13;0.35999999999999999;1;4.100628285315906;37;64;24;2;nein
2019_03_18 11:42;40;1;1;timed;35;60;0;64;59;57;96;0.83999999999999997;0.13;0.02;0.01;83;6;0;0;0.54000000000000004;0.46000000000000002;0.0;0.0;0;3.316617760117879;37;64;24;2;nein
2019_03_18 11:42;40;1;1;timed;36;149;0;14;89;73;53;0.93999999999999995;0.01;0.01;0.040000000000000001;97;45;6;13;0.34000000000000002;0.01;0.40999999999999998;0.23999999999999999;1;4.666835265699774;37;64;24;2;nein
2019_03_18 11:42;40;1;1;timed;37;56;0;28;84;37;41;0.68000000000000005;0.28000000000000003;0.02;0.0199999999999999;6;95;0;0;0.72999999999999998;0.27000000000000002;0.0;0.0;0;3.183399719871886;37;64;24;2;nein
2019_03_18 11:42;40;1;1;timed;38;139;1;44;31;16;8;0.79000000000000004;0.070000000000000007;0.13;0.0099999999999999499;92;58;2;88;0.55000000000000004;0.070000000000000007;0.34000000000000002;0.039999999999999897;0;4.099944801724632;37;64;24;2;nein
2019_03_18 11:42;40;1;1;timed;39;132;1;27;70;21;19;0.64000000000000001;0.23000000000000001;0.029999999999999999;0.10000000000000001;11;85;55;6;0.39000000000000001;0.46999999999999997;0.029999999999999999;0.11;1;4.900242506777431;37;64;24;2;nein
2019_03_18 11:42;40;1;1;timed;40;90;0;27;44;50;72;0.68000000000000005;0.28999999999999998;0.02;0.0099999999999999707;6;96;0;0;0.46999999999999997;0.53000000000000003;0.0;0.0;0;2.4500779543341196;37;64;24;2;nein
2019_03_18 11:42;40;1;1;timed;41;133;1;59;88;60;36;0.67000000000000004;0.070000000000000007;0.12;0.14000000000000001;7;91;66;61;0.25;0.68999999999999995;0.01;0.0500000000000001;0;4.299902400724022;37;64;24;2;nein
2019_03_18 11:42;40;1;1;timed;42;112;0;70;44;98;64;0.02;0.75;0.12;0.11;33;2;63;85;0.23999999999999999;0.31;0.080000000000000002;0.37;NA;6.133290205338199;37;64;24;2;nein
2019_03_18 11:42;40;1;1;timed;43;46;0;5;19;0;0;0.32000000000000001;0.68000000000000005;0.0;0.0;88;38;97;66;0.60999999999999999;0.20000000000000001;0.040000000000000001;0.14999999999999999;1;2.783316778126391;37;64;24;2;nein
2019_03_18 11:42;40;1;1;timed;44;83;0;17;12;7;41;0.65000000000000002;0.19;0.089999999999999997;0.070000000000000007;6;84;0;0;0.72999999999999998;0.27000000000000002;0.0;0.0;0;2.8499020639537775;37;64;24;2;nein
2019_03_18 11:42;40;1;1;timed;45;125;0;37;41;10;35;0.91000000000000003;0.040000000000000001;0.029999999999999999;0.02;7;13;91;93;0.26000000000000001;0.39000000000000001;0.16;0.19;0;4.333325101168157;37;64;24;2;nein
2019_03_18 11:42;40;1;1;timed;46;99;1;8;24;15;73;0.56000000000000005;0.35999999999999999;0.070000000000000007;0.0099999999999999499;88;12;0;0;0.52000000000000002;0.47999999999999998;0.0;0.0;1;3.1665948757654405;37;64;24;2;nein
2019_03_18 11:42;40;1;1;timed;47;128;0;70;49;27;54;0.27000000000000002;0.53000000000000003;0.02;0.17999999999999999;72;97;6;20;0.29999999999999999;0.39000000000000001;0.22;0.0899999999999999;1;3.18328457646021;37;64;24;2;nein
2019_03_18 11:42;40;1;1;timed;48;39;0;14;33;0;0;0.78000000000000003;0.22;0.0;0.0;93;84;1;25;0.14000000000000001;0.23999999999999999;0.39000000000000001;0.23000000000000001;1;2.4833104596727935;37;64;24;2;nein
2019_03_18 11:42;40;1;1;timed;49;123;1;26;24;51;92;0.72999999999999998;0.16;0.070000000000000007;0.040000000000000001;6;90;82;49;0.64000000000000001;0.25;0.050000000000000003;0.059999999999999998;0;4.133272564980871;37;64;24;2;nein
2019_03_18 11:42;40;1;1;timed;50;72;1;63;82;51;61;0.01;0.96999999999999997;0.01;0.01;92;12;0;0;0.89000000000000001;0.11;0.0;0.0;1;4.050067498415956;37;64;24;2;nein
2019_03_18 11:42;40;1;1;timed;51;137;0;71;22;28;17;0.25;0.46000000000000002;0.050000000000000003;0.23999999999999999;3;98;92;69;0.42999999999999999;0.23999999999999999;0.20000000000000001;0.13;0;4.266593240023212;37;64;24;2;nein
2019_03_18 11:42;40;1;1;timed;52;21;0;64;28;0;0;0.080000000000000002;0.92000000000000004;0.0;0.0;50;1;88;13;0.57999999999999996;0.13;0.02;0.27000000000000002;1;3.883249712702309;37;64;24;2;nein
2019_03_18 11:42;40;1;1;timed;53;117;1;65;85;92;41;0.23000000000000001;0.17999999999999999;0.54000000000000004;0.050000000000000003;99;93;10;13;0.64000000000000001;0.16;0.01;0.19;1;4.366652864426214;37;64;24;2;nein
2019_03_18 11:42;40;1;1;timed;54;4;0;40;43;0;0;0.58999999999999997;0.40999999999999998;0.0;0.0;2;33;88;81;0.69999999999999996;0.14000000000000001;0.13;0.029999999999999999;0;3.0498991132026276;37;64;24;2;nein
2019_03_18 11:42;40;1;1;timed;55;33;0;27;70;0;0;0.88;0.12;0.0;0.0;93;3;77;16;0.080000000000000002;0.40000000000000002;0.5;0.02;0;4.516794740993646;37;64;24;2;nein
2019_03_18 11:42;40;1;1;timed;56;111;1;51;36;48;27;0.93000000000000005;0.01;0.01;0.049999999999999899;31;78;30;53;0.55000000000000004;0.16;0.029999999999999999;0.26000000000000001;0;4.16660193190728;37;64;24;2;nein
2019_03_18 11:42;40;1;1;timed;57;105;0;49;74;63;58;0.84999999999999998;0.080000000000000002;0.02;0.050000000000000003;97;5;86;8;0.25;0.52000000000000002;0.070000000000000007;0.16;0;4.0999294065059075;37;64;24;2;nein
2019_03_18 11:42;40;1;1;timed;58;54;1;44;79;78;52;0.79000000000000004;0.19;0.01;0.0099999999999999603;96;1;0;0;0.28000000000000003;0.71999999999999997;0.0;0.0;0;3.4832899327138875;37;64;24;2;nein
2019_03_18 11:42;40;1;1;timed;59;13;0;52;56;0;0;0.46999999999999997;0.53000000000000003;0.0;0.0;94;71;27;2;0.089999999999999997;0.31;0.57999999999999996;0.020000000000000101;0;4.083322775848501;37;64;24;2;nein
2019_03_18 11:42;40;1;1;timed;60;88;1;77;13;12;7;0.12;0.19;0.66000000000000003;0.029999999999999898;94;2;0;0;0.40999999999999998;0.58999999999999997;0.0;0.0;0;3.783240764232687;37;64;24;2;nein
2019_03_18 11:42;40;1;1;timed;61;51;0;52;23;43;16;0.60999999999999999;0.20999999999999999;0.01;0.17000000000000001;92;7;0;0;0.14999999999999999;0.84999999999999998;0.0;0.0;0;3.0499302243752027;37;64;24;2;nein
2019_03_18 11:42;40;1;1;timed;62;58;1;37;58;76;34;0.20999999999999999;0.57999999999999996;0.19;0.020000000000000101;86;5;0;0;0.47999999999999998;0.52000000000000002;0.0;0.0;0;3.9999124396908883;37;64;24;2;nein
2019_03_18 11:42;40;1;1;timed;63;136;1;29;67;14;75;0.46000000000000002;0.29999999999999999;0.20999999999999999;0.0300000000000001;70;86;1;85;0.31;0.39000000000000001;0.27000000000000002;0.029999999999999898;0;4.133457628347969;37;64;24;2;nein
2019_03_18 11:42;40;1;1;timed;64;94;1;84;86;93;39;0.78000000000000003;0.20000000000000001;0.01;0.0099999999999999603;9;83;0;0;0.46999999999999997;0.53000000000000003;0.0;0.0;0;3.249954535993311;37;64;24;2;nein
2019_03_18 11:42;40;1;1;timed;65;107;0;52;48;13;63;0.68000000000000005;0.19;0.050000000000000003;0.079999999999999905;54;91;33;3;0.19;0.17999999999999999;0.33000000000000002;0.29999999999999999;0;5.266756814227847;37;64;24;2;nein
2019_03_18 11:42;40;1;1;timed;66;41;1;99;40;0;0;0.89000000000000001;0.11;0.0;0.0;1;67;52;46;0.51000000000000001;0.38;0.029999999999999999;0.080000000000000002;0;2.0166043855206226;37;64;24;2;nein
2019_03_18 11:42;40;1;1;timed;67;79;1;52;46;29;22;0.17999999999999999;0.51000000000000001;0.23999999999999999;0.070000000000000104;93;14;0;0;0.45000000000000001;0.55000000000000004;0.0;0.0;0;4.900069952027479;37;64;24;2;nein
2019_03_18 11:42;40;1;1;timed;68;65;0;75;64;59;52;0.59999999999999998;0.22;0.14000000000000001;0.040000000000000001;1;99;0;0;0.35999999999999999;0.64000000000000001;0.0;0.0;1;2.3998622769340727;37;64;24;2;nein
2019_03_18 11:42;40;1;1;timed;69;98;1;27;10;31;79;0.23000000000000001;0.67000000000000004;0.070000000000000007;0.029999999999999999;25;99;0;0;0.38;0.62;0.0;0.0;1;3.1668674994416506;37;64;24;2;nein
2019_03_18 11:42;40;1;1;timed;70;28;1;47;30;0;0;0.97999999999999998;0.02;0.0;0.0;55;48;77;13;0.070000000000000007;0.26000000000000001;0.42999999999999999;0.23999999999999999;1;4.08344657906855;37;64;24;2;nein
2019_03_18 11:42;40;1;1;timed;71;9;0;61;69;0;0;0.93999999999999995;0.060000000000000102;0.0;0.0;18;93;72;16;0.40999999999999998;0.34999999999999998;0.089999999999999997;0.14999999999999999;0;2.8166124680101348;37;64;24;2;nein
2019_03_18 11:42;40;1;1;timed;72;57;1;52;35;23;47;0.22;0.68000000000000005;0.040000000000000001;0.059999999999999998;71;7;0;0;0.28999999999999998;0.70999999999999996;0.0;0.0;0;2.349962522263013;37;64;24;2;nein
2019_03_18 11:42;40;1;1;timed;73;55;1;74;55;47;48;0.60999999999999999;0.31;0.070000000000000007;0.01;97;6;0;0;0.42999999999999999;0.56999999999999995;0.0;0.0;0;3.300132687545556;37;64;24;2;nein
2019_03_18 11:42;40;1;1;timed;74;124;1;37;65;15;41;0.17999999999999999;0.45000000000000001;0.02;0.34999999999999998;40;7;98;30;0.070000000000000007;0.45000000000000001;0.45000000000000001;0.029999999999999898;1;4.533306755196463;37;64;24;2;nein
2019_03_18 11:42;40;1;1;timed;75;78;0;74;36;34;3;0.14999999999999999;0.64000000000000001;0.13;0.080000000000000002;1;83;0;0;0.41999999999999998;0.57999999999999996;0.0;0.0;1;2.7166038402738195;37;64;24;2;nein
2019_03_18 11:42;40;2;1;control;1;28;1;47;30;0;0;0.97999999999999998;0.02;0.0;0.0;55;48;77;13;0.070000000000000007;0.26000000000000001;0.42999999999999999;0.23999999999999999;1;6.098112449890323;37;64;24;2;nein
2019_03_18 11:42;40;2;1;control;2;24;1;35;27;0;0;0.070000000000000007;0.93000000000000005;0.0;0.0;62;3;81;95;0.35999999999999999;0.55000000000000004;0.01;0.080000000000000002;0;3.866719095942244;37;64;24;2;nein
2019_03_18 11:42;40;2;1;control;3;1;0;22;51;0;0;0.26000000000000001;0.73999999999999999;0.0;0.0;14;11;92;31;0.29999999999999999;0.40999999999999998;0.14999999999999999;0.14000000000000001;0;3.9166352080319484;37;64;24;2;nein
2019_03_18 11:42;40;2;1;control;4;141;1;93;28;60;91;0.81999999999999995;0.10000000000000001;0.01;0.070000000000000007;14;85;7;89;0.45000000000000001;0.070000000000000007;0.23999999999999999;0.23999999999999999;0;3.099912407615193;37;64;24;2;nein
2019_03_18 11:42;40;2;1;control;5;127;1;89;26;62;79;0.02;0.28999999999999998;0.53000000000000003;0.16;96;6;60;13;0.53000000000000003;0.25;0.17000000000000001;0.050000000000000003;0;5.499946597832604;37;64;24;2;nein
2019_03_18 11:42;40;2;1;control;6;109;0;75;28;16;56;0.19;0.070000000000000007;0.059999999999999998;0.68000000000000005;3;50;98;44;0.5;0.02;0.34999999999999998;0.13;0;4.949951424876417;37;64;24;2;nein
2019_03_18 11:42;40;2;1;control;7;98;0;27;10;31;79;0.23000000000000001;0.67000000000000004;0.070000000000000007;0.029999999999999999;25;99;0;0;0.38;0.62;0.0;0.0;1;3.2165802663439536;37;64;24;2;nein
2019_03_18 11:42;40;2;1;control;8;27;1;44;26;0;0;0.35999999999999999;0.64000000000000001;0.0;0.0;63;10;3;5;0.58999999999999997;0.19;0.14999999999999999;0.070000000000000007;0;4.416957705805544;37;64;24;2;nein
2019_03_18 11:42;40;2;1;control;9;17;0;81;52;0;0;0.059999999999999998;0.93999999999999995;0.0;0.0;34;3;69;41;0.01;0.22;0.75;0.02;0;4.283285827321379;37;64;24;2;nein
2019_03_18 11:42;40;2;1;control;10;89;1;26;41;13;56;0.059999999999999998;0.40999999999999998;0.050000000000000003;0.47999999999999998;5;97;0;0;0.37;0.63;0.0;0.0;1;2.449947094970412;37;64;24;2;nein
2019_03_18 11:42;40;2;1;control;11;40;0;45;49;0;0;0.68999999999999995;0.31;0.0;0.0;2;92;65;73;0.23999999999999999;0.59999999999999998;0.11;0.050000000000000003;1;4.566581276654688;37;64;24;2;nein
2019_03_18 11:42;40;2;1;control;12;48;0;13;32;0;0;0.90000000000000002;0.10000000000000001;0.0;0.0;24;99;84;94;0.62;0.14999999999999999;0.20000000000000001;0.029999999999999999;1;3.349975993080079;37;64;24;2;nein
2019_03_18 11:42;40;2;1;control;13;144;0;99;93;90;71;0.65000000000000002;0.32000000000000001;0.01;0.02;97;14;48;73;0.23000000000000001;0.46000000000000002;0.13;0.17999999999999999;0;3.566595709673493;37;64;24;2;nein
2019_03_18 11:42;40;2;1;control;14;71;0;68;55;36;51;0.20000000000000001;0.75;0.02;0.029999999999999999;38;81;0;0;0.52000000000000002;0.47999999999999998;0.0;0.0;0;5.8499597960271785;37;64;24;2;nein
2019_03_18 11:42;40;2;1;control;15;117;0;65;85;92;41;0.23000000000000001;0.17999999999999999;0.54000000000000004;0.050000000000000003;99;93;10;13;0.64000000000000001;0.16;0.01;0.19;1;3.8999451866038726;37;64;24;2;nein
2019_03_18 11:42;40;2;1;control;16;22;1;32;55;0;0;0.39000000000000001;0.60999999999999999;0.0;0.0;93;72;59;22;0.20000000000000001;0.11;0.14000000000000001;0.55000000000000004;0;5.083284929267393;37;64;24;2;nein
2019_03_18 11:42;40;2;1;control;17;92;0;90;86;65;94;0.16;0.34000000000000002;0.28000000000000003;0.22;79;22;0;0;0.35999999999999999;0.64000000000000001;0.0;0.0;0;4.150103067786404;37;64;24;2;nein
2019_03_18 11:42;40;2;1;control;18;60;1;64;59;57;96;0.83999999999999997;0.13;0.02;0.01;83;6;0;0;0.54000000000000004;0.46000000000000002;0.0;0.0;0;5.866690871373066;37;64;24;2;nein
2019_03_18 11:42;40;2;1;control;19;85;0;31;22;82;50;0.11;0.69999999999999996;0.01;0.17999999999999999;3;99;0;0;0.62;0.38;0.0;0.0;0;4.500165017507243;37;64;24;2;nein
2019_03_18 11:42;40;2;1;control;20;65;1;75;64;59;52;0.59999999999999998;0.22;0.14000000000000001;0.040000000000000001;1;99;0;0;0.35999999999999999;0.64000000000000001;0.0;0.0;1;2.7998765816591913;37;64;24;2;nein
2019_03_18 11:42;40;2;1;control;21;140;1;36;32;26;27;0.39000000000000001;0.14999999999999999;0.19;0.27000000000000002;44;3;99;25;0.29999999999999999;0.34000000000000002;0.34000000000000002;0.0199999999999999;0;6.666749950527446;37;64;24;2;nein
2019_03_18 11:42;40;2;1;control;22;93;1;87;81;73;98;0.80000000000000004;0.040000000000000001;0.14999999999999999;0.0099999999999999499;5;71;0;0;0.51000000000000001;0.48999999999999999;0.0;0.0;0;3.699956797165214;37;64;24;2;nein
2019_03_18 11:42;40;2;1;control;23;73;0;65;68;70;47;0.25;0.23000000000000001;0.20999999999999999;0.31;27;95;0;0;0.45000000000000001;0.55000000000000004;0.0;0.0;1;10.683392503362484;37;64;24;2;nein
2019_03_18 11:42;40;2;1;control;24;135;0;48;60;41;51;0.14000000000000001;0.40000000000000002;0.089999999999999997;0.37;94;1;85;65;0.64000000000000001;0.29999999999999999;0.01;0.050000000000000003;0;4.716763886406625;37;64;24;2;nein
2019_03_18 11:42;40;2;1;control;25;34;1;32;48;0;0;0.28000000000000003;0.71999999999999997;0.0;0.0;97;83;7;62;0.040000000000000001;0.54000000000000004;0.35999999999999999;0.059999999999999901;0;8.049870247166837;37;64;24;2;nein
2019_03_18 11:42;40;2;1;control;26;111;0;51;36;48;27;0.93000000000000005;0.01;0.01;0.049999999999999899;31;78;30;53;0.55000000000000004;0.16;0.029999999999999999;0.26000000000000001;0;8.93340445069407;37;64;24;2;nein
2019_03_18 11:42;40;2;1;control;27;15;1;77;81;0;0;0.28000000000000003;0.71999999999999997;0.0;0.0;98;14;87;18;0.55000000000000004;0.23000000000000001;0.16;0.059999999999999901;0;2.633275611951831;37;64;24;2;nein
2019_03_18 11:42;40;2;1;control;28;58;0;37;58;76;34;0.20999999999999999;0.57999999999999996;0.19;0.020000000000000101;86;5;0;0;0.47999999999999998;0.52000000000000002;0.0;0.0;0;4.41661003043555;37;64;24;2;nein
2019_03_18 11:42;40;2;1;control;29;25;1;50;53;0;0;0.82999999999999996;0.17000000000000001;0.0;0.0;83;16;97;4;0.45000000000000001;0.29999999999999999;0.11;0.14000000000000001;0;6.200022707949756;37;64;24;2;nein
2019_03_18 11:42;40;2;1;control;30;44;0;79;74;0;0;0.71999999999999997;0.28000000000000003;0.0;0.0;3;67;15;36;0.41999999999999998;0.53000000000000003;0.02;0.029999999999999999;0;2.2833477289314033;37;64;24;2;nein
2019_03_18 11:42;40;2;1;control;31;10;0;45;62;0;0;0.059999999999999998;0.93999999999999995;0.0;0.0;17;99;28;67;0.58999999999999997;0.34000000000000002;0.01;0.059999999999999998;0;6.249981477627443;37;64;24;2;nein
2019_03_18 11:42;40;2;1;control;32;90;1;27;44;50;72;0.68000000000000005;0.28999999999999998;0.02;0.0099999999999999707;6;96;0;0;0.46999999999999997;0.53000000000000003;0.0;0.0;0;9.283410592744985;37;64;24;2;nein
2019_03_18 11:42;40;2;1;control;33;118;0;62;52;65;68;0.40999999999999998;0.44;0.10000000000000001;0.0500000000000001;79;20;14;37;0.56999999999999995;0.23999999999999999;0.14000000000000001;0.050000000000000003;0;9.400128806668363;37;64;24;2;nein
2019_03_18 11:42;40;2;1;control;34;107;0;52;48;13;63;0.68000000000000005;0.19;0.050000000000000003;0.079999999999999905;54;91;33;3;0.19;0.17999999999999999;0.33000000000000002;0.29999999999999999;1;7.066569890606843;37;64;24;2;nein
2019_03_18 11:42;40;2;1;control;35;101;0;30;96;61;45;0.65000000000000002;0.14000000000000001;0.11;0.10000000000000001;3;98;63;89;0.75;0.19;0.040000000000000001;0.02;0;2.933428826456293;37;64;24;2;nein
2019_03_18 11:42;40;2;1;control;36;2;0;59;32;0;0;0.080000000000000002;0.92000000000000004;0.0;0.0;33;38;85;1;0.28999999999999998;0.050000000000000003;0.070000000000000007;0.58999999999999997;0;3.2833817267091945;37;64;24;2;nein
2019_03_18 11:42;40;2;1;control;37;112;1;70;44;98;64;0.02;0.75;0.12;0.11;33;2;63;85;0.23999999999999999;0.31;0.080000000000000002;0.37;0;5.766587627182162;37;64;24;2;nein
2019_03_18 11:42;40;2;1;control;38;104;0;55;85;93;3;0.87;0.02;0.089999999999999997;0.02;1;2;90;8;0.35999999999999999;0.070000000000000007;0.40000000000000002;0.17000000000000001;0;4.15009023843777;37;64;24;2;nein
2019_03_18 11:42;40;2;1;control;39;59;0;56;47;83;90;0.31;0.12;0.54000000000000004;0.029999999999999898;10;98;0;0;0.46999999999999997;0.53000000000000003;0.0;0.0;0;6.933296042690927;37;64;24;2;nein
2019_03_18 11:42;40;2;1;control;40;81;0;67;38;52;65;0.27000000000000002;0.35999999999999999;0.01;0.35999999999999999;2;77;0;0;0.14000000000000001;0.85999999999999999;0.0;0.0;1;5.5500253219288425;37;64;24;2;nein
2019_03_18 11:42;40;2;1;control;41;136;0;29;67;14;75;0.46000000000000002;0.29999999999999999;0.20999999999999999;0.0300000000000001;70;86;1;85;0.31;0.39000000000000001;0.27000000000000002;0.029999999999999898;0;6.333388927181659;37;64;24;2;nein
2019_03_18 11:42;40;2;1;control;42;9;1;61;69;0;0;0.93999999999999995;0.060000000000000102;0.0;0.0;18;93;72;16;0.40999999999999998;0.34999999999999998;0.089999999999999997;0.14999999999999999;0;2.7166221220977604;37;64;24;2;nein
2019_03_18 11:42;40;2;1;control;43;62;1;12;45;16;50;0.20999999999999999;0.76000000000000001;0.02;0.01;92;15;0;0;0.20999999999999999;0.79000000000000004;0.0;0.0;1;5.783160901532028;37;64;24;2;nein
2019_03_18 11:42;40;2;1;control;44;64;0;48;39;34;19;0.46000000000000002;0.5;0.02;0.02;13;92;0;0;0.68999999999999995;0.31;0.0;0.0;0;3.1001276199531276;37;64;24;2;nein
2019_03_18 11:42;40;2;1;control;45;11;1;17;36;0;0;0.14000000000000001;0.85999999999999999;0.0;0.0;19;41;34;95;0.88;0.02;0.050000000000000003;0.050000000000000003;0;7.883444398081338;37;64;24;2;nein
2019_03_18 11:42;40;2;1;control;46;146;0;25;5;64;35;0.94999999999999996;0.02;0.01;0.02;47;97;12;79;0.20999999999999999;0.029999999999999999;0.02;0.73999999999999999;1;5.700097278542671;37;64;24;2;nein
2019_03_18 11:42;40;2;1;control;47;38;0;40;70;0;0;0.53000000000000003;0.46999999999999997;0.0;0.0;97;90;6;96;0.56999999999999995;0.070000000000000007;0.27000000000000002;0.089999999999999997;0;7.416592390078222;37;64;24;2;nein
2019_03_18 11:42;40;2;1;control;48;8;1;50;36;0;0;0.080000000000000002;0.92000000000000004;0.0;0.0;6;19;84;29;0.54000000000000004;0.070000000000000007;0.17000000000000001;0.22;0;3.2165751346037723;37;64;24;2;nein
2019_03_18 11:42;40;2;1;control;49;57;0;52;35;23;47;0.22;0.68000000000000005;0.040000000000000001;0.059999999999999998;71;7;0;0;0.28999999999999998;0.70999999999999996;0.0;0.0;0;2.816638768175835;37;64;24;2;nein
2019_03_18 11:42;40;2;1;control;50;95;1;93;88;68;85;0.83999999999999997;0.14000000000000001;0.01;0.01;2;82;0;0;0.41999999999999998;0.57999999999999996;0.0;0.0;0;3.899991051528559;37;64;24;2;nein
2019_03_18 11:42;40;2;1;control;51;130;1;37;79;23;95;0.94999999999999996;0.029999999999999999;0.01;0.01;94;4;58;49;0.46000000000000002;0.5;0.029999999999999999;0.01;0;5.666562321292076;37;64;24;2;nein
2019_03_18 11:42;40;2;1;control;52;43;0;60;83;0;0;0.23000000000000001;0.77000000000000002;0.0;0.0;72;5;70;12;0.29999999999999999;0.40999999999999998;0.12;0.17000000000000001;0;1.9999846047812753;37;64;24;2;nein
2019_03_18 11:42;40;2;1;control;53;110;1;47;44;23;52;0.13;0.27000000000000002;0.040000000000000001;0.56000000000000005;99;2;30;22;0.28999999999999998;0.5;0.11;0.10000000000000001;0;3.983288810144586;37;64;24;2;nein
2019_03_18 11:42;40;2;1;control;54;131;1;83;41;81;88;0.23999999999999999;0.58999999999999997;0.10000000000000001;0.070000000000000007;82;97;4;17;0.26000000000000001;0.46999999999999997;0.11;0.16;0;5.099951857866472;37;64;24;2;nein
2019_03_18 11:42;40;2;1;control;55;26;1;76;41;0;0;0.57999999999999996;0.41999999999999998;0.0;0.0;61;79;84;2;0.13;0.029999999999999999;0.67000000000000004;0.17000000000000001;1;17.183358024485642;37;64;24;2;nein
2019_03_18 11:42;40;2;1;control;56;21;0;64;28;0;0;0.080000000000000002;0.92000000000000004;0.0;0.0;50;1;88;13;0.57999999999999996;0.13;0.02;0.27000000000000002;0;6.049942412257224;37;64;24;2;nein
2019_03_18 11:42;40;2;1;control;57;61;1;43;18;39;70;0.75;0.089999999999999997;0.089999999999999997;0.070000000000000007;16;66;0;0;0.64000000000000001;0.35999999999999999;0.0;0.0;0;4.749979713591529;37;64;24;2;nein
2019_03_18 11:42;40;2;1;control;58;63;0;56;78;42;36;0.93000000000000005;0.040000000000000001;0.01;0.0199999999999999;2;72;0;0;0.32000000000000001;0.68000000000000005;0.0;0.0;0;3.616605155280922;37;64;24;2;nein
2019_03_18 11:42;40;2;1;control;59;68;0;84;27;55;62;0.01;0.050000000000000003;0.40999999999999998;0.53000000000000003;9;82;0;0;0.37;0.63;0.0;0.0;0;4.516575038383962;37;64;24;2;nein
2019_03_18 11:42;40;2;1;control;60;132;0;27;70;21;19;0.64000000000000001;0.23000000000000001;0.029999999999999999;0.10000000000000001;11;85;55;6;0.39000000000000001;0.46999999999999997;0.029999999999999999;0.11;0;5.200090703501701;37;64;24;2;nein
2019_03_18 11:42;40;2;1;control;61;70;1;66;55;69;50;0.22;0.29999999999999999;0.29999999999999999;0.17999999999999999;2;90;0;0;0.34000000000000002;0.66000000000000003;0.0;0.0;0;3.7833260794050148;37;64;24;2;nein
2019_03_18 11:42;40;2;1;control;62;19;0;22;53;0;0;0.13;0.87;0.0;0.0;4;93;96;65;0.46999999999999997;0.059999999999999998;0.26000000000000001;0.20999999999999999;1;6.316762731767085;37;64;24;2;nein
2019_03_18 11:42;40;2;1;control;63;124;0;37;65;15;41;0.17999999999999999;0.45000000000000001;0.02;0.34999999999999998;40;7;98;30;0.070000000000000007;0.45000000000000001;0.45000000000000001;0.029999999999999898;0;6.966611618066963;37;64;24;2;nein
2019_03_18 11:42;40;2;1;control;64;142;1;98;65;64;84;0.88;0.070000000000000007;0.01;0.040000000000000001;5;68;60;16;0.46000000000000002;0.080000000000000002;0.27000000000000002;0.19;0;3.499968086993249;37;64;24;2;nein
2019_03_18 11:42;40;2;1;control;65;51;0;52;23;43;16;0.60999999999999999;0.20999999999999999;0.01;0.17000000000000001;92;7;0;0;0.14999999999999999;0.84999999999999998;0.0;0.0;0;7.483408604195574;37;64;24;2;nein
2019_03_18 11:42;40;2;1;control;66;116;0;53;65;43;99;0.56999999999999995;0.37;0.050000000000000003;0.010000000000000101;57;72;11;87;0.67000000000000004;0.13;0.14999999999999999;0.050000000000000003;0;6.666578357977414;37;64;24;2;nein
2019_03_18 11:42;40;2;1;control;67;139;1;44;31;16;8;0.79000000000000004;0.070000000000000007;0.13;0.0099999999999999499;92;58;2;88;0.55000000000000004;0.070000000000000007;0.34000000000000002;0.039999999999999897;0;6.866595292720376;37;64;24;2;nein
2019_03_18 11:42;40;2;1;control;68;75;0;67;80;36;81;0.81999999999999995;0.080000000000000002;0.059999999999999998;0.040000000000000001;3;97;0;0;0.32000000000000001;0.68000000000000005;0.0;0.0;0;4.083272741385372;37;64;24;2;nein
2019_03_18 11:42;40;2;1;control;69;96;1;51;54;39;7;0.17000000000000001;0.26000000000000001;0.10000000000000001;0.46999999999999997;24;96;0;0;0.28000000000000003;0.71999999999999997;0.0;0.0;1;2.583258789467436;37;64;24;2;nein
2019_03_18 11:42;40;2;1;control;70;125;1;37;41;10;35;0.91000000000000003;0.040000000000000001;0.029999999999999999;0.02;7;13;91;93;0.26000000000000001;0.39000000000000001;0.16;0.19;0;7.899964430629552;37;64;24;2;nein
2019_03_18 11:42;40;2;1;control;71;46;0;5;19;0;0;0.32000000000000001;0.68000000000000005;0.0;0.0;88;38;97;66;0.60999999999999999;0.20000000000000001;0.040000000000000001;0.14999999999999999;1;2.4334360429675144;37;64;24;2;nein
2019_03_18 11:42;40;2;1;control;72;150;0;25;21;78;38;0.84999999999999998;0.059999999999999998;0.050000000000000003;0.040000000000000001;31;43;64;95;0.059999999999999998;0.45000000000000001;0.13;0.35999999999999999;1;4.966594939913193;37;64;24;2;nein
2019_03_18 11:42;40;2;1;control;73;20;1;44;40;0;0;0.91000000000000003;0.089999999999999997;0.0;0.0;29;5;80;99;0.25;0.40000000000000002;0.26000000000000001;0.089999999999999997;0;2.149932758171417;37;64;24;2;nein
2019_03_18 11:42;40;2;1;control;74;33;1;27;70;0;0;0.88;0.12;0.0;0.0;93;3;77;16;0.080000000000000002;0.40000000000000002;0.5;0.02;0;3.7166137830190564;37;64;24;2;nein
2019_03_18 11:42;40;2;1;control;75;82;1;78;66;30;27;0.28999999999999998;0.58999999999999997;0.080000000000000002;0.040000000000000001;90;6;0;0;0.82999999999999996;0.17000000000000001;0.0;0.0;1;4.566679741912594;37;64;24;2;nein
2019_03_18 11:42;40;3;1;timed;1;146;0;25;5;64;35;0.94999999999999996;0.02;0.01;0.02;47;97;12;79;0.20999999999999999;0.029999999999999999;0.02;0.73999999999999999;1;2.709652257275593;37;64;24;2;nein
2019_03_18 11:42;40;3;1;timed;2;6;0;9;51;0;0;0.14999999999999999;0.84999999999999998;0.0;0.0;6;40;50;73;0.42999999999999999;0.26000000000000001;0.059999999999999998;0.25;0;3.416611954837208;37;64;24;2;nein
2019_03_18 11:42;40;3;1;timed;3;82;1;78;66;30;27;0.28999999999999998;0.58999999999999997;0.080000000000000002;0.040000000000000001;90;6;0;0;0.82999999999999996;0.17000000000000001;0.0;0.0;0;2.6503992653924797;37;64;24;2;nein
2019_03_18 11:42;40;3;1;timed;4;110;1;47;44;23;52;0.13;0.27000000000000002;0.040000000000000001;0.56000000000000005;99;2;30;22;0.28999999999999998;0.5;0.11;0.10000000000000001;0;4.566763132683263;37;64;24;2;nein
2019_03_18 11:42;40;3;1;timed;5;104;1;55;85;93;3;0.87;0.02;0.089999999999999997;0.02;1;2;90;8;0.35999999999999999;0.070000000000000007;0.40000000000000002;0.17000000000000001;0;3.499955257644615;37;64;24;2;nein
2019_03_18 11:42;40;3;1;timed;6;129;0;12;29;81;36;0.17999999999999999;0.79000000000000004;0.01;0.02;5;19;95;92;0.47999999999999998;0.26000000000000001;0.13;0.13;0;3.299938322901653;37;64;24;2;nein
2019_03_18 11:42;40;3;1;timed;7;59;1;56;47;83;90;0.31;0.12;0.54000000000000004;0.029999999999999898;10;98;0;0;0.46999999999999997;0.53000000000000003;0.0;0.0;0;4.316732903529555;37;64;24;2;nein
2019_03_18 11:42;40;3;1;timed;8;120;0;64;40;48;51;0.19;0.02;0.070000000000000007;0.71999999999999997;97;9;79;94;0.23000000000000001;0.54000000000000004;0.01;0.22;0;4.43337510355741;37;64;24;2;nein
2019_03_18 11:42;40;3;1;timed;9;141;1;93;28;60;91;0.81999999999999995;0.10000000000000001;0.01;0.070000000000000007;14;85;7;89;0.45000000000000001;0.070000000000000007;0.23999999999999999;0.23999999999999999;0;3.0666135103947454;37;64;24;2;nein
2019_03_18 11:42;40;3;1;timed;10;19;1;22;53;0;0;0.13;0.87;0.0;0.0;4;93;96;65;0.46999999999999997;0.059999999999999998;0.26000000000000001;0.20999999999999999;0;3.8499241945810354;37;64;24;2;nein
2019_03_18 11:42;40;3;1;timed;11;138;0;8;20;43;51;0.38;0.5;0.02;0.10000000000000001;72;82;70;1;0.39000000000000001;0.050000000000000003;0.070000000000000007;0.48999999999999999;0;3.1000993953839497;37;64;24;2;nein
2019_03_18 11:42;40;3;1;timed;12;127;0;89;26;62;79;0.02;0.28999999999999998;0.53000000000000003;0.16;96;6;60;13;0.53000000000000003;0.25;0.17000000000000001;0.050000000000000003;1;3.933287382878916;37;64;24;2;nein
2019_03_18 11:42;40;3;1;timed;13;63;1;56;78;42;36;0.93000000000000005;0.040000000000000001;0.01;0.0199999999999999;2;72;0;0;0.32000000000000001;0.68000000000000005;0.0;0.0;0;3.183308631490945;37;64;24;2;nein
2019_03_18 11:42;40;3;1;timed;14;38;1;40;70;0;0;0.53000000000000003;0.46999999999999997;0.0;0.0;97;90;6;96;0.56999999999999995;0.070000000000000007;0.27000000000000002;0.089999999999999997;0;3.6832991698447586;37;64;24;2;nein
2019_03_18 11:42;40;3;1;timed;15;103;1;38;49;89;50;0.89000000000000001;0.070000000000000007;0.01;0.029999999999999999;6;64;99;27;0.70999999999999996;0.17999999999999999;0.059999999999999998;0.050000000000000003;0;5.716785054835782;37;64;24;2;nein
2019_03_18 11:42;40;3;1;timed;16;92;0;90;86;65;94;0.16;0.34000000000000002;0.28000000000000003;0.22;79;22;0;0;0.35999999999999999;0.64000000000000001;0.0;0.0;0;4.233282154920744;37;64;24;2;nein
2019_03_18 11:42;40;3;1;timed;17;22;0;32;55;0;0;0.39000000000000001;0.60999999999999999;0.0;0.0;93;72;59;22;0.20000000000000001;0.11;0.14000000000000001;0.55000000000000004;0;4.250042417037548;37;64;24;2;nein
2019_03_18 11:42;40;3;1;timed;18;126;1;16;55;51;42;0.68999999999999995;0.23999999999999999;0.01;0.060000000000000102;66;4;1;5;0.46999999999999997;0.38;0.089999999999999997;0.059999999999999998;1;2.499976426070134;37;64;24;2;nein
2019_03_18 11:42;40;3;1;timed;19;84;1;43;10;5;45;0.78000000000000003;0.13;0.059999999999999998;0.029999999999999999;87;1;0;0;0.57999999999999996;0.41999999999999998;0.0;0.0;0;2.3833679030831263;37;64;24;2;nein
2019_03_18 11:42;40;3;1;timed;20;24;1;35;27;0;0;0.070000000000000007;0.93000000000000005;0.0;0.0;62;3;81;95;0.35999999999999999;0.55000000000000004;0.01;0.080000000000000002;0;4.7165643900225405;37;64;24;2;nein
2019_03_18 11:42;40;3;1;timed;21;27;1;44;26;0;0;0.35999999999999999;0.64000000000000001;0.0;0.0;63;10;3;5;0.58999999999999997;0.19;0.14999999999999999;0.070000000000000007;0;3.283371463228832;37;64;24;2;nein
2019_03_18 11:42;40;3;1;timed;22;10;1;45;62;0;0;0.059999999999999998;0.93999999999999995;0.0;0.0;17;99;28;67;0.58999999999999997;0.34000000000000002;0.01;0.059999999999999998;0;5.183267256838008;37;64;24;2;nein
2019_03_18 11:42;40;3;1;timed;23;119;1;60;58;11;18;0.25;0.72999999999999998;0.01;0.01;96;23;42;85;0.44;0.48999999999999999;0.059999999999999998;0.010000000000000101;1;5.099907596611956;37;64;24;2;nein
2019_03_18 11:42;40;3;1;timed;24;131;0;83;41;81;88;0.23999999999999999;0.58999999999999997;0.10000000000000001;0.070000000000000007;82;97;4;17;0.26000000000000001;0.46999999999999997;0.11;0.16;1;3.5002041470215772;37;64;24;2;nein
2019_03_18 11:42;40;3;1;timed;25;2;1;59;32;0;0;0.080000000000000002;0.92000000000000004;0.0;0.0;33;38;85;1;0.28999999999999998;0.050000000000000003;0.070000000000000007;0.58999999999999997;0;3.1500979360462225;37;64;24;2;nein
2019_03_18 11:42;40;3;1;timed;26;91;0;74;81;86;48;0.93000000000000005;0.02;0.01;0.039999999999999897;7;64;0;0;0.13;0.87;0.0;0.0;0;3.883257089579274;37;64;24;2;nein
2019_03_18 11:42;40;3;1;timed;27;71;1;68;55;36;51;0.20000000000000001;0.75;0.02;0.029999999999999999;38;81;0;0;0.52000000000000002;0.47999999999999998;0.0;0.0;0;5.53339912651245;37;64;24;2;nein
2019_03_18 11:42;40;3;1;timed;28;118;1;62;52;65;68;0.40999999999999998;0.44;0.10000000000000001;0.0500000000000001;79;20;14;37;0.56999999999999995;0.23999999999999999;0.14000000000000001;0.050000000000000003;0;3.5832613553375268;37;64;24;2;nein
2019_03_18 11:42;40;3;1;timed;29;35;1;33;37;0;0;0.88;0.12;0.0;0.0;63;4;79;98;0.16;0.46000000000000002;0.17000000000000001;0.20999999999999999;0;4.216643450889023;37;64;24;2;nein
2019_03_18 11:42;40;3;1;timed;30;102;1;40;56;53;17;0.28000000000000003;0.26000000000000001;0.14999999999999999;0.31;1;76;29;62;0.68000000000000005;0.23000000000000001;0.050000000000000003;0.039999999999999897;0;2.766594041857388;37;64;24;2;nein
2019_03_18 11:42;40;3;1;timed;31;77;1;24;17;99;41;0.17999999999999999;0.13;0.10000000000000001;0.58999999999999997;12;97;0;0;0.59999999999999998;0.40000000000000002;0.0;0.0;0;4.549941289689741;37;64;24;2;nein
2019_03_18 11:42;40;3;1;timed;32;47;1;2;40;0;0;0.45000000000000001;0.55000000000000004;0.0;0.0;93;89;11;56;0.58999999999999997;0.070000000000000007;0.28000000000000003;0.059999999999999998;1;3.5499464214281033;37;64;24;2;nein
2019_03_18 11:42;40;3;1;timed;33;11;0;17;36;0;0;0.14000000000000001;0.85999999999999999;0.0;0.0;19;41;34;95;0.88;0.02;0.050000000000000003;0.050000000000000003;1;3.883415211310421;37;64;24;2;nein
2019_03_18 11:42;40;3;1;timed;34;75;1;67;80;36;81;0.81999999999999995;0.080000000000000002;0.059999999999999998;0.040000000000000001;3;97;0;0;0.32000000000000001;0.68000000000000005;0.0;0.0;0;3.6832719074773195;37;64;24;2;nein
2019_03_18 11:42;40;3;1;timed;35;81;1;67;38;52;65;0.27000000000000002;0.35999999999999999;0.01;0.35999999999999999;2;77;0;0;0.14000000000000001;0.85999999999999999;0.0;0.0;0;4.5165968482779135;37;64;24;2;nein
2019_03_18 11:42;40;3;1;timed;36;100;1;27;14;59;52;0.02;0.95999999999999996;0.01;0.01;17;98;0;0;0.48999999999999999;0.51000000000000001;0.0;0.0;0;5.183259238494429;37;64;24;2;nein
2019_03_18 11:42;40;3;1;timed;37;144;0;99;93;90;71;0.65000000000000002;0.32000000000000001;0.01;0.02;97;14;48;73;0.23000000000000001;0.46000000000000002;0.13;0.17999999999999999;0;2.6000912166746275;37;64;24;2;nein
2019_03_18 11:42;40;3;1;timed;38;85;0;31;22;82;50;0.11;0.69999999999999996;0.01;0.17999999999999999;3;99;0;0;0.62;0.38;0.0;0.0;0;2.8999278669834894;37;64;24;2;nein
2019_03_18 11:42;40;3;1;timed;39;80;0;47;39;45;10;0.13;0.76000000000000001;0.059999999999999998;0.050000000000000003;2;87;0;0;0.48999999999999999;0.51000000000000001;0.0;0.0;0;3.283278771179539;37;64;24;2;nein
2019_03_18 11:42;40;3;1;timed;40;18;0;68;50;0;0;0.029999999999999999;0.96999999999999997;0.0;0.0;34;64;15;89;0.65000000000000002;0.029999999999999999;0.050000000000000003;0.27000000000000002;0;2.983297790689903;37;64;24;2;nein
2019_03_18 11:42;40;3;1;timed;41;143;0;88;44;56;73;0.95999999999999996;0.02;0.01;0.01;20;3;87;32;0.19;0.40000000000000002;0.28000000000000003;0.13;0;2.7332746176762157;37;64;24;2;nein
2019_03_18 11:42;40;3;1;timed;42;142;1;98;65;64;84;0.88;0.070000000000000007;0.01;0.040000000000000001;5;68;60;16;0.46000000000000002;0.080000000000000002;0.27000000000000002;0.19;0;2.8000950013320107;37;64;24;2;nein
2019_03_18 11:42;40;3;1;timed;43;130;0;37;79;23;95;0.94999999999999996;0.029999999999999999;0.01;0.01;94;4;58;49;0.46000000000000002;0.5;0.029999999999999999;0.01;0;3.733400345301561;37;64;24;2;nein
2019_03_18 11:42;40;3;1;timed;44;14;0;36;40;0;0;0.54000000000000004;0.46000000000000002;0.0;0.0;99;70;1;11;0.16;0.089999999999999997;0.080000000000000002;0.67000000000000004;0;5.016598933047135;37;64;24;2;nein
2019_03_18 11:42;40;3;1;timed;45;17;1;81;52;0;0;0.059999999999999998;0.93999999999999995;0.0;0.0;34;3;69;41;0.01;0.22;0.75;0.02;0;2.5832523747922096;37;64;24;2;nein
2019_03_18 11:42;40;3;1;timed;46;45;0;97;87;0;0;0.71999999999999997;0.28000000000000003;0.0;0.0;96;11;14;4;0.25;0.029999999999999999;0.14000000000000001;0.57999999999999996;0;2.7166288575044746;37;64;24;2;nein
2019_03_18 11:42;40;3;1;timed;47;67;1;44;42;8;89;0.88;0.070000000000000007;0.029999999999999999;0.02;10;63;0;0;0.39000000000000001;0.60999999999999999;0.0;0.0;0;4.583219339217976;37;64;24;2;nein
2019_03_18 11:42;40;3;1;timed;48;61;1;43;18;39;70;0.75;0.089999999999999997;0.089999999999999997;0.070000000000000007;16;66;0;0;0.64000000000000001;0.35999999999999999;0.0;0.0;0;2.9667976436339814;37;64;24;2;nein
2019_03_18 11:42;40;3;1;timed;49;68;0;84;27;55;62;0.01;0.050000000000000003;0.40999999999999998;0.53000000000000003;9;82;0;0;0.37;0.63;0.0;0.0;0;4.616535876793932;37;64;24;2;nein
2019_03_18 11:42;40;3;1;timed;50;73;1;65;68;70;47;0.25;0.23000000000000001;0.20999999999999999;0.31;27;95;0;0;0.45000000000000001;0.55000000000000004;0.0;0.0;0;3.2833188628956123;37;64;24;2;nein
2019_03_18 11:42;40;3;1;timed;51;12;1;53;68;0;0;0.31;0.68999999999999995;0.0;0.0;69;54;97;29;0.25;0.20999999999999999;0.20000000000000001;0.34000000000000002;1;3.533232344971111;37;64;24;2;nein
2019_03_18 11:42;40;3;1;timed;52;53;1;26;70;50;80;0.29999999999999999;0.59999999999999998;0.040000000000000001;0.059999999999999998;89;1;0;0;0.40999999999999998;0.58999999999999997;0.0;0.0;0;2.349947127042469;37;64;24;2;nein
2019_03_18 11:42;40;3;1;timed;53;115;1;50;28;61;79;0.83999999999999997;0.040000000000000001;0.059999999999999998;0.059999999999999998;1;26;97;55;0.45000000000000001;0.080000000000000002;0.40999999999999998;0.060000000000000102;0;2.299941530240176;37;64;24;2;nein
2019_03_18 11:42;40;3;1;timed;54;40;0;45;49;0;0;0.68999999999999995;0.31;0.0;0.0;2;92;65;73;0.23999999999999999;0.59999999999999998;0.11;0.050000000000000003;0;2.4167133066966926;37;64;24;2;nein
2019_03_18 11:42;40;3;1;timed;55;74;1;66;47;52;44;0.41999999999999998;0.26000000000000001;0.17999999999999999;0.14000000000000001;17;99;0;0;0.47999999999999998;0.52000000000000002;0.0;0.0;0;2.749987090468494;37;64;24;2;nein
2019_03_18 11:42;40;3;1;timed;56;15;1;77;81;0;0;0.28000000000000003;0.71999999999999997;0.0;0.0;98;14;87;18;0.55000000000000004;0.23000000000000001;0.16;0.059999999999999901;0;2.216596623764417;37;64;24;2;nein
2019_03_18 11:42;40;3;1;timed;57;93;1;87;81;73;98;0.80000000000000004;0.040000000000000001;0.14999999999999999;0.0099999999999999499;5;71;0;0;0.51000000000000001;0.48999999999999999;0.0;0.0;0;2.549939686021389;37;64;24;2;nein
2019_03_18 11:42;40;3;1;timed;58;8;0;50;36;0;0;0.080000000000000002;0.92000000000000004;0.0;0.0;6;19;84;29;0.54000000000000004;0.070000000000000007;0.17000000000000001;0.22;0;3.266701327293049;37;64;24;2;nein
2019_03_18 11:42;40;3;1;timed;59;95;0;93;88;68;85;0.83999999999999997;0.14000000000000001;0.01;0.01;2;82;0;0;0.41999999999999998;0.57999999999999996;0.0;0.0;0;5.049936639050429;37;64;24;2;nein
2019_03_18 11:42;40;3;1;timed;60;66;0;89;23;27;15;0.070000000000000007;0.54000000000000004;0.17000000000000001;0.22;9;73;0;0;0.72999999999999998;0.27000000000000002;0.0;0.0;0;4.816814850997616;37;64;24;2;nein
2019_03_18 11:42;40;3;1;timed;61;69;0;54;34;64;49;0.34000000000000002;0.25;0.20999999999999999;0.20000000000000001;14;98;0;0;0.62;0.38;0.0;0.0;1;2.433262526015824;37;64;24;2;nein
2019_03_18 11:42;40;3;1;timed;62;97;1;17;33;32;74;0.94999999999999996;0.01;0.029999999999999999;0.01;76;23;0;0;0.33000000000000002;0.67000000000000004;0.0;0.0;1;2.9499770835755044;37;64;24;2;nein
2019_03_18 11:42;40;3;1;timed;63;134;0;57;48;50;55;0.02;0.62;0.17999999999999999;0.17999999999999999;80;96;15;18;0.23999999999999999;0.35999999999999999;0.33000000000000002;0.070000000000000007;0;3.1833028582823317;37;64;24;2;nein
2019_03_18 11:42;40;3;1;timed;64;70;0;66;55;69;50;0.22;0.29999999999999999;0.29999999999999999;0.17999999999999999;2;90;0;0;0.34000000000000002;0.66000000000000003;0.0;0.0;0;2.0166319686213683;37;64;24;2;nein
2019_03_18 11:42;40;3;1;timed;65;113;0;85;65;39;64;0.44;0.34000000000000002;0.13;0.089999999999999997;87;2;4;35;0.67000000000000004;0.17000000000000001;0.11;0.049999999999999899;0;2.533304510061498;37;64;24;2;nein
2019_03_18 11:42;40;3;1;timed;66;26;1;76;41;0;0;0.57999999999999996;0.41999999999999998;0.0;0.0;61;79;84;2;0.13;0.029999999999999999;0.67000000000000004;0.17000000000000001;1;4.883276654336441;37;64;24;2;nein
2019_03_18 11:42;40;3;1;timed;67;23;0;54;40;0;0;0.93000000000000005;0.070000000000000007;0.0;0.0;36;23;71;86;0.02;0.41999999999999998;0.19;0.37;0;2.3332538982776896;37;64;24;2;nein
2019_03_18 11:42;40;3;1;timed;68;62;0;12;45;16;50;0.20999999999999999;0.76000000000000001;0.02;0.01;92;15;0;0;0.20999999999999999;0.79000000000000004;0.0;0.0;0;3.2499478005847777;37;64;24;2;nein
2019_03_18 11:42;40;3;1;timed;69;42;0;70;48;0;0;0.79000000000000004;0.20999999999999999;0.0;0.0;51;8;12;67;0.19;0.26000000000000001;0.28999999999999998;0.26000000000000001;0;3.2499708934137743;37;64;24;2;nein
2019_03_18 11:42;40;3;1;timed;70;145;0;91;89;90;74;0.57999999999999996;0.29999999999999999;0.11;0.010000000000000101;2;75;84;39;0.32000000000000001;0.27000000000000002;0.39000000000000001;0.0199999999999999;0;3.099939669984451;37;64;24;2;nein
2019_03_18 11:42;40;3;1;timed;71;34;0;32;48;0;0;0.28000000000000003;0.71999999999999997;0.0;0.0;97;83;7;62;0.040000000000000001;0.54000000000000004;0.35999999999999999;0.059999999999999901;0;3.949992478794229;37;64;24;2;nein
2019_03_18 11:42;40;3;1;timed;72;101;1;30;96;61;45;0.65000000000000002;0.14000000000000001;0.11;0.10000000000000001;3;98;63;89;0.75;0.19;0.040000000000000001;0.02;0;2.6332842717620224;37;64;24;2;nein
2019_03_18 11:42;40;3;1;timed;73;30;1;33;30;0;0;0.71999999999999997;0.28000000000000003;0.0;0.0;9;88;1;14;0.55000000000000004;0.39000000000000001;0.01;0.049999999999999899;0;2.9166573386610253;37;64;24;2;nein
2019_03_18 11:42;40;3;1;timed;74;76;1;39;62;9;28;0.01;0.51000000000000001;0.26000000000000001;0.22;77;7;0;0;0.57999999999999996;0.41999999999999998;0.0;0.0;0;1.7666084748761932;37;64;24;2;nein
2019_03_18 11:42;40;3;1;timed;75;116;0;53;65;43;99;0.56999999999999995;0.37;0.050000000000000003;0.010000000000000101;57;72;11;87;0.67000000000000004;0.13;0.14999999999999999;0.050000000000000003;0;3.8665394850486337;37;64;24;2;nein
2019_03_18 11:42;40;4;1;control;1;149;1;14;89;73;53;0.93999999999999995;0.01;0.01;0.040000000000000001;97;45;6;13;0.34000000000000002;0.01;0.40999999999999998;0.23999999999999999;0;7.0680892063155625;37;64;24;2;nein
2019_03_18 11:42;40;4;1;control;2;100;0;27;14;59;52;0.02;0.95999999999999996;0.01;0.01;17;98;0;0;0.48999999999999999;0.51000000000000001;0.0;0.0;0;3.616756541605355;37;64;24;2;nein
2019_03_18 11:42;40;4;1;control;3;29;1;44;51;0;0;0.78000000000000003;0.22;0.0;0.0;74;1;68;82;0.69999999999999996;0.28000000000000003;0.01;0.01;0;6.666552699278327;37;64;24;2;nein
2019_03_18 11:42;40;4;1;control;4;88;0;77;13;12;7;0.12;0.19;0.66000000000000003;0.029999999999999898;94;2;0;0;0.40999999999999998;0.58999999999999997;0.0;0.0;0;5.183233259062035;37;64;24;2;nein
2019_03_18 11:42;40;4;1;control;5;30;1;33;30;0;0;0.71999999999999997;0.28000000000000003;0.0;0.0;9;88;1;14;0.55000000000000004;0.39000000000000001;0.01;0.049999999999999899;0;7.516740857725381;37;64;24;2;nein
2019_03_18 11:42;40;4;1;control;6;72;1;63;82;51;61;0.01;0.96999999999999997;0.01;0.01;92;12;0;0;0.89000000000000001;0.11;0.0;0.0;0;5.283284544388152;37;64;24;2;nein
2019_03_18 11:42;40;4;1;control;7;12;1;53;68;0;0;0.31;0.68999999999999995;0.0;0.0;69;54;97;29;0.25;0.20999999999999999;0.20000000000000001;0.34000000000000002;1;4.083299683019504;37;64;24;2;nein
2019_03_18 11:42;40;4;1;control;8;35;0;33;37;0;0;0.88;0.12;0.0;0.0;63;4;79;98;0.16;0.46000000000000002;0.17000000000000001;0.20999999999999999;0;4.949883429322654;37;64;24;2;nein
2019_03_18 11:42;40;4;1;control;9;45;1;97;87;0;0;0.71999999999999997;0.28000000000000003;0.0;0.0;96;11;14;4;0.25;0.029999999999999999;0.14000000000000001;0.57999999999999996;0;2.5167212929663947;37;64;24;2;nein
2019_03_18 11:42;40;4;1;control;10;3;1;53;40;0;0;0.31;0.68999999999999995;0.0;0.0;96;24;7;88;0.11;0.27000000000000002;0.58999999999999997;0.029999999999999999;0;3.2332487986113847;37;64;24;2;nein
2019_03_18 11:42;40;4;1;control;11;49;1;21;30;0;0;0.53000000000000003;0.46999999999999997;0.0;0.0;93;99;89;25;0.44;0.02;0.11;0.42999999999999999;1;4.750016918706024;37;64;24;2;nein
2019_03_18 11:42;40;4;1;control;12;133;0;59;88;60;36;0.67000000000000004;0.070000000000000007;0.12;0.14000000000000001;7;91;66;61;0.25;0.68999999999999995;0.01;0.0500000000000001;0;9.899964109894427;37;64;24;2;nein
2019_03_18 11:42;40;4;1;control;13;53;1;26;70;50;80;0.29999999999999999;0.59999999999999998;0.040000000000000001;0.059999999999999998;89;1;0;0;0.40999999999999998;0.58999999999999997;0.0;0.0;0;2.7499405840753752;37;64;24;2;nein
2019_03_18 11:42;40;4;1;control;14;18;0;68;50;0;0;0.029999999999999999;0.96999999999999997;0.0;0.0;34;64;15;89;0.65000000000000002;0.029999999999999999;0.050000000000000003;0.27000000000000002;0;3.749989335603459;37;64;24;2;nein
2019_03_18 11:42;40;4;1;control;15;115;1;50;28;61;79;0.83999999999999997;0.040000000000000001;0.059999999999999998;0.059999999999999998;1;26;97;55;0.45000000000000001;0.080000000000000002;0.40999999999999998;0.060000000000000102;0;4.566632273319556;37;64;24;2;nein
2019_03_18 11:42;40;4;1;control;16;83;1;17;12;7;41;0.65000000000000002;0.19;0.089999999999999997;0.070000000000000007;6;84;0;0;0.72999999999999998;0.27000000000000002;0.0;0.0;0;4.48323893604902;37;64;24;2;nein
2019_03_18 11:42;40;4;1;control;17;5;0;70;5;0;0;0.98999999999999999;0.01;0.0;0.0;92;87;47;1;0.44;0.02;0.16;0.38;0;6.683279605087591;37;64;24;2;nein
2019_03_18 11:42;40;4;1;control;18;113;0;85;65;39;64;0.44;0.34000000000000002;0.13;0.089999999999999997;87;2;4;35;0.67000000000000004;0.17000000000000001;0.11;0.049999999999999899;0;4.766573514898482;37;64;24;2;nein
2019_03_18 11:42;40;4;1;control;19;120;0;64;40;48;51;0.19;0.02;0.070000000000000007;0.71999999999999997;97;9;79;94;0.23000000000000001;0.54000000000000004;0.01;0.22;0;5.399963308060251;37;64;24;2;nein
2019_03_18 11:42;40;4;1;control;20;76;0;39;62;9;28;0.01;0.51000000000000001;0.26000000000000001;0.22;77;7;0;0;0.57999999999999996;0.41999999999999998;0.0;0.0;1;5.349957390522832;37;64;24;2;nein
2019_03_18 11:42;40;4;1;control;21;147;1;39;43;76;28;0.14000000000000001;0.10000000000000001;0.10000000000000001;0.66000000000000003;6;31;68;85;0.27000000000000002;0.20000000000000001;0.22;0.31;0;5.8334445744840195;37;64;24;2;nein
2019_03_18 11:42;40;4;1;control;22;74;0;66;47;52;44;0.41999999999999998;0.26000000000000001;0.17999999999999999;0.14000000000000001;17;99;0;0;0.47999999999999998;0.52000000000000002;0.0;0.0;0;5.899929791385148;37;64;24;2;nein
2019_03_18 11:42;40;4;1;control;23;50;0;15;20;0;0;0.82999999999999996;0.17000000000000001;0.0;0.0;97;18;88;87;0.56999999999999995;0.39000000000000001;0.01;0.029999999999999999;1;3.0166342137581523;37;64;24;2;nein
2019_03_18 11:42;40;4;1;control;24;14;0;36;40;0;0;0.54000000000000004;0.46000000000000002;0.0;0.0;99;70;1;11;0.16;0.089999999999999997;0.080000000000000002;0.67000000000000004;0;3.7166015951370355;37;64;24;2;nein
2019_03_18 11:42;40;4;1;control;25;32;1;19;81;0;0;0.93000000000000005;0.070000000000000007;0.0;0.0;1;65;41;68;0.45000000000000001;0.050000000000000003;0.059999999999999998;0.44;1;3.549947383629842;37;64;24;2;nein
2019_03_18 11:42;40;4;1;control;26;143;0;88;44;56;73;0.95999999999999996;0.02;0.01;0.01;20;3;87;32;0.19;0.40000000000000002;0.28000000000000003;0.13;0;5.933209765315041;37;64;24;2;nein
2019_03_18 11:42;40;4;1;control;27;37;0;14;98;0;0;0.93000000000000005;0.070000000000000007;0.0;0.0;41;2;87;66;0.17999999999999999;0.48999999999999999;0.32000000000000001;0.010000000000000101;0;4.150134499692285;37;64;24;2;nein
2019_03_18 11:42;40;4;1;control;28;66;1;89;23;27;15;0.070000000000000007;0.54000000000000004;0.17000000000000001;0.22;9;73;0;0;0.72999999999999998;0.27000000000000002;0.0;0.0;0;4.2499487627846975;37;64;24;2;nein
2019_03_18 11:42;40;4;1;control;29;138;0;8;20;43;51;0.38;0.5;0.02;0.10000000000000001;72;82;70;1;0.39000000000000001;0.050000000000000003;0.070000000000000007;0.48999999999999999;0;3.433295882323364;37;64;24;2;nein
2019_03_18 11:42;40;4;1;control;30;108;1;48;72;39;70;0.14000000000000001;0.66000000000000003;0.02;0.17999999999999999;81;44;98;8;0.59999999999999998;0.029999999999999999;0.050000000000000003;0.32000000000000001;0;5.499982840745361;37;64;24;2;nein
2019_03_18 11:42;40;4;1;control;31;126;1;16;55;51;42;0.68999999999999995;0.23999999999999999;0.01;0.060000000000000102;66;4;1;5;0.46999999999999997;0.38;0.089999999999999997;0.059999999999999998;0;4.899870455643395;37;64;24;2;nein
2019_03_18 11:42;40;4;1;control;32;13;1;52;56;0;0;0.46999999999999997;0.53000000000000003;0.0;0.0;94;71;27;2;0.089999999999999997;0.31;0.57999999999999996;0.020000000000000101;1;6.749950526822431;37;64;24;2;nein
2019_03_18 11:42;40;4;1;control;33;41;0;99;40;0;0;0.89000000000000001;0.11;0.0;0.0;1;67;52;46;0.51000000000000001;0.38;0.029999999999999999;0.080000000000000002;0;3.833390370482448;37;64;24;2;nein
2019_03_18 11:42;40;4;1;control;34;106;1;85;69;22;61;0.10000000000000001;0.58999999999999997;0.17999999999999999;0.13;20;79;91;84;0.55000000000000004;0.14999999999999999;0.26000000000000001;0.039999999999999897;0;4.666769194549488;37;64;24;2;nein
2019_03_18 11:42;40;4;1;control;35;36;1;70;17;0;0;0.33000000000000002;0.67000000000000004;0.0;0.0;84;1;12;88;0.22;0.27000000000000002;0.14000000000000001;0.37;0;4.049991163785307;37;64;24;2;nein
2019_03_18 11:42;40;4;1;control;36;77;0;24;17;99;41;0.17999999999999999;0.13;0.10000000000000001;0.58999999999999997;12;97;0;0;0.59999999999999998;0.40000000000000002;0.0;0.0;0;4.849884102864962;37;64;24;2;nein
2019_03_18 11:42;40;4;1;control;37;56;1;28;84;37;41;0.68000000000000005;0.28000000000000003;0.02;0.0199999999999999;6;95;0;0;0.72999999999999998;0.27000000000000002;0.0;0.0;0;4.21659630303111;37;64;24;2;nein
2019_03_18 11:42;40;4;1;control;38;55;1;74;55;47;48;0.60999999999999999;0.31;0.070000000000000007;0.01;97;6;0;0;0.42999999999999999;0.56999999999999995;0.0;0.0;0;3.6834133510565152;37;64;24;2;nein
2019_03_18 11:42;40;4;1;control;39;137;1;71;22;28;17;0.25;0.46000000000000002;0.050000000000000003;0.23999999999999999;3;98;92;69;0.42999999999999999;0.23999999999999999;0.20000000000000001;0.13;0;3.4667817673143873;37;64;24;2;nein
2019_03_18 11:42;40;4;1;control;40;86;1;56;30;57;88;0.20000000000000001;0.35999999999999999;0.080000000000000002;0.35999999999999999;98;2;0;0;0.77000000000000002;0.23000000000000001;0.0;0.0;0;5.5501058260961145;37;64;24;2;nein
2019_03_18 11:42;40;4;1;control;41;148;1;37;63;55;10;0.72999999999999998;0.070000000000000007;0.029999999999999999;0.17000000000000001;80;14;23;70;0.46999999999999997;0.10000000000000001;0.23000000000000001;0.20000000000000001;1;7.84991328963406;37;64;24;2;nein
2019_03_18 11:42;40;4;1;control;42;105;1;49;74;63;58;0.84999999999999998;0.080000000000000002;0.02;0.050000000000000003;97;5;86;8;0.25;0.52000000000000002;0.070000000000000007;0.16;0;4.066689845025394;37;64;24;2;nein
2019_03_18 11:42;40;4;1;control;43;79;1;52;46;29;22;0.17999999999999999;0.51000000000000001;0.23999999999999999;0.070000000000000104;93;14;0;0;0.45000000000000001;0.55000000000000004;0.0;0.0;0;4.949955273681553;37;64;24;2;nein
2019_03_18 11:42;40;4;1;control;44;67;0;44;42;8;89;0.88;0.070000000000000007;0.029999999999999999;0.02;10;63;0;0;0.39000000000000001;0.60999999999999999;0.0;0.0;1;7.733636405331708;37;64;24;2;nein
2019_03_18 11:42;40;4;1;control;45;129;0;12;29;81;36;0.17999999999999999;0.79000000000000004;0.01;0.02;5;19;95;92;0.47999999999999998;0.26000000000000001;0.13;0.13;1;11.166600007503803;37;64;24;2;nein
2019_03_18 11:42;40;4;1;control;46;87;0;10;30;63;4;0.56999999999999995;0.12;0.16;0.14999999999999999;86;2;0;0;0.42999999999999999;0.56999999999999995;0.0;0.0;1;7.533324395553791;37;64;24;2;nein
2019_03_18 11:42;40;4;1;control;47;103;1;38;49;89;50;0.89000000000000001;0.070000000000000007;0.01;0.029999999999999999;6;64;99;27;0.70999999999999996;0.17999999999999999;0.059999999999999998;0.050000000000000003;0;5.533298416121397;37;64;24;2;nein
2019_03_18 11:42;40;4;1;control;48;39;1;14;33;0;0;0.78000000000000003;0.22;0.0;0.0;93;84;1;25;0.14000000000000001;0.23999999999999999;0.39000000000000001;0.23000000000000001;0;3.416659102695121;37;64;24;2;nein
2019_03_18 11:42;40;4;1;control;49;52;1;71;51;10;54;0.22;0.12;0.19;0.46999999999999997;91;1;0;0;0.29999999999999999;0.69999999999999996;0.0;0.0;0;3.5666155951657856;37;64;24;2;nein
2019_03_18 11:42;40;4;1;control;50;16;0;64;53;0;0;0.65000000000000002;0.34999999999999998;0.0;0.0;29;17;81;46;0.10000000000000001;0.01;0.44;0.45000000000000001;0;7.849903346888823;37;64;24;2;nein
2019_03_18 11:42;40;4;1;control;51;121;1;42;51;47;70;0.41999999999999998;0.17000000000000001;0.23999999999999999;0.17000000000000001;21;76;48;9;0.14999999999999999;0.34000000000000002;0.40999999999999998;0.10000000000000001;0;6.599958753640749;37;64;24;2;nein
2019_03_18 11:42;40;4;1;control;52;31;1;10;59;0;0;0.23999999999999999;0.76000000000000001;0.0;0.0;1;79;53;73;0.23000000000000001;0.58999999999999997;0.050000000000000003;0.13;1;15.149946870456915;37;64;24;2;nein
2019_03_18 11:42;40;4;1;control;53;122;1;35;58;25;31;0.81999999999999995;0.070000000000000007;0.080000000000000002;0.029999999999999999;18;64;68;89;0.63;0.17000000000000001;0.11;0.089999999999999997;0;7.766553629408008;37;64;24;2;nein
2019_03_18 11:42;40;4;1;control;54;128;1;70;49;27;54;0.27000000000000002;0.53000000000000003;0.02;0.17999999999999999;72;97;6;20;0.29999999999999999;0.39000000000000001;0.22;0.0899999999999999;0;4.366618866650242;37;64;24;2;nein
2019_03_18 11:42;40;4;1;control;55;84;1;43;10;5;45;0.78000000000000003;0.13;0.059999999999999998;0.029999999999999999;87;1;0;0;0.57999999999999996;0.41999999999999998;0.0;0.0;1;3.4667808051126485;37;64;24;2;nein
2019_03_18 11:42;40;4;1;control;56;80;0;47;39;45;10;0.13;0.76000000000000001;0.059999999999999998;0.050000000000000003;2;87;0;0;0.48999999999999999;0.51000000000000001;0.0;0.0;0;6.383248910868133;37;64;24;2;nein
2019_03_18 11:42;40;4;1;control;57;6;1;9;51;0;0;0.14999999999999999;0.84999999999999998;0.0;0.0;6;40;50;73;0.42999999999999999;0.26000000000000001;0.059999999999999998;0.25;0;2.8834184186489438;37;64;24;2;nein
2019_03_18 11:42;40;4;1;control;58;91;1;74;81;86;48;0.93000000000000005;0.02;0.01;0.039999999999999897;7;64;0;0;0.13;0.87;0.0;0.0;0;5.049919319430046;37;64;24;2;nein
2019_03_18 11:42;40;4;1;control;59;99;1;8;24;15;73;0.56000000000000005;0.35999999999999999;0.070000000000000007;0.0099999999999999499;88;12;0;0;0.52000000000000002;0.47999999999999998;0.0;0.0;1;6.150122311810264;37;64;24;2;nein
2019_03_18 11:42;40;4;1;control;60;145;0;91;89;90;74;0.57999999999999996;0.29999999999999999;0.11;0.010000000000000101;2;75;84;39;0.32000000000000001;0.27000000000000002;0.39000000000000001;0.0199999999999999;0;6.599904228905871;37;64;24;2;nein
2019_03_18 11:42;40;4;1;control;61;54;0;44;79;78;52;0.79000000000000004;0.19;0.01;0.0099999999999999603;96;1;0;0;0.28000000000000003;0.71999999999999997;0.0;0.0;0;3.466556291497909;37;64;24;2;nein
2019_03_18 11:42;40;4;1;control;62;47;1;2;40;0;0;0.45000000000000001;0.55000000000000004;0.0;0.0;93;89;11;56;0.58999999999999997;0.070000000000000007;0.28000000000000003;0.059999999999999998;1;6.11663033287914;37;64;24;2;nein
2019_03_18 11:42;40;4;1;control;63;97;0;17;33;32;74;0.94999999999999996;0.01;0.029999999999999999;0.01;76;23;0;0;0.33000000000000002;0.67000000000000004;0.0;0.0;1;3.08328781587079;37;64;24;2;nein
2019_03_18 11:42;40;4;1;control;64;4;1;40;43;0;0;0.58999999999999997;0.40999999999999998;0.0;0.0;2;33;88;81;0.69999999999999996;0.14000000000000001;0.13;0.029999999999999999;0;2.466656039689042;37;64;24;2;nein
2019_03_18 11:42;40;4;1;control;65;119;1;60;58;11;18;0.25;0.72999999999999998;0.01;0.01;96;23;42;85;0.44;0.48999999999999999;0.059999999999999998;0.010000000000000101;1;5.633287158367239;37;64;24;2;nein
2019_03_18 11:42;40;4;1;control;66;114;0;57;39;79;97;0.77000000000000002;0.02;0.13;0.080000000000000002;92;36;6;1;0.54000000000000004;0.12;0.13;0.20999999999999999;0;9.416593993748393;37;64;24;2;nein
2019_03_18 11:42;40;4;1;control;67;69;0;54;34;64;49;0.34000000000000002;0.25;0.20999999999999999;0.20000000000000001;14;98;0;0;0.62;0.38;0.0;0.0;0;2.3832514767400426;37;64;24;2;nein
2019_03_18 11:42;40;4;1;control;68;94;0;84;86;93;39;0.78000000000000003;0.20000000000000001;0.01;0.0099999999999999603;9;83;0;0;0.46999999999999997;0.53000000000000003;0.0;0.0;0;2.5499720801271906;37;64;24;2;nein
2019_03_18 11:42;40;4;1;control;69;7;1;49;29;0;0;0.95999999999999996;0.040000000000000001;0.0;0.0;23;99;64;25;0.68999999999999995;0.12;0.059999999999999998;0.13;1;2.1666497212336253;37;64;24;2;nein
2019_03_18 11:42;40;4;1;control;70;134;0;57;48;50;55;0.02;0.62;0.17999999999999999;0.17999999999999999;80;96;15;18;0.23999999999999999;0.35999999999999999;0.33000000000000002;0.070000000000000007;0;4.56659154013505;37;64;24;2;nein
2019_03_18 11:42;40;4;1;control;71;42;1;70;48;0;0;0.79000000000000004;0.20999999999999999;0.0;0.0;51;8;12;67;0.19;0.26000000000000001;0.28999999999999998;0.26000000000000001;0;2.9499466138695425;37;64;24;2;nein
2019_03_18 11:42;40;4;1;control;72;23;0;54;40;0;0;0.93000000000000005;0.070000000000000007;0.0;0.0;36;23;71;86;0.02;0.41999999999999998;0.19;0.37;1;10.766619059089862;37;64;24;2;nein
2019_03_18 11:42;40;4;1;control;73;78;1;74;36;34;3;0.14999999999999999;0.64000000000000001;0.13;0.080000000000000002;1;83;0;0;0.41999999999999998;0.57999999999999996;0.0;0.0;1;4.333430301832777;37;64;24;2;nein
2019_03_18 11:42;40;4;1;control;74;123;0;26;24;51;92;0.72999999999999998;0.16;0.070000000000000007;0.040000000000000001;6;90;82;49;0.64000000000000001;0.25;0.050000000000000003;0.059999999999999998;0;3.633408395719016;37;64;24;2;nein
2019_03_18 11:42;40;4;1;control;75;102;0;40;56;53;17;0.28000000000000003;0.26000000000000001;0.14999999999999999;0.31;1;76;29;62;0.68000000000000005;0.23000000000000001;0.050000000000000003;0.039999999999999897;0;2.500091890215117;37;64;24;2;nein
