date;id;block;order;cond;trial;gameid;leftright;oa1;oa2;oa3;oa4;pa1;pa2;pa3;pa4;ob1;ob2;ob3;ob4;pb1;pb2;pb3;pb4;choice;rt;paytrial;payout;alter;geschlecht;comment
2019_03_21 13:12;49;0;0;practice;1;47;1;91;99;90;78;0.93000000000000005;0.040000000000000001;0.02;0.0099999999999999499;10;87;0;0;0.23000000000000001;0.77000000000000002;0.0;0.0;0;20.494384519761297;53;41;21;2;
2019_03_21 13:12;49;0;0;practice;2;72;1;86;85;97;43;0.51000000000000001;0.14999999999999999;0.33000000000000002;0.0099999999999999499;72;29;10;90;0.01;0.11;0.65000000000000002;0.23000000000000001;1;27.167790895922735;53;41;21;2;
2019_03_21 13:12;49;0;0;practice;3;16;0;50;42;0;0;0.32000000000000001;0.68000000000000005;0.0;0.0;97;2;56;31;0.35999999999999999;0.16;0.16;0.32000000000000001;0;17.20138307139132;53;41;21;2;
2019_03_21 13:12;49;0;0;practice;4;68;1;39;58;40;8;0.48999999999999999;0.44;0.02;0.050000000000000003;92;83;51;2;0.57999999999999996;0.13;0.02;0.27000000000000002;0;13.819170888406006;53;41;21;2;
2019_03_21 13:12;49;0;0;practice;5;24;1;19;38;0;0;0.89000000000000001;0.11;0.0;0.0;45;76;95;57;0.29999999999999999;0.22;0.40000000000000002;0.080000000000000002;1;5.303415215197674;53;41;21;2;
2019_03_21 13:12;49;0;0;practice;6;12;1;45;86;0;0;0.97999999999999998;0.02;0.0;0.0;6;23;95;81;0.14999999999999999;0.40999999999999998;0.050000000000000003;0.39000000000000001;0;6.3141833772297105;53;41;21;2;
2019_03_21 13:12;49;0;0;practice;7;26;1;24;46;74;59;0.29999999999999999;0.11;0.25;0.34000000000000002;91;6;0;0;0.28999999999999998;0.70999999999999996;0.0;0.0;0;9.396122435366124;53;41;21;2;
2019_03_21 13:12;49;0;0;practice;8;50;0;17;12;21;14;0.55000000000000004;0.34000000000000002;0.059999999999999998;0.049999999999999899;13;93;0;0;0.28999999999999998;0.70999999999999996;0.0;0.0;1;8.795900433227871;53;41;21;2;
2019_03_21 13:12;49;0;0;practice;9;44;0;69;48;22;63;0.39000000000000001;0.40999999999999998;0.19;0.01;1;94;0;0;0.22;0.78000000000000003;0.0;0.0;1;5.2734163826153235;53;41;21;2;
2019_03_21 13:12;49;0;0;practice;10;38;0;51;89;10;60;0.57999999999999996;0.029999999999999999;0.080000000000000002;0.31;8;84;0;0;0.33000000000000002;0.67000000000000004;0.0;0.0;1;6.434169085961912;53;41;21;2;
2019_03_21 13:12;49;0;0;practice;11;73;1;99;88;95;28;0.83999999999999997;0.14000000000000001;0.01;0.01;90;93;10;74;0.080000000000000002;0.46000000000000002;0.34999999999999998;0.11;1;2.201791668216174;53;41;21;2;
2019_03_21 13:12;49;0;0;practice;12;19;1;25;73;0;0;0.69999999999999996;0.29999999999999999;0.0;0.0;87;84;1;86;0.040000000000000001;0.59999999999999998;0.28000000000000003;0.080000000000000002;1;3.792708952054454;53;41;21;2;
2019_03_21 13:12;49;0;0;practice;13;48;0;20;25;24;35;0.32000000000000001;0.13;0.48999999999999999;0.059999999999999901;44;76;0;0;0.29999999999999999;0.69999999999999996;0.0;0.0;1;5.433532778190056;53;41;21;2;
2019_03_21 13:12;49;0;0;practice;14;13;1;15;25;0;0;0.29999999999999999;0.69999999999999996;0.0;0.0;3;43;35;73;0.44;0.40000000000000002;0.01;0.14999999999999999;0;5.35340578603973;53;41;21;2;
2019_03_21 13:12;49;0;0;practice;15;27;1;68;43;98;36;0.54000000000000004;0.44;0.01;0.0099999999999999603;97;13;0;0;0.27000000000000002;0.72999999999999998;0.0;0.0;0;5.35357576745082;53;41;21;2;
2019_03_21 13:12;49;0;0;practice;16;1;1;67;36;0;0;0.14999999999999999;0.84999999999999998;0.0;0.0;1;4;81;77;0.25;0.54000000000000004;0.14000000000000001;0.070000000000000007;0;7.034716297817795;53;41;21;2;
2019_03_21 13:12;49;0;0;practice;17;33;0;54;82;55;71;0.56000000000000005;0.20999999999999999;0.02;0.20999999999999999;13;99;0;0;0.5;0.5;0.0;0.0;0;6.354105596301451;53;41;21;2;
2019_03_21 13:12;49;0;0;practice;18;4;0;40;59;0;0;0.19;0.81000000000000005;0.0;0.0;10;88;13;45;0.56000000000000005;0.28999999999999998;0.01;0.14000000000000001;0;8.635615339122523;53;41;21;2;
2019_03_21 13:12;49;0;0;practice;19;59;0;13;27;48;51;0.56999999999999995;0.13;0.13;0.17000000000000001;8;37;97;1;0.65000000000000002;0.16;0.14999999999999999;0.040000000000000001;1;6.013877859697459;53;41;21;2;
2019_03_21 13:12;49;0;0;practice;20;23;1;99;93;0;0;0.57999999999999996;0.41999999999999998;0.0;0.0;64;10;80;81;0.13;0.55000000000000004;0.02;0.29999999999999999;0;7.194600171649654;53;41;21;2;
2019_03_21 13:12;49;0;0;practice;21;6;1;42;59;0;0;0.35999999999999999;0.64000000000000001;0.0;0.0;77;19;6;7;0.44;0.14999999999999999;0.17999999999999999;0.23000000000000001;0;3.9925823960838898;53;41;21;2;
2019_03_21 13:12;49;0;0;practice;22;11;0;10;44;0;0;0.48999999999999999;0.51000000000000001;0.0;0.0;88;12;54;50;0.17000000000000001;0.75;0.02;0.059999999999999998;0;9.756603296742469;53;41;21;2;
2019_03_21 13:12;49;0;0;practice;23;56;1;47;52;64;10;0.77000000000000002;0.040000000000000001;0.11;0.080000000000000002;1;5;12;99;0.14000000000000001;0.28999999999999998;0.27000000000000002;0.29999999999999999;1;8.335411810438018;53;41;21;2;
2019_03_21 13:12;49;0;0;practice;24;30;1;54;78;85;25;0.20999999999999999;0.60999999999999999;0.089999999999999997;0.090000000000000094;87;20;0;0;0.58999999999999997;0.40999999999999998;0.0;0.0;0;1.8811804278921045;53;41;21;2;
2019_03_21 13:12;49;0;0;practice;25;65;0;35;15;77;1;0.62;0.33000000000000002;0.029999999999999999;0.02;68;3;25;96;0.38;0.28000000000000003;0.28000000000000003;0.059999999999999901;1;6.364289727864161;53;41;21;2;
2019_03_21 13:12;49;0;0;practice;26;34;1;57;23;66;79;0.56000000000000005;0.23000000000000001;0.13;0.079999999999999905;85;9;0;0;0.56000000000000005;0.44;0.0;0.0;1;3.622444024800643;53;41;21;2;
2019_03_21 13:12;49;0;0;practice;27;31;1;72;59;40;92;0.59999999999999998;0.34999999999999998;0.02;0.029999999999999999;97;29;0;0;0.38;0.62;0.0;0.0;0;3.3121413552580634;53;41;21;2;
2019_03_21 13:12;49;0;0;practice;28;61;1;51;48;56;88;0.91000000000000003;0.02;0.01;0.059999999999999998;78;21;14;82;0.55000000000000004;0.29999999999999999;0.070000000000000007;0.080000000000000002;1;5.973886365181897;53;41;21;2;
2019_03_21 13:12;49;0;0;practice;29;54;0;69;80;22;55;0.27000000000000002;0.31;0.059999999999999998;0.35999999999999999;52;2;49;90;0.059999999999999998;0.33000000000000002;0.20000000000000001;0.40999999999999998;1;9.056083602630679;53;41;21;2;
2019_03_21 13:12;49;0;0;practice;30;51;0;38;13;51;84;0.91000000000000003;0.070000000000000007;0.01;0.0099999999999999603;4;89;35;16;0.80000000000000004;0.089999999999999997;0.059999999999999998;0.050000000000000003;0;5.403594882342077;53;41;21;2;
2019_03_21 13:12;49;0;0;practice;31;10;1;34;59;0;0;0.16;0.83999999999999997;0.0;0.0;21;61;96;7;0.19;0.01;0.5;0.29999999999999999;0;3.472129462974408;53;41;21;2;
2019_03_21 13:12;49;0;0;practice;32;9;0;57;44;0;0;0.14999999999999999;0.84999999999999998;0.0;0.0;38;35;64;95;0.34000000000000002;0.45000000000000001;0.089999999999999997;0.12;0;4.873269236442866;53;41;21;2;
2019_03_21 13:12;49;0;0;practice;33;46;0;79;57;98;81;0.67000000000000004;0.070000000000000007;0.20999999999999999;0.050000000000000003;1;76;0;0;0.56000000000000005;0.44;0.0;0.0;0;3.2020437538558326;53;41;21;2;
2019_03_21 13:12;49;0;0;practice;34;39;1;53;65;48;75;0.92000000000000004;0.029999999999999999;0.01;0.040000000000000001;16;83;0;0;0.31;0.68999999999999995;0.0;0.0;1;5.913956371865424;53;41;21;2;
2019_03_21 13:12;49;0;0;practice;35;42;1;23;45;91;22;0.72999999999999998;0.02;0.20000000000000001;0.050000000000000003;2;86;0;0;0.40999999999999998;0.58999999999999997;0.0;0.0;0;4.272719138110915;53;41;21;2;
2019_03_21 13:12;49;0;0;practice;36;17;1;27;61;0;0;0.68999999999999995;0.31;0.0;0.0;3;91;69;43;0.29999999999999999;0.33000000000000002;0.27000000000000002;0.099999999999999895;0;4.23273662374595;53;41;21;2;
2019_03_21 13:12;49;0;0;practice;37;60;1;39;93;27;78;0.85999999999999999;0.02;0.11;0.01;22;5;62;95;0.059999999999999998;0.56999999999999995;0.14000000000000001;0.23000000000000001;1;5.4035262483375845;53;41;21;2;
2019_03_21 13:12;49;0;0;practice;38;15;1;24;59;0;0;0.56999999999999995;0.42999999999999999;0.0;0.0;9;8;80;22;0.31;0.10000000000000001;0.55000000000000004;0.039999999999999897;0;5.713689404832621;53;41;21;2;
2019_03_21 13:12;49;0;0;practice;39;62;0;65;52;74;55;0.16;0.12;0.14999999999999999;0.56999999999999995;72;86;2;68;0.12;0.53000000000000003;0.22;0.13;0;6.584260747637018;53;41;21;2;
2019_03_21 13:12;49;0;0;practice;40;49;1;14;31;42;22;0.77000000000000002;0.089999999999999997;0.02;0.12;87;28;0;0;0.68000000000000005;0.32000000000000001;0.0;0.0;1;3.9825740188880445;53;41;21;2;
2019_03_21 13:12;49;0;0;practice;41;70;1;21;42;14;63;0.96999999999999997;0.01;0.01;0.01;70;2;6;76;0.23999999999999999;0.42999999999999999;0.01;0.32000000000000001;1;5.483724760968471;53;41;21;2;
2019_03_21 13:12;49;0;0;practice;42;35;1;84;95;4;35;0.89000000000000001;0.050000000000000003;0.01;0.050000000000000003;5;98;0;0;0.19;0.81000000000000005;0.0;0.0;1;1.9614581582736719;53;41;21;2;
2019_03_21 13:12;49;0;0;practice;43;58;0;44;50;85;42;0.38;0.57999999999999996;0.02;0.02;37;88;19;12;0.20000000000000001;0.29999999999999999;0.46000000000000002;0.040000000000000001;1;7.845249564783444;53;41;21;2;
2019_03_21 13:12;49;0;0;practice;44;25;1;7;18;0;0;0.20999999999999999;0.79000000000000004;0.0;0.0;92;45;33;13;0.41999999999999998;0.17999999999999999;0.22;0.17999999999999999;1;4.152630799091639;53;41;21;2;
2019_03_21 13:12;49;0;0;practice;45;2;1;41;60;0;0;0.97999999999999998;0.02;0.0;0.0;10;14;97;6;0.54000000000000004;0.17000000000000001;0.12;0.17000000000000001;0;2.351502956395052;53;41;21;2;
2019_03_21 13:12;49;0;0;practice;46;43;1;11;17;21;44;0.16;0.46000000000000002;0.25;0.13;2;66;0;0;0.44;0.56000000000000005;0.0;0.0;0;6.314097424365173;53;41;21;2;
2019_03_21 13:12;49;0;0;practice;47;14;1;92;56;0;0;0.11;0.89000000000000001;0.0;0.0;97;31;51;4;0.58999999999999997;0.22;0.080000000000000002;0.11;0;4.3928700174601545;53;41;21;2;
2019_03_21 13:12;49;0;0;practice;48;7;1;13;31;0;0;0.51000000000000001;0.48999999999999999;0.0;0.0;8;79;42;18;0.85999999999999999;0.089999999999999997;0.02;0.029999999999999999;0;6.354314064070422;53;41;21;2;
2019_03_21 13:12;49;0;0;practice;49;55;0;53;11;80;74;0.31;0.37;0.28000000000000003;0.039999999999999897;6;93;98;96;0.69999999999999996;0.22;0.050000000000000003;0.029999999999999999;1;9.045903319705758;53;41;21;2;
2019_03_21 13:12;49;0;0;practice;50;40;1;29;65;30;41;0.70999999999999996;0.01;0.14999999999999999;0.13;2;59;0;0;0.32000000000000001;0.68000000000000005;0.0;0.0;0;6.52435801548927;53;41;21;2;
2019_03_21 13:12;49;0;0;practice;51;66;0;44;18;63;36;0.47999999999999998;0.10000000000000001;0.029999999999999999;0.39000000000000001;13;93;61;53;0.52000000000000002;0.45000000000000001;0.02;0.0099999999999999707;1;7.01469986414304;53;41;21;2;
2019_03_21 13:12;49;0;0;practice;52;57;0;39;68;59;91;0.73999999999999999;0.040000000000000001;0.14999999999999999;0.070000000000000007;9;22;40;84;0.29999999999999999;0.32000000000000001;0.040000000000000001;0.34000000000000002;0;5.773681938480877;53;41;21;2;
2019_03_21 13:12;49;0;0;practice;53;32;1;21;86;16;78;0.45000000000000001;0.41999999999999998;0.050000000000000003;0.080000000000000099;95;9;0;0;0.42999999999999999;0.56999999999999995;0.0;0.0;0;4.7530805121768935;53;41;21;2;
2019_03_21 13:12;49;0;0;practice;54;28;1;37;83;75;8;0.83999999999999997;0.070000000000000007;0.01;0.080000000000000002;94;2;0;0;0.19;0.81000000000000005;0.0;0.0;0;1.6710407480732101;53;41;21;2;
2019_03_21 13:12;49;0;0;practice;55;20;1;32;11;0;0;0.40999999999999998;0.58999999999999997;0.0;0.0;1;86;42;65;0.45000000000000001;0.38;0.050000000000000003;0.12;1;1.0306024269484624;53;41;21;2;
2019_03_21 13:12;49;0;0;practice;56;75;1;21;86;27;62;0.88;0.040000000000000001;0.070000000000000007;0.0099999999999999794;13;3;49;87;0.28999999999999998;0.39000000000000001;0.070000000000000007;0.25;0;3.0421063198446063;53;41;21;2;
2019_03_21 13:12;49;0;0;practice;57;71;0;94;87;26;75;0.71999999999999997;0.23999999999999999;0.02;0.02;90;27;12;83;0.16;0.73999999999999999;0.02;0.080000000000000002;0;2.201410011839471;53;41;21;2;
2019_03_21 13:12;49;0;0;practice;58;18;0;47;36;0;0;0.089999999999999997;0.91000000000000003;0.0;0.0;2;44;81;9;0.20000000000000001;0.25;0.51000000000000001;0.040000000000000001;1;1.6311640711883229;53;41;21;2;
2019_03_21 13:12;49;0;0;practice;59;37;0;50;66;99;12;0.26000000000000001;0.71999999999999997;0.01;0.01;22;90;0;0;0.37;0.63;0.0;0.0;0;4.873276292275477;53;41;21;2;
2019_03_21 13:12;49;0;0;practice;60;64;1;44;60;96;45;0.53000000000000003;0.10000000000000001;0.029999999999999999;0.34000000000000002;88;20;43;31;0.47999999999999998;0.38;0.050000000000000003;0.089999999999999997;1;2.7717297180115565;53;41;21;2;
2019_03_21 13:12;49;0;0;practice;61;74;0;36;46;10;12;0.11;0.19;0.65000000000000002;0.049999999999999899;92;24;79;19;0.51000000000000001;0.40999999999999998;0.02;0.059999999999999998;1;1.2807945380154706;53;41;21;2;
2019_03_21 13:12;49;0;0;practice;62;8;1;20;44;0;0;0.26000000000000001;0.73999999999999999;0.0;0.0;99;3;69;24;0.20999999999999999;0.60999999999999999;0.12;0.060000000000000102;0;3.0319693340697995;53;41;21;2;
2019_03_21 13:12;49;0;0;practice;63;63;1;24;82;6;96;0.91000000000000003;0.070000000000000007;0.01;0.0099999999999999603;73;10;71;22;0.31;0.51000000000000001;0.050000000000000003;0.13;0;6.244075346025056;53;41;21;2;
2019_03_21 13:12;49;0;0;practice;64;21;1;59;69;0;0;0.34000000000000002;0.66000000000000003;0.0;0.0;64;18;5;24;0.14999999999999999;0.040000000000000001;0.51000000000000001;0.29999999999999999;0;2.0713918719375215;53;41;21;2;
2019_03_21 13:12;49;0;0;practice;65;41;1;19;54;51;8;0.76000000000000001;0.070000000000000007;0.16;0.0099999999999999794;2;77;0;0;0.54000000000000004;0.46000000000000002;0.0;0.0;1;3.472235941895633;53;41;21;2;
2019_03_21 13:12;49;0;0;practice;66;69;1;38;74;27;73;0.22;0.19;0.45000000000000001;0.14000000000000001;1;97;79;84;0.28000000000000003;0.45000000000000001;0.17000000000000001;0.10000000000000001;1;2.2814452781731234;53;41;21;2;
2019_03_21 13:12;49;0;0;practice;67;36;0;56;89;86;77;0.66000000000000003;0.080000000000000002;0.14999999999999999;0.11;29;91;0;0;0.40999999999999998;0.58999999999999997;0.0;0.0;1;2.9120650881268375;53;41;21;2;
2019_03_21 13:12;49;0;0;practice;68;22;1;84;87;0;0;0.17000000000000001;0.82999999999999996;0.0;0.0;3;24;41;83;0.68000000000000005;0.11;0.10000000000000001;0.11;0;2.2315502817837114;53;41;21;2;
2019_03_21 13:12;49;0;0;practice;69;29;0;66;40;92;49;0.46999999999999997;0.10000000000000001;0.34000000000000002;0.089999999999999997;8;94;0;0;0.44;0.56000000000000005;0.0;0.0;0;2.7421282570685435;53;41;21;2;
2019_03_21 13:12;49;0;0;practice;70;45;1;37;40;75;23;0.54000000000000004;0.38;0.059999999999999998;0.02;1;90;0;0;0.28000000000000003;0.71999999999999997;0.0;0.0;1;4.2727387020077;53;41;21;2;
2019_03_21 13:12;49;0;0;practice;71;67;0;74;31;10;77;0.11;0.070000000000000007;0.77000000000000002;0.050000000000000003;2;23;8;97;0.56999999999999995;0.01;0.059999999999999998;0.35999999999999999;0;4.803187824969427;53;41;21;2;
2019_03_21 13:12;49;0;0;practice;72;52;0;17;61;57;59;0.070000000000000007;0.050000000000000003;0.33000000000000002;0.55000000000000004;12;93;94;62;0.71999999999999997;0.16;0.080000000000000002;0.040000000000000001;0;4.292889517215372;53;41;21;2;
2019_03_21 13:12;49;0;0;practice;73;53;1;47;24;95;38;0.57999999999999996;0.28000000000000003;0.02;0.12;8;22;93;96;0.54000000000000004;0.34000000000000002;0.10000000000000001;0.0199999999999999;0;2.9219862295813073;53;41;21;2;
2019_03_21 13:12;49;0;0;practice;74;5;0;23;58;0;0;0.71999999999999997;0.28000000000000003;0.0;0.0;94;12;52;3;0.11;0.84999999999999998;0.029999999999999999;0.01;0;4.232753621887241;53;41;21;2;
2019_03_21 13:12;49;0;0;practice;75;3;0;20;70;0;0;0.13;0.87;0.0;0.0;95;19;80;73;0.31;0.57999999999999996;0.029999999999999999;0.080000000000000002;0;3.8324217412009602;53;41;21;2;
2019_03_21 13:12;49;1;0;control;1;44;1;79;74;0;0;0.71999999999999997;0.28000000000000003;0.0;0.0;3;67;15;36;0.41999999999999998;0.53000000000000003;0.02;0.029999999999999999;0;6.999037841067548;53;41;21;2;
2019_03_21 13:12;49;1;0;control;2;54;1;44;79;78;52;0.79000000000000004;0.19;0.01;0.0099999999999999603;96;1;0;0;0.28000000000000003;0.71999999999999997;0.0;0.0;0;5.473549288835784;53;41;21;2;
2019_03_21 13:12;49;1;0;control;3;98;0;27;10;31;79;0.23000000000000001;0.67000000000000004;0.070000000000000007;0.029999999999999999;25;99;0;0;0.38;0.62;0.0;0.0;1;3.602410913705171;53;41;21;2;
2019_03_21 13:12;49;1;0;control;4;21;1;64;28;0;0;0.080000000000000002;0.92000000000000004;0.0;0.0;50;1;88;13;0.57999999999999996;0.13;0.02;0.27000000000000002;0;6.073934216552516;53;41;21;2;
2019_03_21 13:12;49;1;0;control;5;50;0;15;20;0;0;0.82999999999999996;0.17000000000000001;0.0;0.0;97;18;88;87;0.56999999999999995;0.39000000000000001;0.01;0.029999999999999999;1;6.014035012321983;53;41;21;2;
2019_03_21 13:12;49;1;0;control;6;110;0;47;44;23;52;0.13;0.27000000000000002;0.040000000000000001;0.56000000000000005;99;2;30;22;0.28999999999999998;0.5;0.11;0.10000000000000001;0;5.773707275331617;53;41;21;2;
2019_03_21 13:12;49;1;0;control;7;92;1;90;86;65;94;0.16;0.34000000000000002;0.28000000000000003;0.22;79;22;0;0;0.35999999999999999;0.64000000000000001;0.0;0.0;1;4.272906438382051;53;41;21;2;
2019_03_21 13:12;49;1;0;control;8;149;0;14;89;73;53;0.93999999999999995;0.01;0.01;0.040000000000000001;97;45;6;13;0.34000000000000002;0.01;0.40999999999999998;0.23999999999999999;1;4.162811402738953;53;41;21;2;
2019_03_21 13:12;49;1;0;control;9;93;1;87;81;73;98;0.80000000000000004;0.040000000000000001;0.14999999999999999;0.0099999999999999499;5;71;0;0;0.51000000000000001;0.48999999999999999;0.0;0.0;0;5.193350647916304;53;41;21;2;
2019_03_21 13:12;49;1;0;control;10;24;0;35;27;0;0;0.070000000000000007;0.93000000000000005;0.0;0.0;62;3;81;95;0.35999999999999999;0.55000000000000004;0.01;0.080000000000000002;0;7.865263111980312;53;41;21;2;
2019_03_21 13:12;49;1;0;control;11;72;1;63;82;51;61;0.01;0.96999999999999997;0.01;0.01;92;12;0;0;0.89000000000000001;0.11;0.0;0.0;0;4.753118998532955;53;41;21;2;
2019_03_21 13:12;49;1;0;control;12;81;1;67;38;52;65;0.27000000000000002;0.35999999999999999;0.01;0.35999999999999999;2;77;0;0;0.14000000000000001;0.85999999999999999;0.0;0.0;1;4.753068004110901;53;41;21;2;
2019_03_21 13:12;49;1;0;control;13;100;0;27;14;59;52;0.02;0.95999999999999996;0.01;0.01;17;98;0;0;0.48999999999999999;0.51000000000000001;0.0;0.0;1;5.473728250397471;53;41;21;2;
2019_03_21 13:12;49;1;0;control;14;127;1;89;26;62;79;0.02;0.28999999999999998;0.53000000000000003;0.16;96;6;60;13;0.53000000000000003;0.25;0.17000000000000001;0.050000000000000003;0;12.618486023678997;53;41;21;2;
2019_03_21 13:12;49;1;0;control;15;23;1;54;40;0;0;0.93000000000000005;0.070000000000000007;0.0;0.0;36;23;71;86;0.02;0.41999999999999998;0.19;0.37;0;3.0719678844179725;53;41;21;2;
2019_03_21 13:12;49;1;0;control;16;90;1;27;44;50;72;0.68000000000000005;0.28999999999999998;0.02;0.0099999999999999707;6;96;0;0;0.46999999999999997;0.53000000000000003;0.0;0.0;0;4.3128860662709485;53;41;21;2;
2019_03_21 13:12;49;1;0;control;17;32;0;19;81;0;0;0.93000000000000005;0.070000000000000007;0.0;0.0;1;65;41;68;0.45000000000000001;0.050000000000000003;0.059999999999999998;0.44;1;6.714497939055946;53;41;21;2;
2019_03_21 13:12;49;1;0;control;18;11;1;17;36;0;0;0.14000000000000001;0.85999999999999999;0.0;0.0;19;41;34;95;0.88;0.02;0.050000000000000003;0.050000000000000003;0;5.4736939333961345;53;41;21;2;
2019_03_21 13:12;49;1;0;control;19;5;1;70;5;0;0;0.98999999999999999;0.01;0.0;0.0;92;87;47;1;0.44;0.02;0.16;0.38;0;1.9113572598726023;53;41;21;2;
2019_03_21 13:12;49;1;0;control;20;96;0;51;54;39;7;0.17000000000000001;0.26000000000000001;0.10000000000000001;0.46999999999999997;24;96;0;0;0.28000000000000003;0.71999999999999997;0.0;0.0;1;3.142012413132761;53;41;21;2;
2019_03_21 13:12;49;1;0;control;21;45;1;97;87;0;0;0.71999999999999997;0.28000000000000003;0.0;0.0;96;11;14;4;0.25;0.029999999999999999;0.14000000000000001;0.57999999999999996;0;4.242823577256786;53;41;21;2;
2019_03_21 13:12;49;1;0;control;22;131;0;83;41;81;88;0.23999999999999999;0.58999999999999997;0.10000000000000001;0.070000000000000007;82;97;4;17;0.26000000000000001;0.46999999999999997;0.11;0.16;1;8.445734557028118;53;41;21;2;
2019_03_21 13:12;49;1;0;control;23;14;0;36;40;0;0;0.54000000000000004;0.46000000000000002;0.0;0.0;99;70;1;11;0.16;0.089999999999999997;0.080000000000000002;0.67000000000000004;0;10.717127519414134;53;41;21;2;
2019_03_21 13:12;49;1;0;control;24;29;0;44;51;0;0;0.78000000000000003;0.22;0.0;0.0;74;1;68;82;0.69999999999999996;0.28000000000000003;0.01;0.01;0;6.434303146774255;53;41;21;2;
2019_03_21 13:12;49;1;0;control;25;133;0;59;88;60;36;0.67000000000000004;0.070000000000000007;0.12;0.14000000000000001;7;91;66;61;0.25;0.68999999999999995;0.01;0.0500000000000001;0;7.494800813858092;53;41;21;2;
2019_03_21 13:12;49;1;0;control;26;22;0;32;55;0;0;0.39000000000000001;0.60999999999999999;0.0;0.0;93;72;59;22;0.20000000000000001;0.11;0.14000000000000001;0.55000000000000004;1;7.955192900035399;53;41;21;2;
2019_03_21 13:12;49;1;0;control;27;18;0;68;50;0;0;0.029999999999999999;0.96999999999999997;0.0;0.0;34;64;15;89;0.65000000000000002;0.029999999999999999;0.050000000000000003;0.27000000000000002;0;2.871984112833161;53;41;21;2;
2019_03_21 13:12;49;1;0;control;28;27;0;44;26;0;0;0.35999999999999999;0.64000000000000001;0.0;0.0;63;10;3;5;0.58999999999999997;0.19;0.14999999999999999;0.070000000000000007;1;7.755075388360638;53;41;21;2;
2019_03_21 13:12;49;1;0;control;29;122;0;35;58;25;31;0.81999999999999995;0.070000000000000007;0.080000000000000002;0.029999999999999999;18;64;68;89;0.63;0.17000000000000001;0.11;0.089999999999999997;1;2.8518195066826593;53;41;21;2;
2019_03_21 13:12;49;1;0;control;30;114;1;57;39;79;97;0.77000000000000002;0.02;0.13;0.080000000000000002;92;36;6;1;0.54000000000000004;0.12;0.13;0.20999999999999999;0;7.134733680823047;53;41;21;2;
2019_03_21 13:12;49;1;0;control;31;73;1;65;68;70;47;0.25;0.23000000000000001;0.20999999999999999;0.31;27;95;0;0;0.45000000000000001;0.55000000000000004;0.0;0.0;1;5.113297421286916;53;41;21;2;
2019_03_21 13:12;49;1;0;control;32;69;0;54;34;64;49;0.34000000000000002;0.25;0.20999999999999999;0.20000000000000001;14;98;0;0;0.62;0.38;0.0;0.0;0;4.472891813567912;53;41;21;2;
2019_03_21 13:12;49;1;0;control;33;8;0;50;36;0;0;0.080000000000000002;0.92000000000000004;0.0;0.0;6;19;84;29;0.54000000000000004;0.070000000000000007;0.17000000000000001;0.22;0;4.432852211106365;53;41;21;2;
2019_03_21 13:12;49;1;0;control;34;123;0;26;24;51;92;0.72999999999999998;0.16;0.070000000000000007;0.040000000000000001;6;90;82;49;0.64000000000000001;0.25;0.050000000000000003;0.059999999999999998;0;7.334783841375611;53;41;21;2;
2019_03_21 13:12;49;1;0;control;35;88;0;77;13;12;7;0.12;0.19;0.66000000000000003;0.029999999999999898;94;2;0;0;0.40999999999999998;0.58999999999999997;0.0;0.0;1;8.875917097821002;53;41;21;2;
2019_03_21 13:12;49;1;0;control;36;76;0;39;62;9;28;0.01;0.51000000000000001;0.26000000000000001;0.22;77;7;0;0;0.57999999999999996;0.41999999999999998;0.0;0.0;0;4.873286234584157;53;41;21;2;
2019_03_21 13:12;49;1;0;control;37;70;0;66;55;69;50;0.22;0.29999999999999999;0.29999999999999999;0.17999999999999999;2;90;0;0;0.34000000000000002;0.66000000000000003;0.0;0.0;0;4.1528257966347155;53;41;21;2;
2019_03_21 13:12;49;1;0;control;38;41;0;99;40;0;0;0.89000000000000001;0.11;0.0;0.0;1;67;52;46;0.51000000000000001;0.38;0.029999999999999999;0.080000000000000002;0;3.1920889368393546;53;41;21;2;
2019_03_21 13:12;49;1;0;control;39;144;1;99;93;90;71;0.65000000000000002;0.32000000000000001;0.01;0.02;97;14;48;73;0.23000000000000001;0.46000000000000002;0.13;0.17999999999999999;0;4.342942307666817;53;41;21;2;
2019_03_21 13:12;49;1;0;control;40;97;0;17;33;32;74;0.94999999999999996;0.01;0.029999999999999999;0.01;76;23;0;0;0.33000000000000002;0.67000000000000004;0.0;0.0;1;4.632988965960976;53;41;21;2;
2019_03_21 13:12;49;1;0;control;41;55;1;74;55;47;48;0.60999999999999999;0.31;0.070000000000000007;0.01;97;6;0;0;0.42999999999999999;0.56999999999999995;0.0;0.0;0;3.1125671426580084;53;41;21;2;
2019_03_21 13:12;49;1;0;control;42;118;1;62;52;65;68;0.40999999999999998;0.44;0.10000000000000001;0.0500000000000001;79;20;14;37;0.56999999999999995;0.23999999999999999;0.14000000000000001;0.050000000000000003;1;12.207991178926022;53;41;21;2;
2019_03_21 13:12;49;1;0;control;43;126;0;16;55;51;42;0.68999999999999995;0.23999999999999999;0.01;0.060000000000000102;66;4;1;5;0.46999999999999997;0.38;0.089999999999999997;0.059999999999999998;1;7.374800993462486;53;41;21;2;
2019_03_21 13:12;49;1;0;control;44;13;0;52;56;0;0;0.46999999999999997;0.53000000000000003;0.0;0.0;94;71;27;2;0.089999999999999997;0.31;0.57999999999999996;0.020000000000000101;0;2.4317040347814327;53;41;21;2;
2019_03_21 13:12;49;1;0;control;45;94;1;84;86;93;39;0.78000000000000003;0.20000000000000001;0.01;0.0099999999999999603;9;83;0;0;0.46999999999999997;0.53000000000000003;0.0;0.0;0;2.7717720530035876;53;41;21;2;
2019_03_21 13:12;49;1;0;control;46;43;0;60;83;0;0;0.23000000000000001;0.77000000000000002;0.0;0.0;72;5;70;12;0.29999999999999999;0.40999999999999998;0.12;0.17000000000000001;0;2.871877313189543;53;41;21;2;
2019_03_21 13:12;49;1;0;control;47;121;1;42;51;47;70;0.41999999999999998;0.17000000000000001;0.23999999999999999;0.17000000000000001;21;76;48;9;0.14999999999999999;0.34000000000000002;0.40999999999999998;0.10000000000000001;1;8.525673928186734;53;41;21;2;
2019_03_21 13:12;49;1;0;control;48;49;1;21;30;0;0;0.53000000000000003;0.46999999999999997;0.0;0.0;93;99;89;25;0.44;0.02;0.11;0.42999999999999999;1;1.9912661626658519;53;41;21;2;
2019_03_21 13:12;49;1;0;control;49;119;0;60;58;11;18;0.25;0.72999999999999998;0.01;0.01;96;23;42;85;0.44;0.48999999999999999;0.059999999999999998;0.010000000000000101;1;2.9720146453419147;53;41;21;2;
2019_03_21 13:12;49;1;0;control;50;135;0;48;60;41;51;0.14000000000000001;0.40000000000000002;0.089999999999999997;0.37;94;1;85;65;0.64000000000000001;0.29999999999999999;0.01;0.050000000000000003;1;4.602973135239154;53;41;21;2;
2019_03_21 13:12;49;1;0;control;51;65;1;75;64;59;52;0.59999999999999998;0.22;0.14000000000000001;0.040000000000000001;1;99;0;0;0.35999999999999999;0.64000000000000001;0.0;0.0;0;4.192720754537731;53;41;21;2;
2019_03_21 13:12;49;1;0;control;52;16;0;64;53;0;0;0.65000000000000002;0.34999999999999998;0.0;0.0;29;17;81;46;0.10000000000000001;0.01;0.44;0.45000000000000001;0;2.7917971461083653;53;41;21;2;
2019_03_21 13:12;49;1;0;control;53;31;1;10;59;0;0;0.23999999999999999;0.76000000000000001;0.0;0.0;1;79;53;73;0.23000000000000001;0.58999999999999997;0.050000000000000003;0.13;0;4.833116419948055;53;41;21;2;
2019_03_21 13:12;49;1;0;control;54;120;1;64;40;48;51;0.19;0.02;0.070000000000000007;0.71999999999999997;97;9;79;94;0.23000000000000001;0.54000000000000004;0.01;0.22;0;7.8452245486514585;53;41;21;2;
2019_03_21 13:12;49;1;0;control;55;132;0;27;70;21;19;0.64000000000000001;0.23000000000000001;0.029999999999999999;0.10000000000000001;11;85;55;6;0.39000000000000001;0.46999999999999997;0.029999999999999999;0.11;0;14.689704386290032;53;41;21;2;
2019_03_21 13:12;49;1;0;control;56;74;0;66;47;52;44;0.41999999999999998;0.26000000000000001;0.17999999999999999;0.14000000000000001;17;99;0;0;0.47999999999999998;0.52000000000000002;0.0;0.0;0;4.032881460738281;53;41;21;2;
2019_03_21 13:12;49;1;0;control;57;57;0;52;35;23;47;0.22;0.68000000000000005;0.040000000000000001;0.059999999999999998;71;7;0;0;0.28999999999999998;0.70999999999999996;0.0;0.0;0;3.4023075136919942;53;41;21;2;
2019_03_21 13:12;49;1;0;control;58;99;0;8;24;15;73;0.56000000000000005;0.35999999999999999;0.070000000000000007;0.0099999999999999499;88;12;0;0;0.52000000000000002;0.47999999999999998;0.0;0.0;1;6.6745372336263245;53;41;21;2;
2019_03_21 13:12;49;1;0;control;59;4;0;40;43;0;0;0.58999999999999997;0.40999999999999998;0.0;0.0;2;33;88;81;0.69999999999999996;0.14000000000000001;0.13;0.029999999999999999;0;3.7524057180453383;53;41;21;2;
2019_03_21 13:12;49;1;0;control;60;6;0;9;51;0;0;0.14999999999999999;0.84999999999999998;0.0;0.0;6;40;50;73;0.42999999999999999;0.26000000000000001;0.059999999999999998;0.25;0;9.676505490078853;53;41;21;2;
2019_03_21 13:12;49;1;0;control;61;30;0;33;30;0;0;0.71999999999999997;0.28000000000000003;0.0;0.0;9;88;1;14;0.55000000000000004;0.39000000000000001;0.01;0.049999999999999899;0;4.162664513140044;53;41;21;2;
2019_03_21 13:12;49;1;0;control;62;138;0;8;20;43;51;0.38;0.5;0.02;0.10000000000000001;72;82;70;1;0.39000000000000001;0.050000000000000003;0.070000000000000007;0.48999999999999999;1;3.8825277711130184;53;41;21;2;
2019_03_21 13:12;49;1;0;control;63;105;0;49;74;63;58;0.84999999999999998;0.080000000000000002;0.02;0.050000000000000003;97;5;86;8;0.25;0.52000000000000002;0.070000000000000007;0.16;0;3.132536751263615;53;41;21;2;
2019_03_21 13:12;49;1;0;control;64;10;0;45;62;0;0;0.059999999999999998;0.93999999999999995;0.0;0.0;17;99;28;67;0.58999999999999997;0.34000000000000002;0.01;0.059999999999999998;0;9.756370454279022;53;41;21;2;
2019_03_21 13:12;49;1;0;control;65;52;0;71;51;10;54;0.22;0.12;0.19;0.46999999999999997;91;1;0;0;0.29999999999999999;0.69999999999999996;0.0;0.0;0;2.79176828134041;53;41;21;2;
2019_03_21 13:12;49;1;0;control;66;66;1;89;23;27;15;0.070000000000000007;0.54000000000000004;0.17000000000000001;0.22;9;73;0;0;0.72999999999999998;0.27000000000000002;0.0;0.0;0;3.9126818320019083;53;41;21;2;
2019_03_21 13:12;49;1;0;control;67;19;1;22;53;0;0;0.13;0.87;0.0;0.0;4;93;96;65;0.46999999999999997;0.059999999999999998;0.26000000000000001;0.20999999999999999;1;7.395013066117826;53;41;21;2;
2019_03_21 13:12;49;1;0;control;68;136;0;29;67;14;75;0.46000000000000002;0.29999999999999999;0.20999999999999999;0.0300000000000001;70;86;1;85;0.31;0.39000000000000001;0.27000000000000002;0.029999999999999898;0;16.650932588579963;53;41;21;2;
2019_03_21 13:12;49;1;0;control;69;78;0;74;36;34;3;0.14999999999999999;0.64000000000000001;0.13;0.080000000000000002;1;83;0;0;0.41999999999999998;0.57999999999999996;0.0;0.0;0;2.6716892431923043;53;41;21;2;
2019_03_21 13:12;49;1;0;control;70;62;0;12;45;16;50;0.20999999999999999;0.76000000000000001;0.02;0.01;92;15;0;0;0.20999999999999999;0.79000000000000004;0.0;0.0;1;4.552944719478546;53;41;21;2;
2019_03_21 13:12;49;1;0;control;71;58;1;37;58;76;34;0.20999999999999999;0.57999999999999996;0.19;0.020000000000000101;86;5;0;0;0.47999999999999998;0.52000000000000002;0.0;0.0;0;7.474800095445971;53;41;21;2;
2019_03_21 13:12;49;1;0;control;72;20;0;44;40;0;0;0.91000000000000003;0.089999999999999997;0.0;0.0;29;5;80;99;0.25;0.40000000000000002;0.26000000000000001;0.089999999999999997;0;3.8726370980257343;53;41;21;2;
2019_03_21 13:12;49;1;0;control;73;68;1;84;27;55;62;0.01;0.050000000000000003;0.40999999999999998;0.53000000000000003;9;82;0;0;0.37;0.63;0.0;0.0;0;3.992564435784516;53;41;21;2;
2019_03_21 13:12;49;1;0;control;74;102;0;40;56;53;17;0.28000000000000003;0.26000000000000001;0.14999999999999999;0.31;1;76;29;62;0.68000000000000005;0.23000000000000001;0.050000000000000003;0.039999999999999897;0;5.013392931596172;53;41;21;2;
2019_03_21 13:12;49;1;0;control;75;2;1;59;32;0;0;0.080000000000000002;0.92000000000000004;0.0;0.0;33;38;85;1;0.28999999999999998;0.050000000000000003;0.070000000000000007;0.58999999999999997;1;3.9927126082584437;53;41;21;2;
2019_03_21 13:12;49;2;0;timed;1;41;1;99;40;0;0;0.89000000000000001;0.11;0.0;0.0;1;67;52;46;0.51000000000000001;0.38;0.029999999999999999;0.080000000000000002;NA;3.315279276250294;53;41;21;2;
2019_03_21 13:12;49;2;0;timed;2;149;1;14;89;73;53;0.93999999999999995;0.01;0.01;0.040000000000000001;97;45;6;13;0.34000000000000002;0.01;0.40999999999999998;0.23999999999999999;0;1.801639069810335;53;41;21;2;
2019_03_21 13:12;49;2;0;timed;3;25;0;50;53;0;0;0.82999999999999996;0.17000000000000001;0.0;0.0;83;16;97;4;0.45000000000000001;0.29999999999999999;0.11;0.14000000000000001;0;1.7110524479248852;53;41;21;2;
2019_03_21 13:12;49;2;0;timed;4;101;1;30;96;61;45;0.65000000000000002;0.14000000000000001;0.11;0.10000000000000001;3;98;63;89;0.75;0.19;0.040000000000000001;0.02;0;1.7013888443434553;53;41;21;2;
2019_03_21 13:12;49;2;0;timed;5;97;0;17;33;32;74;0.94999999999999996;0.01;0.029999999999999999;0.01;76;23;0;0;0.33000000000000002;0.67000000000000004;0.0;0.0;0;1.3910451226893201;53;41;21;2;
2019_03_21 13:12;49;2;0;timed;6;68;1;84;27;55;62;0.01;0.050000000000000003;0.40999999999999998;0.53000000000000003;9;82;0;0;0.37;0.63;0.0;0.0;0;1.551107316641719;53;41;21;2;
2019_03_21 13:12;49;2;0;timed;7;88;1;77;13;12;7;0.12;0.19;0.66000000000000003;0.029999999999999898;94;2;0;0;0.40999999999999998;0.58999999999999997;0.0;0.0;1;1.6311377721776807;53;41;21;2;
2019_03_21 13:12;49;2;0;timed;8;5;1;70;5;0;0;0.98999999999999999;0.01;0.0;0.0;92;87;47;1;0.44;0.02;0.16;0.38;1;1.5110770150495227;53;41;21;2;
2019_03_21 13:12;49;2;0;timed;9;48;0;13;32;0;0;0.90000000000000002;0.10000000000000001;0.0;0.0;24;99;84;94;0.62;0.14999999999999999;0.20000000000000001;0.029999999999999999;1;1.2007252754010551;53;41;21;2;
2019_03_21 13:12;49;2;0;timed;10;13;1;52;56;0;0;0.46999999999999997;0.53000000000000003;0.0;0.0;94;71;27;2;0.089999999999999997;0.31;0.57999999999999996;0.020000000000000101;0;1.9012035966788972;53;41;21;2;
2019_03_21 13:12;49;2;0;timed;11;79;1;52;46;29;22;0.17999999999999999;0.51000000000000001;0.23999999999999999;0.070000000000000104;93;14;0;0;0.45000000000000001;0.55000000000000004;0.0;0.0;0;1.2307609907420556;53;41;21;2;
2019_03_21 13:12;49;2;0;timed;12;148;1;37;63;55;10;0.72999999999999998;0.070000000000000007;0.029999999999999999;0.17000000000000001;80;14;23;70;0.46999999999999997;0.10000000000000001;0.23000000000000001;0.20000000000000001;0;1.7313443797720538;53;41;21;2;
2019_03_21 13:12;49;2;0;timed;13;99;0;8;24;15;73;0.56000000000000005;0.35999999999999999;0.070000000000000007;0.0099999999999999499;88;12;0;0;0.52000000000000002;0.47999999999999998;0.0;0.0;0;2.3615385947596224;53;41;21;2;
2019_03_21 13:12;49;2;0;timed;14;71;0;68;55;36;51;0.20000000000000001;0.75;0.02;0.029999999999999999;38;81;0;0;0.52000000000000002;0.47999999999999998;0.0;0.0;1;1.6310341797343426;53;41;21;2;
2019_03_21 13:12;49;2;0;timed;15;77;0;24;17;99;41;0.17999999999999999;0.13;0.10000000000000001;0.58999999999999997;12;97;0;0;0.59999999999999998;0.40000000000000002;0.0;0.0;1;1.4307585532715166;53;41;21;2;
2019_03_21 13:12;49;2;0;timed;16;10;1;45;62;0;0;0.059999999999999998;0.93999999999999995;0.0;0.0;17;99;28;67;0.58999999999999997;0.34000000000000002;0.01;0.059999999999999998;1;1.7110899721228634;53;41;21;2;
2019_03_21 13:12;49;2;0;timed;17;136;0;29;67;14;75;0.46000000000000002;0.29999999999999999;0.20999999999999999;0.0300000000000001;70;86;1;85;0.31;0.39000000000000001;0.27000000000000002;0.029999999999999898;1;1.4410472394374665;53;41;21;2;
2019_03_21 13:12;49;2;0;timed;18;144;0;99;93;90;71;0.65000000000000002;0.32000000000000001;0.01;0.02;97;14;48;73;0.23000000000000001;0.46000000000000002;0.13;0.17999999999999999;0;1.3309602217850625;53;41;21;2;
2019_03_21 13:12;49;2;0;timed;19;141;1;93;28;60;91;0.81999999999999995;0.10000000000000001;0.01;0.070000000000000007;14;85;7;89;0.45000000000000001;0.070000000000000007;0.23999999999999999;0.23999999999999999;0;1.881191332358867;53;41;21;2;
2019_03_21 13:12;49;2;0;timed;20;69;0;54;34;64;49;0.34000000000000002;0.25;0.20999999999999999;0.20000000000000001;14;98;0;0;0.62;0.38;0.0;0.0;0;1.3513393893754255;53;41;21;2;
2019_03_21 13:12;49;2;0;timed;21;6;1;9;51;0;0;0.14999999999999999;0.84999999999999998;0.0;0.0;6;40;50;73;0.42999999999999999;0.26000000000000001;0.059999999999999998;0.25;1;1.4710268288399675;53;41;21;2;
2019_03_21 13:12;49;2;0;timed;22;35;1;33;37;0;0;0.88;0.12;0.0;0.0;63;4;79;98;0.16;0.46000000000000002;0.17000000000000001;0.20999999999999999;1;1.590966353942349;53;41;21;2;
2019_03_21 13:12;49;2;0;timed;23;142;1;98;65;64;84;0.88;0.070000000000000007;0.01;0.040000000000000001;5;68;60;16;0.46000000000000002;0.080000000000000002;0.27000000000000002;0.19;0;1.5310815820976131;53;41;21;2;
2019_03_21 13:12;49;2;0;timed;24;122;1;35;58;25;31;0.81999999999999995;0.070000000000000007;0.080000000000000002;0.029999999999999999;18;64;68;89;0.63;0.17000000000000001;0.11;0.089999999999999997;1;2.2415108717559633;53;41;21;2;
2019_03_21 13:12;49;2;0;timed;25;63;1;56;78;42;36;0.93000000000000005;0.040000000000000001;0.01;0.0199999999999999;2;72;0;0;0.32000000000000001;0.68000000000000005;0.0;0.0;0;1.6310216716683499;53;41;21;2;
2019_03_21 13:12;49;2;0;timed;26;109;1;75;28;16;56;0.19;0.070000000000000007;0.059999999999999998;0.68000000000000005;3;50;98;44;0.5;0.02;0.34999999999999998;0.13;0;1.8412123459111172;53;41;21;2;
2019_03_21 13:12;49;2;0;timed;27;128;0;70;49;27;54;0.27000000000000002;0.53000000000000003;0.02;0.17999999999999999;72;97;6;20;0.29999999999999999;0.39000000000000001;0.22;0.0899999999999999;0;2.291455258968199;53;41;21;2;
2019_03_21 13:12;49;2;0;timed;28;83;1;17;12;7;41;0.65000000000000002;0.19;0.089999999999999997;0.070000000000000007;6;84;0;0;0.72999999999999998;0.27000000000000002;0.0;0.0;1;2.271482443165951;53;41;21;2;
2019_03_21 13:12;49;2;0;timed;29;121;1;42;51;47;70;0.41999999999999998;0.17000000000000001;0.23999999999999999;0.17000000000000001;21;76;48;9;0.14999999999999999;0.34000000000000002;0.40999999999999998;0.10000000000000001;0;2.4416668697886053;53;41;21;2;
2019_03_21 13:12;49;2;0;timed;30;66;0;89;23;27;15;0.070000000000000007;0.54000000000000004;0.17000000000000001;0.22;9;73;0;0;0.72999999999999998;0.27000000000000002;0.0;0.0;0;1.4709171427221008;53;41;21;2;
2019_03_21 13:12;49;2;0;timed;31;105;0;49;74;63;58;0.84999999999999998;0.080000000000000002;0.02;0.050000000000000003;97;5;86;8;0.25;0.52000000000000002;0.070000000000000007;0.16;0;1.5609710492790327;53;41;21;2;
2019_03_21 13:12;49;2;0;timed;32;39;1;14;33;0;0;0.78000000000000003;0.22;0.0;0.0;93;84;1;25;0.14000000000000001;0.23999999999999999;0.39000000000000001;0.23000000000000001;1;1.8011053923237341;53;41;21;2;
2019_03_21 13:12;49;2;0;timed;33;31;1;10;59;0;0;0.23999999999999999;0.76000000000000001;0.0;0.0;1;79;53;73;0.23000000000000001;0.58999999999999997;0.050000000000000003;0.13;0;1.4709155391246895;53;41;21;2;
2019_03_21 13:12;49;2;0;timed;34;43;0;60;83;0;0;0.23000000000000001;0.77000000000000002;0.0;0.0;72;5;70;12;0.29999999999999999;0.40999999999999998;0.12;0.17000000000000001;1;1.5109339740884025;53;41;21;2;
2019_03_21 13:12;49;2;0;timed;35;113;0;85;65;39;64;0.44;0.34000000000000002;0.13;0.089999999999999997;87;2;4;35;0.67000000000000004;0.17000000000000001;0.11;0.049999999999999899;0;1.0906860449758824;53;41;21;2;
2019_03_21 13:12;49;2;0;timed;36;143;0;88;44;56;73;0.95999999999999996;0.02;0.01;0.01;20;3;87;32;0.19;0.40000000000000002;0.28000000000000003;0.13;0;1.441042107924659;53;41;21;2;
2019_03_21 13:12;49;2;0;timed;37;111;1;51;36;48;27;0.93000000000000005;0.01;0.01;0.049999999999999899;31;78;30;53;0.55000000000000004;0.16;0.029999999999999999;0.26000000000000001;1;1.6411589781600924;53;41;21;2;
2019_03_21 13:12;49;2;0;timed;38;15;0;77;81;0;0;0.28000000000000003;0.71999999999999997;0.0;0.0;98;14;87;18;0.55000000000000004;0.23000000000000001;0.16;0.059999999999999901;0;1.510944878555165;53;41;21;2;
2019_03_21 13:12;49;2;0;timed;39;22;1;32;55;0;0;0.39000000000000001;0.60999999999999999;0.0;0.0;93;72;59;22;0.20000000000000001;0.11;0.14000000000000001;0.55000000000000004;1;1.1908625049236434;53;41;21;2;
2019_03_21 13:12;49;2;0;timed;40;18;1;68;50;0;0;0.029999999999999999;0.96999999999999997;0.0;0.0;34;64;15;89;0.65000000000000002;0.029999999999999999;0.050000000000000003;0.27000000000000002;0;1.310754884239941;53;41;21;2;
2019_03_21 13:12;49;2;0;timed;41;7;1;49;29;0;0;0.95999999999999996;0.040000000000000001;0.0;0.0;23;99;64;25;0.68999999999999995;0.12;0.059999999999999998;0.13;1;1.43090800862592;53;41;21;2;
2019_03_21 13:12;49;2;0;timed;42;11;1;17;36;0;0;0.14000000000000001;0.85999999999999999;0.0;0.0;19;41;34;95;0.88;0.02;0.050000000000000003;0.050000000000000003;1;1.400850163630821;53;41;21;2;
2019_03_21 13:12;49;2;0;timed;43;70;0;66;55;69;50;0.22;0.29999999999999999;0.29999999999999999;0.17999999999999999;2;90;0;0;0.34000000000000002;0.66000000000000003;0.0;0.0;0;1.3908401828375645;53;41;21;2;
2019_03_21 13:12;49;2;0;timed;44;96;1;51;54;39;7;0.17000000000000001;0.26000000000000001;0.10000000000000001;0.46999999999999997;24;96;0;0;0.28000000000000003;0.71999999999999997;0.0;0.0;0;1.4310148082677188;53;41;21;2;
2019_03_21 13:12;49;2;0;timed;45;58;0;37;58;76;34;0.20999999999999999;0.57999999999999996;0.19;0.020000000000000101;86;5;0;0;0.47999999999999998;0.52000000000000002;0.0;0.0;0;1.47105473144984;53;41;21;2;
2019_03_21 13:12;49;2;0;timed;46;138;0;8;20;43;51;0.38;0.5;0.02;0.10000000000000001;72;82;70;1;0.39000000000000001;0.050000000000000003;0.070000000000000007;0.48999999999999999;1;1.2504124454608245;53;41;21;2;
2019_03_21 13:12;49;2;0;timed;47;36;1;70;17;0;0;0.33000000000000002;0.67000000000000004;0.0;0.0;84;1;12;88;0.22;0.27000000000000002;0.14000000000000001;0.37;1;1.5609559754575457;53;41;21;2;
2019_03_21 13:12;49;2;0;timed;48;107;0;52;48;13;63;0.68000000000000005;0.19;0.050000000000000003;0.079999999999999905;54;91;33;3;0.19;0.17999999999999999;0.33000000000000002;0.29999999999999999;1;1.240763594983946;53;41;21;2;
2019_03_21 13:12;49;2;0;timed;49;115;0;50;28;61;79;0.83999999999999997;0.040000000000000001;0.059999999999999998;0.059999999999999998;1;26;97;55;0.45000000000000001;0.080000000000000002;0.40999999999999998;0.060000000000000102;1;1.3610215946955577;53;41;21;2;
2019_03_21 13:12;49;2;0;timed;50;106;0;85;69;22;61;0.10000000000000001;0.58999999999999997;0.17999999999999999;0.13;20;79;91;84;0.55000000000000004;0.14999999999999999;0.26000000000000001;0.039999999999999897;0;1.250919182499274;53;41;21;2;
2019_03_21 13:12;49;2;0;timed;51;86;0;56;30;57;88;0.20000000000000001;0.35999999999999999;0.080000000000000002;0.35999999999999999;98;2;0;0;0.77000000000000002;0.23000000000000001;0.0;0.0;1;1.3508252757856098;53;41;21;2;
2019_03_21 13:12;49;2;0;timed;52;61;0;43;18;39;70;0.75;0.089999999999999997;0.089999999999999997;0.070000000000000007;16;66;0;0;0.64000000000000001;0.35999999999999999;0.0;0.0;0;1.751119952994486;53;41;21;2;
2019_03_21 13:12;49;2;0;timed;53;131;0;83;41;81;88;0.23999999999999999;0.58999999999999997;0.10000000000000001;0.070000000000000007;82;97;4;17;0.26000000000000001;0.46999999999999997;0.11;0.16;0;1.8111067136887868;53;41;21;2;
2019_03_21 13:12;49;2;0;timed;54;21;0;64;28;0;0;0.080000000000000002;0.92000000000000004;0.0;0.0;50;1;88;13;0.57999999999999996;0.13;0.02;0.27000000000000002;1;1.2805742036198353;53;41;21;2;
2019_03_21 13:12;49;2;0;timed;55;114;0;57;39;79;97;0.77000000000000002;0.02;0.13;0.080000000000000002;92;36;6;1;0.54000000000000004;0.12;0.13;0.20999999999999999;0;1.6111322429733264;53;41;21;2;
2019_03_21 13:12;49;2;0;timed;56;19;1;22;53;0;0;0.13;0.87;0.0;0.0;4;93;96;65;0.46999999999999997;0.059999999999999998;0.26000000000000001;0.20999999999999999;1;1.590982389925557;53;41;21;2;
2019_03_21 13:12;49;2;0;timed;57;59;0;56;47;83;90;0.31;0.12;0.54000000000000004;0.029999999999999898;10;98;0;0;0.46999999999999997;0.53000000000000003;0.0;0.0;0;1.551067868125756;53;41;21;2;
2019_03_21 13:12;49;2;0;timed;58;12;0;53;68;0;0;0.31;0.68999999999999995;0.0;0.0;69;54;97;29;0.25;0.20999999999999999;0.20000000000000001;0.34000000000000002;1;1.4708562059895485;53;41;21;2;
2019_03_21 13:12;49;2;0;timed;59;126;0;16;55;51;42;0.68999999999999995;0.23999999999999999;0.01;0.060000000000000102;66;4;1;5;0.46999999999999997;0.38;0.089999999999999997;0.059999999999999998;0;1.6811706780135864;53;41;21;2;
2019_03_21 13:12;49;2;0;timed;60;1;1;22;51;0;0;0.26000000000000001;0.73999999999999999;0.0;0.0;14;11;92;31;0.29999999999999999;0.40999999999999998;0.14999999999999999;0.14000000000000001;0;2.0312999921752635;53;41;21;2;
2019_03_21 13:12;49;2;0;timed;61;125;1;37;41;10;35;0.91000000000000003;0.040000000000000001;0.029999999999999999;0.02;7;13;91;93;0.26000000000000001;0.39000000000000001;0.16;0.19;1;1.8912628913258231;53;41;21;2;
2019_03_21 13:12;49;2;0;timed;62;116;0;53;65;43;99;0.56999999999999995;0.37;0.050000000000000003;0.010000000000000101;57;72;11;87;0.67000000000000004;0.13;0.14999999999999999;0.050000000000000003;0;1.9714017501028138;53;41;21;2;
2019_03_21 13:12;49;2;0;timed;63;78;0;74;36;34;3;0.14999999999999999;0.64000000000000001;0.13;0.080000000000000002;1;83;0;0;0.41999999999999998;0.57999999999999996;0.0;0.0;0;1.7112083176707529;53;41;21;2;
2019_03_21 13:12;49;2;0;timed;64;9;1;61;69;0;0;0.93999999999999995;0.060000000000000102;0.0;0.0;18;93;72;16;0.40999999999999998;0.34999999999999998;0.089999999999999997;0.14999999999999999;0;1.831184084094275;53;41;21;2;
2019_03_21 13:12;49;2;0;timed;65;30;1;33;30;0;0;0.71999999999999997;0.28000000000000003;0.0;0.0;9;88;1;14;0.55000000000000004;0.39000000000000001;0.01;0.049999999999999899;0;2.351599172287024;53;41;21;2;
2019_03_21 13:12;49;2;0;timed;66;85;0;31;22;82;50;0.11;0.69999999999999996;0.01;0.17999999999999999;3;99;0;0;0.62;0.38;0.0;0.0;0;1.7110841991689085;53;41;21;2;
2019_03_21 13:12;49;2;0;timed;67;146;1;25;5;64;35;0.94999999999999996;0.02;0.01;0.02;47;97;12;79;0.20999999999999999;0.029999999999999999;0.02;0.73999999999999999;0;1.7311663803702686;53;41;21;2;
2019_03_21 13:12;49;2;0;timed;68;133;0;59;88;60;36;0.67000000000000004;0.070000000000000007;0.12;0.14000000000000001;7;91;66;61;0.25;0.68999999999999995;0.01;0.0500000000000001;0;1.6810548982230102;53;41;21;2;
2019_03_21 13:12;49;2;0;timed;69;24;0;35;27;0;0;0.070000000000000007;0.93000000000000005;0.0;0.0;62;3;81;95;0.35999999999999999;0.55000000000000004;0.01;0.080000000000000002;1;1.3108324983932107;53;41;21;2;
2019_03_21 13:12;49;2;0;timed;70;29;0;44;51;0;0;0.78000000000000003;0.22;0.0;0.0;74;1;68;82;0.69999999999999996;0.28000000000000003;0.01;0.01;1;1.471054731448021;53;41;21;2;
2019_03_21 13:12;49;2;0;timed;71;110;1;47;44;23;52;0.13;0.27000000000000002;0.040000000000000001;0.56000000000000005;99;2;30;22;0.28999999999999998;0.5;0.11;0.10000000000000001;0;1.3908834799876786;53;41;21;2;
2019_03_21 13:12;49;2;0;timed;72;60;0;64;59;57;96;0.83999999999999997;0.13;0.02;0.01;83;6;0;0;0.54000000000000004;0.46000000000000002;0.0;0.0;0;1.631013012236508;53;41;21;2;
2019_03_21 13:12;49;2;0;timed;73;103;0;38;49;89;50;0.89000000000000001;0.070000000000000007;0.01;0.029999999999999999;6;64;99;27;0.70999999999999996;0.17999999999999999;0.059999999999999998;0.050000000000000003;1;1.3609645065989753;53;41;21;2;
2019_03_21 13:12;49;2;0;timed;74;95;1;93;88;68;85;0.83999999999999997;0.14000000000000001;0.01;0.01;2;82;0;0;0.41999999999999998;0.57999999999999996;0.0;0.0;0;1.1106918949008104;53;41;21;2;
2019_03_21 13:12;49;2;0;timed;75;8;1;50;36;0;0;0.080000000000000002;0.92000000000000004;0.0;0.0;6;19;84;29;0.54000000000000004;0.070000000000000007;0.17000000000000001;0.22;0;1.3107808625300095;53;41;21;2;
2019_03_21 13:12;49;3;0;control;1;53;1;26;70;50;80;0.29999999999999999;0.59999999999999998;0.040000000000000001;0.059999999999999998;89;1;0;0;0.40999999999999998;0.58999999999999997;0.0;0.0;0;5.371586741193823;53;41;21;2;
2019_03_21 13:12;49;3;0;control;2;116;1;53;65;43;99;0.56999999999999995;0.37;0.050000000000000003;0.010000000000000101;57;72;11;87;0.67000000000000004;0.13;0.14999999999999999;0.050000000000000003;1;4.132655738250833;53;41;21;2;
2019_03_21 13:12;49;3;0;control;3;107;1;52;48;13;63;0.68000000000000005;0.19;0.050000000000000003;0.079999999999999905;54;91;33;3;0.19;0.17999999999999999;0.33000000000000002;0.29999999999999999;0;1.611168484290829;53;41;21;2;
2019_03_21 13:12;49;3;0;control;4;3;0;53;40;0;0;0.31;0.68999999999999995;0.0;0.0;96;24;7;88;0.11;0.27000000000000002;0.58999999999999997;0.029999999999999999;0;3.5523966096079675;53;41;21;2;
2019_03_21 13:12;49;3;0;control;5;139;0;44;31;16;8;0.79000000000000004;0.070000000000000007;0.13;0.0099999999999999499;92;58;2;88;0.55000000000000004;0.070000000000000007;0.34000000000000002;0.039999999999999897;0;3.7223523631255375;53;41;21;2;
2019_03_21 13:12;49;3;0;control;6;64;1;48;39;34;19;0.46000000000000002;0.5;0.02;0.02;13;92;0;0;0.68999999999999995;0.31;0.0;0.0;1;2.5215382483838766;53;41;21;2;
2019_03_21 13:12;49;3;0;control;7;40;0;45;49;0;0;0.68999999999999995;0.31;0.0;0.0;2;92;65;73;0.23999999999999999;0.59999999999999998;0.11;0.050000000000000003;0;2.821812656111433;53;41;21;2;
2019_03_21 13:12;49;3;0;control;8;108;0;48;72;39;70;0.14000000000000001;0.66000000000000003;0.02;0.17999999999999999;81;44;98;8;0.59999999999999998;0.029999999999999999;0.050000000000000003;0.32000000000000001;0;2.121379556303509;53;41;21;2;
2019_03_21 13:12;49;3;0;control;9;67;0;44;42;8;89;0.88;0.070000000000000007;0.029999999999999999;0.02;10;63;0;0;0.39000000000000001;0.60999999999999999;0.0;0.0;0;1.4710794268612517;53;41;21;2;
2019_03_21 13:12;49;3;0;control;10;71;1;68;55;36;51;0.20000000000000001;0.75;0.02;0.029999999999999999;38;81;0;0;0.52000000000000002;0.47999999999999998;0.0;0.0;0;5.143133649007723;53;41;21;2;
2019_03_21 13:12;49;3;0;control;11;89;1;26;41;13;56;0.059999999999999998;0.40999999999999998;0.050000000000000003;0.47999999999999998;5;97;0;0;0.37;0.63;0.0;0.0;0;2.99182806348108;53;41;21;2;
2019_03_21 13:12;49;3;0;control;12;7;1;49;29;0;0;0.95999999999999996;0.040000000000000001;0.0;0.0;23;99;64;25;0.68999999999999995;0.12;0.059999999999999998;0.13;0;5.913831291203678;53;41;21;2;
2019_03_21 13:12;49;3;0;control;13;61;0;43;18;39;70;0.75;0.089999999999999997;0.089999999999999997;0.070000000000000007;16;66;0;0;0.64000000000000001;0.35999999999999999;0.0;0.0;0;10.11678845460483;53;41;21;2;
2019_03_21 13:12;49;3;0;control;14;79;0;52;46;29;22;0.17999999999999999;0.51000000000000001;0.23999999999999999;0.070000000000000104;93;14;0;0;0.45000000000000001;0.55000000000000004;0.0;0.0;0;9.83656992906981;53;41;21;2;
2019_03_21 13:12;49;3;0;control;15;26;1;76;41;0;0;0.57999999999999996;0.41999999999999998;0.0;0.0;61;79;84;2;0.13;0.029999999999999999;0.67000000000000004;0.17000000000000001;0;5.1935687372752;53;41;21;2;
2019_03_21 13:12;49;3;0;control;16;124;1;37;65;15;41;0.17999999999999999;0.45000000000000001;0.02;0.34999999999999998;40;7;98;30;0.070000000000000007;0.45000000000000001;0.45000000000000001;0.029999999999999898;0;4.9633337267496245;53;41;21;2;
2019_03_21 13:12;49;3;0;control;17;42;1;70;48;0;0;0.79000000000000004;0.20999999999999999;0.0;0.0;51;8;12;67;0.19;0.26000000000000001;0.28999999999999998;0.26000000000000001;0;3.9527724288873287;53;41;21;2;
2019_03_21 13:12;49;3;0;control;18;134;1;57;48;50;55;0.02;0.62;0.17999999999999999;0.17999999999999999;80;96;15;18;0.23999999999999999;0.35999999999999999;0.33000000000000002;0.070000000000000007;0;6.644485482303935;53;41;21;2;
2019_03_21 13:12;49;3;0;control;19;130;1;37;79;23;95;0.94999999999999996;0.029999999999999999;0.01;0.01;94;4;58;49;0.46000000000000002;0.5;0.029999999999999999;0.01;1;3.1019882052150933;53;41;21;2;
2019_03_21 13:12;49;3;0;control;20;112;1;70;44;98;64;0.02;0.75;0.12;0.11;33;2;63;85;0.23999999999999999;0.31;0.080000000000000002;0.37;1;7.694978300109142;53;41;21;2;
2019_03_21 13:12;49;3;0;control;21;113;0;85;65;39;64;0.44;0.34000000000000002;0.13;0.089999999999999997;87;2;4;35;0.67000000000000004;0.17000000000000001;0.11;0.049999999999999899;0;1.6109908056096174;53;41;21;2;
2019_03_21 13:12;49;3;0;control;22;17;1;81;52;0;0;0.059999999999999998;0.93999999999999995;0.0;0.0;34;3;69;41;0.01;0.22;0.75;0.02;0;2.2215508847366436;53;41;21;2;
2019_03_21 13:12;49;3;0;control;23;9;0;61;69;0;0;0.93999999999999995;0.060000000000000102;0.0;0.0;18;93;72;16;0.40999999999999998;0.34999999999999998;0.089999999999999997;0.14999999999999999;0;1.6311493180855905;53;41;21;2;
2019_03_21 13:12;49;3;0;control;24;143;1;88;44;56;73;0.95999999999999996;0.02;0.01;0.01;20;3;87;32;0.19;0.40000000000000002;0.28000000000000003;0.13;0;5.093280666891587;53;41;21;2;
2019_03_21 13:12;49;3;0;control;25;87;1;10;30;63;4;0.56999999999999995;0.12;0.16;0.14999999999999999;86;2;0;0;0.42999999999999999;0.56999999999999995;0.0;0.0;0;3.9526858345834626;53;41;21;2;
2019_03_21 13:12;49;3;0;control;26;91;0;74;81;86;48;0.93000000000000005;0.02;0.01;0.039999999999999897;7;64;0;0;0.13;0.87;0.0;0.0;0;2.8317087814320985;53;41;21;2;
2019_03_21 13:12;49;3;0;control;27;35;1;33;37;0;0;0.88;0.12;0.0;0.0;63;4;79;98;0.16;0.46000000000000002;0.17000000000000001;0.20999999999999999;1;3.4722468463642144;53;41;21;2;
2019_03_21 13:12;49;3;0;control;28;28;0;47;30;0;0;0.97999999999999998;0.02;0.0;0.0;55;48;77;13;0.070000000000000007;0.26000000000000001;0.42999999999999999;0.23999999999999999;1;3.9625473221840366;53;41;21;2;
2019_03_21 13:12;49;3;0;control;29;75;1;67;80;36;81;0.81999999999999995;0.080000000000000002;0.059999999999999998;0.040000000000000001;3;97;0;0;0.32000000000000001;0.68000000000000005;0.0;0.0;1;4.993383874472784;53;41;21;2;
2019_03_21 13:12;49;3;0;control;30;111;1;51;36;48;27;0.93000000000000005;0.01;0.01;0.049999999999999899;31;78;30;53;0.55000000000000004;0.16;0.029999999999999999;0.26000000000000001;0;7.284816362347556;53;41;21;2;
2019_03_21 13:12;49;3;0;control;31;82;1;78;66;30;27;0.28999999999999998;0.58999999999999997;0.080000000000000002;0.040000000000000001;90;6;0;0;0.82999999999999996;0.17000000000000001;0.0;0.0;1;2.6316913342834596;53;41;21;2;
2019_03_21 13:12;49;3;0;control;32;142;0;98;65;64;84;0.88;0.070000000000000007;0.01;0.040000000000000001;5;68;60;16;0.46000000000000002;0.080000000000000002;0.27000000000000002;0.19;0;3.9724963662465598;53;41;21;2;
2019_03_21 13:12;49;3;0;control;33;115;1;50;28;61;79;0.83999999999999997;0.040000000000000001;0.059999999999999998;0.059999999999999998;1;26;97;55;0.45000000000000001;0.080000000000000002;0.40999999999999998;0.060000000000000102;1;3.4923873985408136;53;41;21;2;
2019_03_21 13:12;49;3;0;control;34;104;0;55;85;93;3;0.87;0.02;0.089999999999999997;0.02;1;2;90;8;0.35999999999999999;0.070000000000000007;0.40000000000000002;0.17000000000000001;0;5.84395674389998;53;41;21;2;
2019_03_21 13:12;49;3;0;control;35;15;1;77;81;0;0;0.28000000000000003;0.71999999999999997;0.0;0.0;98;14;87;18;0.55000000000000004;0.23000000000000001;0.16;0.059999999999999901;1;2.951906806569241;53;41;21;2;
2019_03_21 13:12;49;3;0;control;36;38;0;40;70;0;0;0.53000000000000003;0.46999999999999997;0.0;0.0;97;90;6;96;0.56999999999999995;0.070000000000000007;0.27000000000000002;0.089999999999999997;1;4.312846617754985;53;41;21;2;
2019_03_21 13:12;49;3;0;control;37;137;0;71;22;28;17;0.25;0.46000000000000002;0.050000000000000003;0.23999999999999999;3;98;92;69;0.42999999999999999;0.23999999999999999;0.20000000000000001;0.13;1;3.4223002141116012;53;41;21;2;
2019_03_21 13:12;49;3;0;control;38;106;1;85;69;22;61;0.10000000000000001;0.58999999999999997;0.17999999999999999;0.13;20;79;91;84;0.55000000000000004;0.14999999999999999;0.26000000000000001;0.039999999999999897;1;2.371503354086599;53;41;21;2;
2019_03_21 13:12;49;3;0;control;39;103;0;38;49;89;50;0.89000000000000001;0.070000000000000007;0.01;0.029999999999999999;6;64;99;27;0.70999999999999996;0.17999999999999999;0.059999999999999998;0.050000000000000003;0;1.9312175030827348;53;41;21;2;
2019_03_21 13:12;49;3;0;control;40;148;0;37;63;55;10;0.72999999999999998;0.070000000000000007;0.029999999999999999;0.17000000000000001;80;14;23;70;0.46999999999999997;0.10000000000000001;0.23000000000000001;0.20000000000000001;1;6.01389100920278;53;41;21;2;
2019_03_21 13:12;49;3;0;control;41;48;0;13;32;0;0;0.90000000000000002;0.10000000000000001;0.0;0.0;24;99;84;94;0.62;0.14999999999999999;0.20000000000000001;0.029999999999999999;1;4.953396228593192;53;41;21;2;
2019_03_21 13:12;49;3;0;control;42;1;1;22;51;0;0;0.26000000000000001;0.73999999999999999;0.0;0.0;14;11;92;31;0.29999999999999999;0.40999999999999998;0.14999999999999999;0.14000000000000001;1;8.605614261505252;53;41;21;2;
2019_03_21 13:12;49;3;0;control;43;84;0;43;10;5;45;0.78000000000000003;0.13;0.059999999999999998;0.029999999999999999;87;1;0;0;0.57999999999999996;0.41999999999999998;0.0;0.0;0;2.351496221281195;53;41;21;2;
2019_03_21 13:12;49;3;0;control;44;85;0;31;22;82;50;0.11;0.69999999999999996;0.01;0.17999999999999999;3;99;0;0;0.62;0.38;0.0;0.0;0;2.231438350627286;53;41;21;2;
2019_03_21 13:12;49;3;0;control;45;145;1;91;89;90;74;0.57999999999999996;0.29999999999999999;0.11;0.010000000000000101;2;75;84;39;0.32000000000000001;0.27000000000000002;0.39000000000000001;0.0199999999999999;0;6.68429352518433;53;41;21;2;
2019_03_21 13:12;49;3;0;control;46;86;0;56;30;57;88;0.20000000000000001;0.35999999999999999;0.080000000000000002;0.35999999999999999;98;2;0;0;0.77000000000000002;0.23000000000000001;0.0;0.0;0;4.0026930828462355;53;41;21;2;
2019_03_21 13:12;49;3;0;control;47;141;0;93;28;60;91;0.81999999999999995;0.10000000000000001;0.01;0.070000000000000007;14;85;7;89;0.45000000000000001;0.070000000000000007;0.23999999999999999;0.23999999999999999;0;4.873277575154134;53;41;21;2;
2019_03_21 13:12;49;3;0;control;48;39;1;14;33;0;0;0.78000000000000003;0.22;0.0;0.0;93;84;1;25;0.14000000000000001;0.23999999999999999;0.39000000000000001;0.23000000000000001;1;2.5117126813838695;53;41;21;2;
2019_03_21 13:12;49;3;0;control;49;101;1;30;96;61;45;0.65000000000000002;0.14000000000000001;0.11;0.10000000000000001;3;98;63;89;0.75;0.19;0.040000000000000001;0.02;1;6.934496219997527;53;41;21;2;
2019_03_21 13:12;49;3;0;control;50;51;1;52;23;43;16;0.60999999999999999;0.20999999999999999;0.01;0.17000000000000001;92;7;0;0;0.14999999999999999;0.84999999999999998;0.0;0.0;0;3.392199071964569;53;41;21;2;
2019_03_21 13:12;49;3;0;control;51;150;1;25;21;78;38;0.84999999999999998;0.059999999999999998;0.050000000000000003;0.040000000000000001;31;43;64;95;0.059999999999999998;0.45000000000000001;0.13;0.35999999999999999;1;7.4150452150552155;53;41;21;2;
2019_03_21 13:12;49;3;0;control;52;146;0;25;5;64;35;0.94999999999999996;0.02;0.01;0.02;47;97;12;79;0.20999999999999999;0.029999999999999999;0.02;0.73999999999999999;1;3.4021667177676136;53;41;21;2;
2019_03_21 13:12;49;3;0;control;53;95;1;93;88;68;85;0.83999999999999997;0.14000000000000001;0.01;0.01;2;82;0;0;0.41999999999999998;0.57999999999999996;0.0;0.0;0;3.0321043570402253;53;41;21;2;
2019_03_21 13:12;49;3;0;control;54;36;1;70;17;0;0;0.33000000000000002;0.67000000000000004;0.0;0.0;84;1;12;88;0.22;0.27000000000000002;0.14000000000000001;0.37;1;2.191506830686194;53;41;21;2;
2019_03_21 13:12;49;3;0;control;55;140;0;36;32;26;27;0.39000000000000001;0.14999999999999999;0.19;0.27000000000000002;44;3;99;25;0.29999999999999999;0.34000000000000002;0.34000000000000002;0.0199999999999999;1;6.774407727034486;53;41;21;2;
2019_03_21 13:12;49;3;0;control;56;46;1;5;19;0;0;0.32000000000000001;0.68000000000000005;0.0;0.0;88;38;97;66;0.60999999999999999;0.20000000000000001;0.040000000000000001;0.14999999999999999;1;1.510924031779723;53;41;21;2;
2019_03_21 13:12;49;3;0;control;57;147;1;39;43;76;28;0.14000000000000001;0.10000000000000001;0.10000000000000001;0.66000000000000003;6;31;68;85;0.27000000000000002;0.20000000000000001;0.22;0.31;1;9.376097342261346;53;41;21;2;
2019_03_21 13:12;49;3;0;control;58;125;1;37;41;10;35;0.91000000000000003;0.040000000000000001;0.029999999999999999;0.02;7;13;91;93;0.26000000000000001;0.39000000000000001;0.16;0.19;0;10.727001835799456;53;41;21;2;
2019_03_21 13:12;49;3;0;control;59;12;0;53;68;0;0;0.31;0.68999999999999995;0.0;0.0;69;54;97;29;0.25;0.20999999999999999;0.20000000000000001;0.34000000000000002;0;4.122754160694967;53;41;21;2;
2019_03_21 13:12;49;3;0;control;60;33;1;27;70;0;0;0.88;0.12;0.0;0.0;93;3;77;16;0.080000000000000002;0.40000000000000002;0.5;0.02;1;1.7511468934444565;53;41;21;2;
2019_03_21 13:12;49;3;0;control;61;59;1;56;47;83;90;0.31;0.12;0.54000000000000004;0.029999999999999898;10;98;0;0;0.46999999999999997;0.53000000000000003;0.0;0.0;0;2.3115435338422685;53;41;21;2;
2019_03_21 13:12;49;3;0;control;62;60;1;64;59;57;96;0.83999999999999997;0.13;0.02;0.01;83;6;0;0;0.54000000000000004;0.46000000000000002;0.0;0.0;0;2.4315148101923114;53;41;21;2;
2019_03_21 13:12;49;3;0;control;63;47;1;2;40;0;0;0.45000000000000001;0.55000000000000004;0.0;0.0;93;89;11;56;0.58999999999999997;0.070000000000000007;0.28000000000000003;0.059999999999999998;1;2.111323071159859;53;41;21;2;
2019_03_21 13:12;49;3;0;control;64;83;1;17;12;7;41;0.65000000000000002;0.19;0.089999999999999997;0.070000000000000007;6;84;0;0;0.72999999999999998;0.27000000000000002;0.0;0.0;0;1.9213403002195264;53;41;21;2;
2019_03_21 13:12;49;3;0;control;65;25;0;50;53;0;0;0.82999999999999996;0.17000000000000001;0.0;0.0;83;16;97;4;0.45000000000000001;0.29999999999999999;0.11;0.14000000000000001;0;1.5910102925354295;53;41;21;2;
2019_03_21 13:12;49;3;0;control;66;63;1;56;78;42;36;0.93000000000000005;0.040000000000000001;0.01;0.0199999999999999;2;72;0;0;0.32000000000000001;0.68000000000000005;0.0;0.0;0;3.7925832299551985;53;41;21;2;
2019_03_21 13:12;49;3;0;control;67;117;0;65;85;92;41;0.23000000000000001;0.17999999999999999;0.54000000000000004;0.050000000000000003;99;93;10;13;0.64000000000000001;0.16;0.01;0.19;1;17.581505124459;53;41;21;2;
2019_03_21 13:12;49;3;0;control;68;77;1;24;17;99;41;0.17999999999999999;0.13;0.10000000000000001;0.58999999999999997;12;97;0;0;0.59999999999999998;0.40000000000000002;0.0;0.0;0;5.843783876012822;53;41;21;2;
2019_03_21 13:12;49;3;0;control;69;80;1;47;39;45;10;0.13;0.76000000000000001;0.059999999999999998;0.050000000000000003;2;87;0;0;0.48999999999999999;0.51000000000000001;0.0;0.0;0;2.2714394667327724;53;41;21;2;
2019_03_21 13:12;49;3;0;control;70;37;0;14;98;0;0;0.93000000000000005;0.070000000000000007;0.0;0.0;41;2;87;66;0.17999999999999999;0.48999999999999999;0.32000000000000001;0.010000000000000101;1;2.4217286917082674;53;41;21;2;
2019_03_21 13:12;49;3;0;control;71;56;1;28;84;37;41;0.68000000000000005;0.28000000000000003;0.02;0.0199999999999999;6;95;0;0;0.72999999999999998;0.27000000000000002;0.0;0.0;0;1.791138387960018;53;41;21;2;
2019_03_21 13:12;49;3;0;control;72;34;1;32;48;0;0;0.28000000000000003;0.71999999999999997;0.0;0.0;97;83;7;62;0.040000000000000001;0.54000000000000004;0.35999999999999999;0.059999999999999901;1;6.914739889954944;53;41;21;2;
2019_03_21 13:12;49;3;0;control;73;129;0;12;29;81;36;0.17999999999999999;0.79000000000000004;0.01;0.02;5;19;95;92;0.47999999999999998;0.26000000000000001;0.13;0.13;0;7.2147375166296115;53;41;21;2;
2019_03_21 13:12;49;3;0;control;74;109;1;75;28;16;56;0.19;0.070000000000000007;0.059999999999999998;0.68000000000000005;3;50;98;44;0.5;0.02;0.34999999999999998;0.13;0;11.68761201133566;53;41;21;2;
2019_03_21 13:12;49;3;0;control;75;128;1;70;49;27;54;0.27000000000000002;0.53000000000000003;0.02;0.17999999999999999;72;97;6;20;0.29999999999999999;0.39000000000000001;0.22;0.0899999999999999;0;8.215313529110063;53;41;21;2;
2019_03_21 13:12;49;4;0;timed;1;38;0;40;70;0;0;0.53000000000000003;0.46999999999999997;0.0;0.0;97;90;6;96;0.56999999999999995;0.070000000000000007;0.27000000000000002;0.089999999999999997;1;2.4425376236213197;53;41;21;2;
2019_03_21 13:12;49;4;0;timed;2;81;0;67;38;52;65;0.27000000000000002;0.35999999999999999;0.01;0.35999999999999999;2;77;0;0;0.14000000000000001;0.85999999999999999;0.0;0.0;0;1.721179170670439;53;41;21;2;
2019_03_21 13:12;49;4;0;timed;3;65;0;75;64;59;52;0.59999999999999998;0.22;0.14000000000000001;0.040000000000000001;1;99;0;0;0.35999999999999999;0.64000000000000001;0.0;0.0;0;1.5109413506397686;53;41;21;2;
2019_03_21 13:12;49;4;0;timed;4;93;0;87;81;73;98;0.80000000000000004;0.040000000000000001;0.14999999999999999;0.0099999999999999499;5;71;0;0;0.51000000000000001;0.48999999999999999;0.0;0.0;0;1.591002274542916;53;41;21;2;
2019_03_21 13:12;49;4;0;timed;5;40;1;45;49;0;0;0.68999999999999995;0.31;0.0;0.0;2;92;65;73;0.23999999999999999;0.59999999999999998;0.11;0.050000000000000003;0;1.7910370405534195;53;41;21;2;
2019_03_21 13:12;49;4;0;timed;6;140;1;36;32;26;27;0.39000000000000001;0.14999999999999999;0.19;0.27000000000000002;44;3;99;25;0.29999999999999999;0.34000000000000002;0.34000000000000002;0.0199999999999999;0;1.8912144626592635;53;41;21;2;
2019_03_21 13:12;49;4;0;timed;7;73;1;65;68;70;47;0.25;0.23000000000000001;0.20999999999999999;0.31;27;95;0;0;0.45000000000000001;0.55000000000000004;0.0;0.0;0;1.6310245581444178;53;41;21;2;
2019_03_21 13:12;49;4;0;timed;8;4;1;40;43;0;0;0.58999999999999997;0.40999999999999998;0.0;0.0;2;33;88;81;0.69999999999999996;0.14000000000000001;0.13;0.029999999999999999;0;1.4310289199311228;53;41;21;2;
2019_03_21 13:12;49;4;0;timed;9;76;0;39;62;9;28;0.01;0.51000000000000001;0.26000000000000001;0.22;77;7;0;0;0.57999999999999996;0.41999999999999998;0.0;0.0;0;1.3108254425605992;53;41;21;2;
2019_03_21 13:12;49;4;0;timed;10;124;1;37;65;15;41;0.17999999999999999;0.45000000000000001;0.02;0.34999999999999998;40;7;98;30;0.070000000000000007;0.45000000000000001;0.45000000000000001;0.029999999999999898;0;1.3608432745731989;53;41;21;2;
2019_03_21 13:12;49;4;0;timed;11;123;1;26;24;51;92;0.72999999999999998;0.16;0.070000000000000007;0.040000000000000001;6;90;82;49;0.64000000000000001;0.25;0.050000000000000003;0.059999999999999998;0;1.4910461489907902;53;41;21;2;
2019_03_21 13:12;49;4;0;timed;12;89;0;26;41;13;56;0.059999999999999998;0.40999999999999998;0.050000000000000003;0.47999999999999998;5;97;0;0;0.37;0.63;0.0;0.0;0;1.4310196190617717;53;41;21;2;
2019_03_21 13:12;49;4;0;timed;13;51;0;52;23;43;16;0.60999999999999999;0.20999999999999999;0.01;0.17000000000000001;92;7;0;0;0.14999999999999999;0.84999999999999998;0.0;0.0;0;1.7512017365042993;53;41;21;2;
2019_03_21 13:12;49;4;0;timed;14;56;0;28;84;37;41;0.68000000000000005;0.28000000000000003;0.02;0.0199999999999999;6;95;0;0;0.72999999999999998;0.27000000000000002;0.0;0.0;0;1.6709705104694876;53;41;21;2;
2019_03_21 13:12;49;4;0;timed;15;44;1;79;74;0;0;0.71999999999999997;0.28000000000000003;0.0;0.0;3;67;15;36;0.41999999999999998;0.53000000000000003;0.02;0.029999999999999999;0;1.4310423901570175;53;41;21;2;
2019_03_21 13:12;49;4;0;timed;16;87;0;10;30;63;4;0.56999999999999995;0.12;0.16;0.14999999999999999;86;2;0;0;0.42999999999999999;0.56999999999999995;0.0;0.0;0;1.4410273548201076;53;41;21;2;
2019_03_21 13:12;49;4;0;timed;17;62;1;12;45;16;50;0.20999999999999999;0.76000000000000001;0.02;0.01;92;15;0;0;0.20999999999999999;0.79000000000000004;0.0;0.0;0;1.671062557008554;53;41;21;2;
2019_03_21 13:12;49;4;0;timed;18;32;1;19;81;0;0;0.93000000000000005;0.070000000000000007;0.0;0.0;1;65;41;68;0.45000000000000001;0.050000000000000003;0.059999999999999998;0.44;1;1.7510872395905608;53;41;21;2;
2019_03_21 13:12;49;4;0;timed;19;147;0;39;43;76;28;0.14000000000000001;0.10000000000000001;0.10000000000000001;0.66000000000000003;6;31;68;85;0.27000000000000002;0.20000000000000001;0.22;0.31;0;1.771100466070493;53;41;21;2;
2019_03_21 13:12;49;4;0;timed;20;119;0;60;58;11;18;0.25;0.72999999999999998;0.01;0.01;96;23;42;85;0.44;0.48999999999999999;0.059999999999999998;0.010000000000000101;1;1.6510182207239268;53;41;21;2;
2019_03_21 13:12;49;4;0;timed;21;120;0;64;40;48;51;0.19;0.02;0.070000000000000007;0.71999999999999997;97;9;79;94;0.23000000000000001;0.54000000000000004;0.01;0.22;0;1.3608442367331008;53;41;21;2;
2019_03_21 13:12;49;4;0;timed;22;91;1;74;81;86;48;0.93000000000000005;0.02;0.01;0.039999999999999897;7;64;0;0;0.13;0.87;0.0;0.0;0;1.6410265209487989;53;41;21;2;
2019_03_21 13:12;49;4;0;timed;23;23;0;54;40;0;0;0.93000000000000005;0.070000000000000007;0.0;0.0;36;23;71;86;0.02;0.41999999999999998;0.19;0.37;0;1.4710704467106552;53;41;21;2;
2019_03_21 13:12;49;4;0;timed;24;64;1;48;39;34;19;0.46000000000000002;0.5;0.02;0.02;13;92;0;0;0.68999999999999995;0.31;0.0;0.0;0;1.8311167329684395;53;41;21;2;
2019_03_21 13:12;49;4;0;timed;25;34;0;32;48;0;0;0.28000000000000003;0.71999999999999997;0.0;0.0;97;83;7;62;0.040000000000000001;0.54000000000000004;0.35999999999999999;0.059999999999999901;1;2.041443713062108;53;41;21;2;
2019_03_21 13:12;49;4;0;timed;26;14;1;36;40;0;0;0.54000000000000004;0.46000000000000002;0.0;0.0;99;70;1;11;0.16;0.089999999999999997;0.080000000000000002;0.67000000000000004;0;1.4710617872806324;53;41;21;2;
2019_03_21 13:12;49;4;0;timed;27;80;1;47;39;45;10;0.13;0.76000000000000001;0.059999999999999998;0.050000000000000003;2;87;0;0;0.48999999999999999;0.51000000000000001;0.0;0.0;0;1.8311481634955271;53;41;21;2;
2019_03_21 13:12;49;4;0;timed;28;45;0;97;87;0;0;0.71999999999999997;0.28000000000000003;0.0;0.0;96;11;14;4;0.25;0.029999999999999999;0.14000000000000001;0.57999999999999996;0;1.0706189375960093;53;41;21;2;
2019_03_21 13:12;49;4;0;timed;29;50;1;15;20;0;0;0.82999999999999996;0.17000000000000001;0.0;0.0;97;18;88;87;0.56999999999999995;0.39000000000000001;0.01;0.029999999999999999;1;1.6309947312183795;53;41;21;2;
2019_03_21 13:12;49;4;0;timed;30;3;1;53;40;0;0;0.31;0.68999999999999995;0.0;0.0;96;24;7;88;0.11;0.27000000000000002;0.58999999999999997;0.029999999999999999;0;1.6011299594483717;53;41;21;2;
2019_03_21 13:12;49;4;0;timed;31;100;1;27;14;59;52;0.02;0.95999999999999996;0.01;0.01;17;98;0;0;0.48999999999999999;0.51000000000000001;0.0;0.0;0;1.3109639934464212;53;41;21;2;
2019_03_21 13:12;49;4;0;timed;32;20;0;44;40;0;0;0.91000000000000003;0.089999999999999997;0.0;0.0;29;5;80;99;0.25;0.40000000000000002;0.26000000000000001;0.089999999999999997;0;1.070788919008919;53;41;21;2;
2019_03_21 13:12;49;4;0;timed;33;27;0;44;26;0;0;0.35999999999999999;0.64000000000000001;0.0;0.0;63;10;3;5;0.58999999999999997;0.19;0.14999999999999999;0.070000000000000007;1;1.2707326006384392;53;41;21;2;
2019_03_21 13:12;49;4;0;timed;34;92;0;90;86;65;94;0.16;0.34000000000000002;0.28000000000000003;0.22;79;22;0;0;0.35999999999999999;0.64000000000000001;0.0;0.0;0;1.8711508831966057;53;41;21;2;
2019_03_21 13:12;49;4;0;timed;35;139;1;44;31;16;8;0.79000000000000004;0.070000000000000007;0.13;0.0099999999999999499;92;58;2;88;0.55000000000000004;0.070000000000000007;0.34000000000000002;0.039999999999999897;1;2.2214181068047765;53;41;21;2;
2019_03_21 13:12;49;4;0;timed;36;82;1;78;66;30;27;0.28999999999999998;0.58999999999999997;0.080000000000000002;0.040000000000000001;90;6;0;0;0.82999999999999996;0.17000000000000001;0.0;0.0;1;1.9512377853916405;53;41;21;2;
2019_03_21 13:12;49;4;0;timed;37;75;1;67;80;36;81;0.81999999999999995;0.080000000000000002;0.059999999999999998;0.040000000000000001;3;97;0;0;0.32000000000000001;0.68000000000000005;0.0;0.0;0;1.8713285618796363;53;41;21;2;
2019_03_21 13:12;49;4;0;timed;38;74;1;66;47;52;44;0.41999999999999998;0.26000000000000001;0.17999999999999999;0.14000000000000001;17;99;0;0;0.47999999999999998;0.52000000000000002;0.0;0.0;0;1.671042672391195;53;41;21;2;
2019_03_21 13:12;49;4;0;timed;39;118;0;62;52;65;68;0.40999999999999998;0.44;0.10000000000000001;0.0500000000000001;79;20;14;37;0.56999999999999995;0.23999999999999999;0.14000000000000001;0.050000000000000003;0;1.5009676111658337;53;41;21;2;
2019_03_21 13:12;49;4;0;timed;40;26;0;76;41;0;0;0.57999999999999996;0.41999999999999998;0.0;0.0;61;79;84;2;0.13;0.029999999999999999;0.67000000000000004;0.17000000000000001;0;2.0714165673489333;53;41;21;2;
2019_03_21 13:12;49;4;0;timed;41;47;1;2;40;0;0;0.45000000000000001;0.55000000000000004;0.0;0.0;93;89;11;56;0.58999999999999997;0.070000000000000007;0.28000000000000003;0.059999999999999998;1;1.5109233903403947;53;41;21;2;
2019_03_21 13:12;49;4;0;timed;42;67;0;44;42;8;89;0.88;0.070000000000000007;0.029999999999999999;0.02;10;63;0;0;0.39000000000000001;0.60999999999999999;0.0;0.0;0;1.431046559511742;53;41;21;2;
2019_03_21 13:12;49;4;0;timed;43;132;0;27;70;21;19;0.64000000000000001;0.23000000000000001;0.029999999999999999;0.10000000000000001;11;85;55;6;0.39000000000000001;0.46999999999999997;0.029999999999999999;0.11;0;1.651284738749382;53;41;21;2;
2019_03_21 13:12;49;4;0;timed;44;28;0;47;30;0;0;0.97999999999999998;0.02;0.0;0.0;55;48;77;13;0.070000000000000007;0.26000000000000001;0.42999999999999999;0.23999999999999999;1;1.2407761030517577;53;41;21;2;
2019_03_21 13:12;49;4;0;timed;45;127;1;89;26;62;79;0.02;0.28999999999999998;0.53000000000000003;0.16;96;6;60;13;0.53000000000000003;0.25;0.17000000000000001;0.050000000000000003;0;1.8913408261996665;53;41;21;2;
2019_03_21 13:12;49;4;0;timed;46;53;0;26;70;50;80;0.29999999999999999;0.59999999999999998;0.040000000000000001;0.059999999999999998;89;1;0;0;0.40999999999999998;0.58999999999999997;0.0;0.0;0;1.6710558218946971;53;41;21;2;
2019_03_21 13:12;49;4;0;timed;47;108;1;48;72;39;70;0.14000000000000001;0.66000000000000003;0.02;0.17999999999999999;81;44;98;8;0.59999999999999998;0.029999999999999999;0.050000000000000003;0.32000000000000001;0;1.4008889707074559;53;41;21;2;
2019_03_21 13:12;49;4;0;timed;48;84;1;43;10;5;45;0.78000000000000003;0.13;0.059999999999999998;0.029999999999999999;87;1;0;0;0.57999999999999996;0.41999999999999998;0.0;0.0;0;1.35061777017836;53;41;21;2;
2019_03_21 13:12;49;4;0;timed;49;137;1;71;22;28;17;0.25;0.46000000000000002;0.050000000000000003;0.23999999999999999;3;98;92;69;0.42999999999999999;0.23999999999999999;0.20000000000000001;0.13;0;2.2613412880364194;53;41;21;2;
2019_03_21 13:12;49;4;0;timed;50;104;1;55;85;93;3;0.87;0.02;0.089999999999999997;0.02;1;2;90;8;0.35999999999999999;0.070000000000000007;0.40000000000000002;0.17000000000000001;0;1.5209683295761351;53;41;21;2;
2019_03_21 13:12;49;4;0;timed;51;57;0;52;35;23;47;0.22;0.68000000000000005;0.040000000000000001;0.059999999999999998;71;7;0;0;0.28999999999999998;0.70999999999999996;0.0;0.0;0;1.6712488951197884;53;41;21;2;
2019_03_21 13:12;49;4;0;timed;52;17;1;81;52;0;0;0.059999999999999998;0.93999999999999995;0.0;0.0;34;3;69;41;0.01;0.22;0.75;0.02;0;1.7711318965957616;53;41;21;2;
2019_03_21 13:12;49;4;0;timed;53;112;1;70;44;98;64;0.02;0.75;0.12;0.11;33;2;63;85;0.23999999999999999;0.31;0.080000000000000002;0.37;0;1.581000311740354;53;41;21;2;
2019_03_21 13:12;49;4;0;timed;54;55;1;74;55;47;48;0.60999999999999999;0.31;0.070000000000000007;0.01;97;6;0;0;0.42999999999999999;0.56999999999999995;0.0;0.0;0;2.151383841119241;53;41;21;2;
2019_03_21 13:12;49;4;0;timed;55;46;0;5;19;0;0;0.32000000000000001;0.68000000000000005;0.0;0.0;88;38;97;66;0.60999999999999999;0.20000000000000001;0.040000000000000001;0.14999999999999999;1;1.6011415053544624;53;41;21;2;
2019_03_21 13:12;49;4;0;timed;56;2;1;59;32;0;0;0.080000000000000002;0.92000000000000004;0.0;0.0;33;38;85;1;0.28999999999999998;0.050000000000000003;0.070000000000000007;0.58999999999999997;0;1.791236528171794;53;41;21;2;
2019_03_21 13:12;49;4;0;timed;57;52;1;71;51;10;54;0.22;0.12;0.19;0.46999999999999997;91;1;0;0;0.29999999999999999;0.69999999999999996;0.0;0.0;0;1.6310832498402306;53;41;21;2;
2019_03_21 13:12;49;4;0;timed;58;98;0;27;10;31;79;0.23000000000000001;0.67000000000000004;0.070000000000000007;0.029999999999999999;25;99;0;0;0.38;0.62;0.0;0.0;1;1.5611035064921452;53;41;21;2;
2019_03_21 13:12;49;4;0;timed;59;102;1;40;56;53;17;0.28000000000000003;0.26000000000000001;0.14999999999999999;0.31;1;76;29;62;0.68000000000000005;0.23000000000000001;0.050000000000000003;0.039999999999999897;0;2.0012751813028444;53;41;21;2;
2019_03_21 13:12;49;4;0;timed;60;16;0;64;53;0;0;0.65000000000000002;0.34999999999999998;0.0;0.0;29;17;81;46;0.10000000000000001;0.01;0.44;0.45000000000000001;0;1.4309022356737842;53;41;21;2;
2019_03_21 13:12;49;4;0;timed;61;49;0;21;30;0;0;0.53000000000000003;0.46999999999999997;0.0;0.0;93;99;89;25;0.44;0.02;0.11;0.42999999999999999;1;1.831335784487237;53;41;21;2;
2019_03_21 13:12;49;4;0;timed;62;130;1;37;79;23;95;0.94999999999999996;0.029999999999999999;0.01;0.01;94;4;58;49;0.46000000000000002;0.5;0.029999999999999999;0.01;0;1.6110045965542668;53;41;21;2;
2019_03_21 13:12;49;4;0;timed;63;37;1;14;98;0;0;0.93000000000000005;0.070000000000000007;0.0;0.0;41;2;87;66;0.17999999999999999;0.48999999999999999;0.32000000000000001;0.010000000000000101;1;1.5109208245830814;53;41;21;2;
2019_03_21 13:12;49;4;0;timed;64;117;1;65;85;92;41;0.23000000000000001;0.17999999999999999;0.54000000000000004;0.050000000000000003;99;93;10;13;0.64000000000000001;0.16;0.01;0.19;0;2.0914997107101954;53;41;21;2;
2019_03_21 13:12;49;4;0;timed;65;150;1;25;21;78;38;0.84999999999999998;0.059999999999999998;0.050000000000000003;0.040000000000000001;31;43;64;95;0.059999999999999998;0.45000000000000001;0.13;0.35999999999999999;1;1.6912021470252512;53;41;21;2;
2019_03_21 13:12;49;4;0;timed;66;54;1;44;79;78;52;0.79000000000000004;0.19;0.01;0.0099999999999999603;96;1;0;0;0.28000000000000003;0.71999999999999997;0.0;0.0;0;1.3914277412222873;53;41;21;2;
2019_03_21 13:12;49;4;0;timed;67;134;0;57;48;50;55;0.02;0.62;0.17999999999999999;0.17999999999999999;80;96;15;18;0.23999999999999999;0.35999999999999999;0.33000000000000002;0.070000000000000007;1;2.3315984538749035;53;41;21;2;
2019_03_21 13:12;49;4;0;timed;68;42;0;70;48;0;0;0.79000000000000004;0.20999999999999999;0.0;0.0;51;8;12;67;0.19;0.26000000000000001;0.28999999999999998;0.26000000000000001;0;1.1508434285187832;53;41;21;2;
2019_03_21 13:12;49;4;0;timed;69;145;0;91;89;90;74;0.57999999999999996;0.29999999999999999;0.11;0.010000000000000101;2;75;84;39;0.32000000000000001;0.27000000000000002;0.39000000000000001;0.0199999999999999;0;1.6011238657738431;53;41;21;2;
2019_03_21 13:12;49;4;0;timed;70;94;1;84;86;93;39;0.78000000000000003;0.20000000000000001;0.01;0.0099999999999999603;9;83;0;0;0.46999999999999997;0.53000000000000003;0.0;0.0;0;1.791121389818727;53;41;21;2;
2019_03_21 13:12;49;4;0;timed;71;72;0;63;82;51;61;0.01;0.96999999999999997;0.01;0.01;92;12;0;0;0.89000000000000001;0.11;0.0;0.0;0;1.7911945138985175;53;41;21;2;
2019_03_21 13:12;49;4;0;timed;72;135;1;48;60;41;51;0.14000000000000001;0.40000000000000002;0.089999999999999997;0.37;94;1;85;65;0.64000000000000001;0.29999999999999999;0.01;0.050000000000000003;0;1.5208984126948053;53;41;21;2;
2019_03_21 13:12;49;4;0;timed;73;33;1;27;70;0;0;0.88;0.12;0.0;0.0;93;3;77;16;0.080000000000000002;0.40000000000000002;0.5;0.02;1;1.7911284456531575;53;41;21;2;
2019_03_21 13:12;49;4;0;timed;74;90;1;27;44;50;72;0.68000000000000005;0.28999999999999998;0.02;0.0099999999999999707;6;96;0;0;0.46999999999999997;0.53000000000000003;0.0;0.0;0;1.350971203224617;53;41;21;2;
2019_03_21 13:12;49;4;0;timed;75;129;0;12;29;81;36;0.17999999999999999;0.79000000000000004;0.01;0.02;5;19;95;92;0.47999999999999998;0.26000000000000001;0.13;0.13;1;1.60113444952367;53;41;21;2;
