date;id;block;order;cond;trial;gameid;leftright;oa1;oa2;oa3;oa4;pa1;pa2;pa3;pa4;ob1;ob2;ob3;ob4;pb1;pb2;pb3;pb4;choice;rt;paytrial;payout;alter;geschlecht;comment
2019_03_22 14:54;55;0;0;practice;1;40;0;29;65;30;41;0.70999999999999996;0.01;0.14999999999999999;0.13;2;59;0;0;0.32000000000000001;0.68000000000000005;0.0;0.0;0;26.221939096231836;33;55;20;2;
2019_03_22 14:54;55;0;0;practice;2;32;1;21;86;16;78;0.45000000000000001;0.41999999999999998;0.050000000000000003;0.080000000000000099;95;9;0;0;0.42999999999999999;0.56999999999999995;0.0;0.0;0;11.53747184063468;33;55;20;2;
2019_03_22 14:54;55;0;0;practice;3;49;1;14;31;42;22;0.77000000000000002;0.089999999999999997;0.02;0.12;87;28;0;0;0.68000000000000005;0.32000000000000001;0.0;0.0;1;11.187151375511348;33;55;20;2;
2019_03_22 14:54;55;0;0;practice;4;21;0;59;69;0;0;0.34000000000000002;0.66000000000000003;0.0;0.0;64;18;5;24;0.14999999999999999;0.040000000000000001;0.51000000000000001;0.29999999999999999;0;9.586197485028606;33;55;20;2;
2019_03_22 14:54;55;0;0;practice;5;69;1;38;74;27;73;0.22;0.19;0.45000000000000001;0.14000000000000001;1;97;79;84;0.28000000000000003;0.45000000000000001;0.17000000000000001;0.10000000000000001;0;25.53648882862217;33;55;20;2;
2019_03_22 14:54;55;0;0;practice;6;11;1;10;44;0;0;0.48999999999999999;0.51000000000000001;0.0;0.0;88;12;54;50;0.17000000000000001;0.75;0.02;0.059999999999999998;0;20.122931986473304;33;55;20;2;
2019_03_22 14:54;55;0;0;practice;7;19;1;25;73;0;0;0.69999999999999996;0.29999999999999999;0.0;0.0;87;84;1;86;0.040000000000000001;0.59999999999999998;0.28000000000000003;0.080000000000000002;1;27.78802059546433;33;55;20;2;
2019_03_22 14:54;55;0;0;practice;8;51;0;38;13;51;84;0.91000000000000003;0.070000000000000007;0.01;0.0099999999999999603;4;89;35;16;0.80000000000000004;0.089999999999999997;0.059999999999999998;0.050000000000000003;0;11.577562694677908;33;55;20;2;
2019_03_22 14:54;55;0;0;practice;9;17;0;27;61;0;0;0.68999999999999995;0.31;0.0;0.0;3;91;69;43;0.29999999999999999;0.33000000000000002;0.27000000000000002;0.099999999999999895;1;6.794547602797138;33;55;20;2;
2019_03_22 14:54;55;0;0;practice;10;37;1;50;66;99;12;0.26000000000000001;0.71999999999999997;0.01;0.01;22;90;0;0;0.37;0.63;0.0;0.0;1;18.72216712936188;33;55;20;2;
2019_03_22 14:54;55;0;0;practice;11;75;1;21;86;27;62;0.88;0.040000000000000001;0.070000000000000007;0.0099999999999999794;13;3;49;87;0.28999999999999998;0.39000000000000001;0.070000000000000007;0.25;0;44.74883481806046;33;55;20;2;
2019_03_22 14:54;55;0;0;practice;12;46;1;79;57;98;81;0.67000000000000004;0.070000000000000007;0.20999999999999999;0.050000000000000003;1;76;0;0;0.56000000000000005;0.44;0.0;0.0;0;5.5935609345579;33;55;20;2;
2019_03_22 14:54;55;0;0;practice;13;5;0;23;58;0;0;0.71999999999999997;0.28000000000000003;0.0;0.0;94;12;52;3;0.11;0.84999999999999998;0.029999999999999999;0.01;0;38.294638367039624;33;55;20;2;
2019_03_22 14:54;55;0;0;practice;14;45;1;37;40;75;23;0.54000000000000004;0.38;0.059999999999999998;0.02;1;90;0;0;0.28000000000000003;0.71999999999999997;0.0;0.0;0;9.085972659116123;33;55;20;2;
2019_03_22 14:54;55;0;0;practice;15;47;1;91;99;90;78;0.93000000000000005;0.040000000000000001;0.02;0.0099999999999999499;10;87;0;0;0.23000000000000001;0.77000000000000002;0.0;0.0;0;8.635546933131081;33;55;20;2;
2019_03_22 14:54;55;0;0;practice;16;4;0;40;59;0;0;0.19;0.81000000000000005;0.0;0.0;10;88;13;45;0.56000000000000005;0.28999999999999998;0.01;0.14000000000000001;0;32.05064805026814;33;55;20;2;
2019_03_22 14:54;55;0;0;practice;17;7;1;13;31;0;0;0.51000000000000001;0.48999999999999999;0.0;0.0;8;79;42;18;0.85999999999999999;0.089999999999999997;0.02;0.029999999999999999;0;53.894747797283344;33;55;20;2;
2019_03_22 14:54;55;0;0;practice;18;25;1;7;18;0;0;0.20999999999999999;0.79000000000000004;0.0;0.0;92;45;33;13;0.41999999999999998;0.17999999999999999;0.22;0.17999999999999999;1;5.55367854961969;33;55;20;2;
2019_03_22 14:54;55;0;0;practice;19;39;1;53;65;48;75;0.92000000000000004;0.029999999999999999;0.01;0.040000000000000001;16;83;0;0;0.31;0.68999999999999995;0.0;0.0;0;34.53225658505835;33;55;20;2;
2019_03_22 14:54;55;0;0;practice;20;65;1;35;15;77;1;0.62;0.33000000000000002;0.029999999999999999;0.02;68;3;25;96;0.38;0.28000000000000003;0.28000000000000003;0.059999999999999901;1;20.263157928497094;33;55;20;2;
2019_03_22 14:54;55;0;0;practice;21;64;1;44;60;96;45;0.53000000000000003;0.10000000000000001;0.029999999999999999;0.34000000000000002;88;20;43;31;0.47999999999999998;0.38;0.050000000000000003;0.089999999999999997;0;20.733485718904376;33;55;20;2;
2019_03_22 14:54;55;0;0;practice;22;36;1;56;89;86;77;0.66000000000000003;0.080000000000000002;0.14999999999999999;0.11;29;91;0;0;0.40999999999999998;0.58999999999999997;0.0;0.0;0;40.226331379924886;33;55;20;2;
2019_03_22 14:54;55;0;0;practice;23;74;1;36;46;10;12;0.11;0.19;0.65000000000000002;0.049999999999999899;92;24;79;19;0.51000000000000001;0.40999999999999998;0.02;0.059999999999999998;1;47.99111183950572;33;55;20;2;
2019_03_22 14:54;55;0;0;practice;24;34;0;57;23;66;79;0.56000000000000005;0.23000000000000001;0.13;0.079999999999999905;85;9;0;0;0.56000000000000005;0.44;0.0;0.0;0;18.68202944994937;33;55;20;2;
2019_03_22 14:54;55;0;0;practice;25;73;1;99;88;95;28;0.83999999999999997;0.14000000000000001;0.01;0.01;90;93;10;74;0.080000000000000002;0.46000000000000002;0.34999999999999998;0.11;0;25.576435678621237;33;55;20;2;
2019_03_22 14:54;55;0;0;practice;26;52;1;17;61;57;59;0.070000000000000007;0.050000000000000003;0.33000000000000002;0.55000000000000004;12;93;94;62;0.71999999999999997;0.16;0.080000000000000002;0.040000000000000001;0;51.84364688797359;33;55;20;2;
2019_03_22 14:54;55;0;0;practice;27;26;0;24;46;74;59;0.29999999999999999;0.11;0.25;0.34000000000000002;91;6;0;0;0.28999999999999998;0.70999999999999996;0.0;0.0;0;38.49479212102233;33;55;20;2;
2019_03_22 14:54;55;0;0;practice;28;50;1;17;12;21;14;0.55000000000000004;0.34000000000000002;0.059999999999999998;0.049999999999999899;13;93;0;0;0.28999999999999998;0.70999999999999996;0.0;0.0;1;18.561933926198435;33;55;20;2;
2019_03_22 14:54;55;0;0;practice;29;3;0;20;70;0;0;0.13;0.87;0.0;0.0;95;19;80;73;0.31;0.57999999999999996;0.029999999999999999;0.080000000000000002;1;18.071681941572933;33;55;20;2;
2019_03_22 14:54;55;0;0;practice;30;38;0;51;89;10;60;0.57999999999999996;0.029999999999999999;0.080000000000000002;0.31;8;84;0;0;0.33000000000000002;0.67000000000000004;0.0;0.0;0;22.96476198601158;33;55;20;2;
2019_03_22 14:54;55;0;0;practice;31;6;1;42;59;0;0;0.35999999999999999;0.64000000000000001;0.0;0.0;77;19;6;7;0.44;0.14999999999999999;0.17999999999999999;0.23000000000000001;0;18.1616530381325;33;55;20;2;
2019_03_22 14:54;55;0;0;practice;32;42;1;23;45;91;22;0.72999999999999998;0.02;0.20000000000000001;0.050000000000000003;2;86;0;0;0.40999999999999998;0.58999999999999997;0.0;0.0;0;10.546894644204258;33;55;20;2;
2019_03_22 14:54;55;0;0;practice;33;15;0;24;59;0;0;0.56999999999999995;0.42999999999999999;0.0;0.0;9;8;80;22;0.31;0.10000000000000001;0.55000000000000004;0.039999999999999897;0;31.48042410954804;33;55;20;2;
2019_03_22 14:54;55;0;0;practice;34;12;0;45;86;0;0;0.97999999999999998;0.02;0.0;0.0;6;23;95;81;0.14999999999999999;0.40999999999999998;0.050000000000000003;0.39000000000000001;0;29.539180645856504;33;55;20;2;
2019_03_22 14:54;55;0;0;practice;35;18;1;47;36;0;0;0.089999999999999997;0.91000000000000003;0.0;0.0;2;44;81;9;0.20000000000000001;0.25;0.51000000000000001;0.040000000000000001;0;50.65278476238382;33;55;20;2;
2019_03_22 14:54;55;0;0;practice;36;71;0;94;87;26;75;0.71999999999999997;0.23999999999999999;0.02;0.02;90;27;12;83;0.16;0.73999999999999999;0.02;0.080000000000000002;0;9.446066797350795;33;55;20;2;
2019_03_22 14:54;55;0;0;practice;37;31;0;72;59;40;92;0.59999999999999998;0.34999999999999998;0.02;0.029999999999999999;97;29;0;0;0.38;0.62;0.0;0.0;0;34.01204566563865;33;55;20;2;
2019_03_22 14:54;55;0;0;practice;38;24;1;19;38;0;0;0.89000000000000001;0.11;0.0;0.0;45;76;95;57;0.29999999999999999;0.22;0.40000000000000002;0.080000000000000002;1;19.332430287931857;33;55;20;2;
2019_03_22 14:54;55;0;0;practice;39;33;1;54;82;55;71;0.56000000000000005;0.20999999999999999;0.02;0.20999999999999999;13;99;0;0;0.5;0.5;0.0;0.0;0;8.075248046163324;33;55;20;2;
2019_03_22 14:54;55;0;0;practice;40;13;0;15;25;0;0;0.29999999999999999;0.69999999999999996;0.0;0.0;3;43;35;73;0.44;0.40000000000000002;0.01;0.14999999999999999;1;41.09648719935558;33;55;20;2;
2019_03_22 14:54;55;0;0;practice;41;8;1;20;44;0;0;0.26000000000000001;0.73999999999999999;0.0;0.0;99;3;69;24;0.20999999999999999;0.60999999999999999;0.12;0.060000000000000102;0;21.56403048395623;33;55;20;2;
2019_03_22 14:54;55;0;0;practice;42;56;1;47;52;64;10;0.77000000000000002;0.040000000000000001;0.11;0.080000000000000002;1;5;12;99;0.14000000000000001;0.28999999999999998;0.27000000000000002;0.29999999999999999;0;26.10679904347944;33;55;20;2;
2019_03_22 14:54;55;0;0;practice;43;2;0;41;60;0;0;0.97999999999999998;0.02;0.0;0.0;10;14;97;6;0.54000000000000004;0.17000000000000001;0.12;0.17000000000000001;0;13.398731481528557;33;55;20;2;
2019_03_22 14:54;55;0;0;practice;44;57;0;39;68;59;91;0.73999999999999999;0.040000000000000001;0.14999999999999999;0.070000000000000007;9;22;40;84;0.29999999999999999;0.32000000000000001;0.040000000000000001;0.34000000000000002;0;18.14161883637007;33;55;20;2;
2019_03_22 14:54;55;0;0;practice;45;66;1;44;18;63;36;0.47999999999999998;0.10000000000000001;0.029999999999999999;0.39000000000000001;13;93;61;53;0.52000000000000002;0.45000000000000001;0.02;0.0099999999999999707;1;18.33178435442551;33;55;20;2;
2019_03_22 14:54;55;0;0;practice;46;67;0;74;31;10;77;0.11;0.070000000000000007;0.77000000000000002;0.050000000000000003;2;23;8;97;0.56999999999999995;0.01;0.059999999999999998;0.35999999999999999;0;16.900854659188553;33;55;20;2;
2019_03_22 14:54;55;0;0;practice;47;53;0;47;24;95;38;0.57999999999999996;0.28000000000000003;0.02;0.12;8;22;93;96;0.54000000000000004;0.34000000000000002;0.10000000000000001;0.0199999999999999;0;23.775286340333878;33;55;20;2;
2019_03_22 14:54;55;0;0;practice;48;58;0;44;50;85;42;0.38;0.57999999999999996;0.02;0.02;37;88;19;12;0.20000000000000001;0.29999999999999999;0.46000000000000002;0.040000000000000001;0;12.408094951583735;33;55;20;2;
2019_03_22 14:54;55;0;0;practice;49;27;1;68;43;98;36;0.54000000000000004;0.44;0.01;0.0099999999999999603;97;13;0;0;0.27000000000000002;0.72999999999999998;0.0;0.0;0;8.715577260574719;33;55;20;2;
2019_03_22 14:54;55;0;0;practice;50;9;0;57;44;0;0;0.14999999999999999;0.84999999999999998;0.0;0.0;38;35;64;95;0.34000000000000002;0.45000000000000001;0.089999999999999997;0.12;0;25.886660158153973;33;55;20;2;
2019_03_22 14:54;55;0;0;practice;51;61;0;51;48;56;88;0.91000000000000003;0.02;0.01;0.059999999999999998;78;21;14;82;0.55000000000000004;0.29999999999999999;0.070000000000000007;0.080000000000000002;0;10.977038891996017;33;55;20;2;
2019_03_22 14:54;55;0;0;practice;52;59;0;13;27;48;51;0.56999999999999995;0.13;0.13;0.17000000000000001;8;37;97;1;0.65000000000000002;0.16;0.14999999999999999;0.040000000000000001;0;11.497384193808102;33;55;20;2;
2019_03_22 14:54;55;0;0;practice;53;22;1;84;87;0;0;0.17000000000000001;0.82999999999999996;0.0;0.0;3;24;41;83;0.68000000000000005;0.11;0.10000000000000001;0.11;0;4.392808072437219;33;55;20;2;
2019_03_22 14:54;55;0;0;practice;54;72;1;86;85;97;43;0.51000000000000001;0.14999999999999999;0.33000000000000002;0.0099999999999999499;72;29;10;90;0.01;0.11;0.65000000000000002;0.23000000000000001;0;9.056000254011451;33;55;20;2;
2019_03_22 14:54;55;0;0;practice;55;48;1;20;25;24;35;0.32000000000000001;0.13;0.48999999999999999;0.059999999999999901;44;76;0;0;0.29999999999999999;0.69999999999999996;0.0;0.0;1;7.755225518671068;33;55;20;2;
2019_03_22 14:54;55;0;0;practice;56;16;1;50;42;0;0;0.32000000000000001;0.68000000000000005;0.0;0.0;97;2;56;31;0.35999999999999999;0.16;0.16;0.32000000000000001;0;7.154716469187406;33;55;20;2;
2019_03_22 14:54;55;0;0;practice;57;54;0;69;80;22;55;0.27000000000000002;0.31;0.059999999999999998;0.35999999999999999;52;2;49;90;0.059999999999999998;0.33000000000000002;0.20000000000000001;0.40999999999999998;0;37.39424137771766;33;55;20;2;
2019_03_22 14:54;55;0;0;practice;58;43;1;11;17;21;44;0.16;0.46000000000000002;0.25;0.13;2;66;0;0;0.44;0.56000000000000005;0.0;0.0;0;10.616999917895555;33;55;20;2;
2019_03_22 14:54;55;0;0;practice;59;23;1;99;93;0;0;0.57999999999999996;0.41999999999999998;0.0;0.0;64;10;80;81;0.13;0.55000000000000004;0.02;0.29999999999999999;0;12.437957669867501;33;55;20;2;
2019_03_22 14:54;55;0;0;practice;60;60;0;39;93;27;78;0.85999999999999999;0.02;0.11;0.01;22;5;62;95;0.059999999999999998;0.56999999999999995;0.14000000000000001;0.23000000000000001;0;20.93343389027723;33;55;20;2;
2019_03_22 14:54;55;0;0;practice;61;28;1;37;83;75;8;0.83999999999999997;0.070000000000000007;0.01;0.080000000000000002;94;2;0;0;0.19;0.81000000000000005;0.0;0.0;1;41.696868601602546;33;55;20;2;
2019_03_22 14:54;55;0;0;practice;62;70;0;21;42;14;63;0.96999999999999997;0.01;0.01;0.01;70;2;6;76;0.23999999999999999;0.42999999999999999;0.01;0.32000000000000001;1;22.744636250276017;33;55;20;2;
2019_03_22 14:54;55;0;0;practice;63;68;0;39;58;40;8;0.48999999999999999;0.44;0.02;0.050000000000000003;92;83;51;2;0.57999999999999996;0.13;0.02;0.27000000000000002;0;20.223119993534056;33;55;20;2;
2019_03_22 14:54;55;0;0;practice;64;35;0;84;95;4;35;0.89000000000000001;0.050000000000000003;0.01;0.050000000000000003;5;98;0;0;0.19;0.81000000000000005;0.0;0.0;0;16.120397322872122;33;55;20;2;
2019_03_22 14:54;55;0;0;practice;65;20;1;32;11;0;0;0.40999999999999998;0.58999999999999997;0.0;0.0;1;86;42;65;0.45000000000000001;0.38;0.050000000000000003;0.12;1;31.010111072339896;33;55;20;2;
2019_03_22 14:54;55;0;0;practice;66;30;1;54;78;85;25;0.20999999999999999;0.60999999999999999;0.089999999999999997;0.090000000000000094;87;20;0;0;0.58999999999999997;0.40999999999999998;0.0;0.0;0;8.00525855300657;33;55;20;2;
2019_03_22 14:54;55;0;0;practice;67;63;0;24;82;6;96;0.91000000000000003;0.070000000000000007;0.01;0.0099999999999999603;73;10;71;22;0.31;0.51000000000000001;0.050000000000000003;0.13;1;17.571415101117054;33;55;20;2;
2019_03_22 14:54;55;0;0;practice;68;41;1;19;54;51;8;0.76000000000000001;0.070000000000000007;0.16;0.0099999999999999794;2;77;0;0;0.54000000000000004;0.46000000000000002;0.0;0.0;1;31.480304159631487;33;55;20;2;
2019_03_22 14:54;55;0;0;practice;69;44;0;69;48;22;63;0.39000000000000001;0.40999999999999998;0.19;0.01;1;94;0;0;0.22;0.78000000000000003;0.0;0.0;0;22.124262340088535;33;55;20;2;
2019_03_22 14:54;55;0;0;practice;70;1;0;67;36;0;0;0.14999999999999999;0.84999999999999998;0.0;0.0;1;4;81;77;0.25;0.54000000000000004;0.14000000000000001;0.070000000000000007;0;29.168936948679402;33;55;20;2;
2019_03_22 14:54;55;0;0;practice;71;14;0;92;56;0;0;0.11;0.89000000000000001;0.0;0.0;97;31;51;4;0.58999999999999997;0.22;0.080000000000000002;0.11;1;13.558872958285065;33;55;20;2;
2019_03_22 14:54;55;0;0;practice;72;10;1;34;59;0;0;0.16;0.83999999999999997;0.0;0.0;21;61;96;7;0.19;0.01;0.5;0.29999999999999999;1;12.397958221508816;33;55;20;2;
2019_03_22 14:54;55;0;0;practice;73;29;0;66;40;92;49;0.46999999999999997;0.10000000000000001;0.34000000000000002;0.089999999999999997;8;94;0;0;0.44;0.56000000000000005;0.0;0.0;0;10.556729254437414;33;55;20;2;
2019_03_22 14:54;55;0;0;practice;74;62;0;65;52;74;55;0.16;0.12;0.14999999999999999;0.56999999999999995;72;86;2;68;0.12;0.53000000000000003;0.22;0.13;0;9.095959612157458;33;55;20;2;
2019_03_22 14:54;55;0;0;practice;75;55;0;53;11;80;74;0.31;0.37;0.28000000000000003;0.039999999999999897;6;93;98;96;0.69999999999999996;0.22;0.050000000000000003;0.029999999999999999;0;13.05852305090957;33;55;20;2;
2019_03_22 14:54;55;1;0;control;1;139;1;44;31;16;8;0.79000000000000004;0.070000000000000007;0.13;0.0099999999999999499;92;58;2;88;0.55000000000000004;0.070000000000000007;0.34000000000000002;0.039999999999999897;1;7.094509308626584;33;55;20;2;
2019_03_22 14:54;55;1;0;control;2;123;1;26;24;51;92;0.72999999999999998;0.16;0.070000000000000007;0.040000000000000001;6;90;82;49;0.64000000000000001;0.25;0.050000000000000003;0.059999999999999998;1;11.807616049940407;33;55;20;2;
2019_03_22 14:54;55;1;0;control;3;87;0;10;30;63;4;0.56999999999999995;0.12;0.16;0.14999999999999999;86;2;0;0;0.42999999999999999;0.56999999999999995;0.0;0.0;0;4.843091397987337;33;55;20;2;
2019_03_22 14:54;55;1;0;control;4;88;0;77;13;12;7;0.12;0.19;0.66000000000000003;0.029999999999999898;94;2;0;0;0.40999999999999998;0.58999999999999997;0.0;0.0;0;9.626322977015661;33;55;20;2;
2019_03_22 14:54;55;1;0;control;5;26;0;76;41;0;0;0.57999999999999996;0.41999999999999998;0.0;0.0;61;79;84;2;0.13;0.029999999999999999;0.67000000000000004;0.17000000000000001;0;7.875026619901291;33;55;20;2;
2019_03_22 14:54;55;1;0;control;6;47;1;2;40;0;0;0.45000000000000001;0.55000000000000004;0.0;0.0;93;89;11;56;0.58999999999999997;0.070000000000000007;0.28000000000000003;0.059999999999999998;1;11.557423937641033;33;55;20;2;
2019_03_22 14:54;55;1;0;control;7;142;1;98;65;64;84;0.88;0.070000000000000007;0.01;0.040000000000000001;5;68;60;16;0.46000000000000002;0.080000000000000002;0.27000000000000002;0.19;0;4.012669790068685;33;55;20;2;
2019_03_22 14:54;55;1;0;control;8;71;0;68;55;36;51;0.20000000000000001;0.75;0.02;0.029999999999999999;38;81;0;0;0.52000000000000002;0.47999999999999998;0.0;0.0;0;11.167209541598822;33;55;20;2;
2019_03_22 14:54;55;1;0;control;9;56;0;28;84;37;41;0.68000000000000005;0.28000000000000003;0.02;0.0199999999999999;6;95;0;0;0.72999999999999998;0.27000000000000002;0.0;0.0;0;6.554181441246328;33;55;20;2;
2019_03_22 14:54;55;1;0;control;10;92;0;90;86;65;94;0.16;0.34000000000000002;0.28000000000000003;0.22;79;22;0;0;0.35999999999999999;0.64000000000000001;0.0;0.0;0;3.072075146377756;33;55;20;2;
2019_03_22 14:54;55;1;0;control;11;5;0;70;5;0;0;0.98999999999999999;0.01;0.0;0.0;92;87;47;1;0.44;0.02;0.16;0.38;0;8.235426726637343;33;55;20;2;
2019_03_22 14:54;55;1;0;control;12;58;1;37;58;76;34;0.20999999999999999;0.57999999999999996;0.19;0.020000000000000101;86;5;0;0;0.47999999999999998;0.52000000000000002;0.0;0.0;0;10.156534961231046;33;55;20;2;
2019_03_22 14:54;55;1;0;control;13;107;1;52;48;13;63;0.68000000000000005;0.19;0.050000000000000003;0.079999999999999905;54;91;33;3;0.19;0.17999999999999999;0.33000000000000002;0.29999999999999999;0;13.008355121027307;33;55;20;2;
2019_03_22 14:54;55;1;0;control;14;128;0;70;49;27;54;0.27000000000000002;0.53000000000000003;0.02;0.17999999999999999;72;97;6;20;0.29999999999999999;0.39000000000000001;0.22;0.0899999999999999;0;19.452531584673125;33;55;20;2;
2019_03_22 14:54;55;1;0;control;15;79;0;52;46;29;22;0.17999999999999999;0.51000000000000001;0.23999999999999999;0.070000000000000104;93;14;0;0;0.45000000000000001;0.55000000000000004;0.0;0.0;0;6.754432053183336;33;55;20;2;
2019_03_22 14:54;55;1;0;control;16;32;1;19;81;0;0;0.93000000000000005;0.070000000000000007;0.0;0.0;1;65;41;68;0.45000000000000001;0.050000000000000003;0.059999999999999998;0.44;0;20.723481446891128;33;55;20;2;
2019_03_22 14:54;55;1;0;control;17;149;0;14;89;73;53;0.93999999999999995;0.01;0.01;0.040000000000000001;97;45;6;13;0.34000000000000002;0.01;0.40999999999999998;0.23999999999999999;0;11.487387619115907;33;55;20;2;
2019_03_22 14:54;55;1;0;control;18;21;0;64;28;0;0;0.080000000000000002;0.92000000000000004;0.0;0.0;50;1;88;13;0.57999999999999996;0.13;0.02;0.27000000000000002;1;17.721432676666154;33;55;20;2;
2019_03_22 14:54;55;1;0;control;19;38;1;40;70;0;0;0.53000000000000003;0.46999999999999997;0.0;0.0;97;90;6;96;0.56999999999999995;0.070000000000000007;0.27000000000000002;0.089999999999999997;1;9.19590932299434;33;55;20;2;
2019_03_22 14:54;55;1;0;control;20;102;1;40;56;53;17;0.28000000000000003;0.26000000000000001;0.14999999999999999;0.31;1;76;29;62;0.68000000000000005;0.23000000000000001;0.050000000000000003;0.039999999999999897;0;24.14557654215787;33;55;20;2;
2019_03_22 14:54;55;1;0;control;21;85;1;31;22;82;50;0.11;0.69999999999999996;0.01;0.17999999999999999;3;99;0;0;0.62;0.38;0.0;0.0;0;3.9125770373520936;33;55;20;2;
2019_03_22 14:54;55;1;0;control;22;33;1;27;70;0;0;0.88;0.12;0.0;0.0;93;3;77;16;0.080000000000000002;0.40000000000000002;0.5;0.02;1;6.233976102384986;33;55;20;2;
2019_03_22 14:54;55;1;0;control;23;111;0;51;36;48;27;0.93000000000000005;0.01;0.01;0.049999999999999899;31;78;30;53;0.55000000000000004;0.16;0.029999999999999999;0.26000000000000001;1;24.095510281054885;33;55;20;2;
2019_03_22 14:54;55;1;0;control;24;125;1;37;41;10;35;0.91000000000000003;0.040000000000000001;0.029999999999999999;0.02;7;13;91;93;0.26000000000000001;0.39000000000000001;0.16;0.19;1;17.381199550476595;33;55;20;2;
2019_03_22 14:54;55;1;0;control;25;141;0;93;28;60;91;0.81999999999999995;0.10000000000000001;0.01;0.070000000000000007;14;85;7;89;0.45000000000000001;0.070000000000000007;0.23999999999999999;0.23999999999999999;0;7.004460918135919;33;55;20;2;
2019_03_22 14:54;55;1;0;control;26;78;0;74;36;34;3;0.14999999999999999;0.64000000000000001;0.13;0.080000000000000002;1;83;0;0;0.41999999999999998;0.57999999999999996;0.0;0.0;0;16.480779469193294;33;55;20;2;
2019_03_22 14:54;55;1;0;control;27;10;0;45;62;0;0;0.059999999999999998;0.93999999999999995;0.0;0.0;17;99;28;67;0.58999999999999997;0.34000000000000002;0.01;0.059999999999999998;0;13.958970072816555;33;55;20;2;
2019_03_22 14:54;55;1;0;control;28;126;1;16;55;51;42;0.68999999999999995;0.23999999999999999;0.01;0.060000000000000102;66;4;1;5;0.46999999999999997;0.38;0.089999999999999997;0.059999999999999998;0;11.977649866837055;33;55;20;2;
2019_03_22 14:54;55;1;0;control;29;106;0;85;69;22;61;0.10000000000000001;0.58999999999999997;0.17999999999999999;0.13;20;79;91;84;0.55000000000000004;0.14999999999999999;0.26000000000000001;0.039999999999999897;1;5.133280392871711;33;55;20;2;
2019_03_22 14:54;55;1;0;control;30;36;1;70;17;0;0;0.33000000000000002;0.67000000000000004;0.0;0.0;84;1;12;88;0.22;0.27000000000000002;0.14000000000000001;0.37;1;19.28251412458303;33;55;20;2;
2019_03_22 14:54;55;1;0;control;31;98;1;27;10;31;79;0.23000000000000001;0.67000000000000004;0.070000000000000007;0.029999999999999999;25;99;0;0;0.38;0.62;0.0;0.0;1;27.84808888352927;33;55;20;2;
2019_03_22 14:54;55;1;0;control;32;45;0;97;87;0;0;0.71999999999999997;0.28000000000000003;0.0;0.0;96;11;14;4;0.25;0.029999999999999999;0.14000000000000001;0.57999999999999996;0;4.683115092906519;33;55;20;2;
2019_03_22 14:54;55;1;0;control;33;70;1;66;55;69;50;0.22;0.29999999999999999;0.29999999999999999;0.17999999999999999;2;90;0;0;0.34000000000000002;0.66000000000000003;0.0;0.0;0;10.796915491115215;33;55;20;2;
2019_03_22 14:54;55;1;0;control;34;51;1;52;23;43;16;0.60999999999999999;0.20999999999999999;0.01;0.17000000000000001;92;7;0;0;0.14999999999999999;0.84999999999999998;0.0;0.0;0;10.116620504123603;33;55;20;2;
2019_03_22 14:54;55;1;0;control;35;60;0;64;59;57;96;0.83999999999999997;0.13;0.02;0.01;83;6;0;0;0.54000000000000004;0.46000000000000002;0.0;0.0;0;7.304664448127369;33;55;20;2;
2019_03_22 14:54;55;1;0;control;36;37;1;14;98;0;0;0.93000000000000005;0.070000000000000007;0.0;0.0;41;2;87;66;0.17999999999999999;0.48999999999999999;0.32000000000000001;0.010000000000000101;0;18.131672935706774;33;55;20;2;
2019_03_22 14:54;55;1;0;control;37;117;1;65;85;92;41;0.23000000000000001;0.17999999999999999;0.54000000000000004;0.050000000000000003;99;93;10;13;0.64000000000000001;0.16;0.01;0.19;0;3.7623872342492177;33;55;20;2;
2019_03_22 14:54;55;1;0;control;38;17;1;81;52;0;0;0.059999999999999998;0.93999999999999995;0.0;0.0;34;3;69;41;0.01;0.22;0.75;0.02;0;4.032712972038098;33;55;20;2;
2019_03_22 14:54;55;1;0;control;39;16;0;64;53;0;0;0.65000000000000002;0.34999999999999998;0.0;0.0;29;17;81;46;0.10000000000000001;0.01;0.44;0.45000000000000001;0;5.193508079621097;33;55;20;2;
2019_03_22 14:54;55;1;0;control;40;89;0;26;41;13;56;0.059999999999999998;0.40999999999999998;0.050000000000000003;0.47999999999999998;5;97;0;0;0.37;0.63;0.0;0.0;1;14.479447832691221;33;55;20;2;
2019_03_22 14:54;55;1;0;control;41;140;0;36;32;26;27;0.39000000000000001;0.14999999999999999;0.19;0.27000000000000002;44;3;99;25;0.29999999999999999;0.34000000000000002;0.34000000000000002;0.0199999999999999;0;9.176023936101956;33;55;20;2;
2019_03_22 14:54;55;1;0;control;42;135;0;48;60;41;51;0.14000000000000001;0.40000000000000002;0.089999999999999997;0.37;94;1;85;65;0.64000000000000001;0.29999999999999999;0.01;0.050000000000000003;0;11.647487081329928;33;55;20;2;
2019_03_22 14:54;55;1;0;control;43;63;0;56;78;42;36;0.93000000000000005;0.040000000000000001;0.01;0.0199999999999999;2;72;0;0;0.32000000000000001;0.68000000000000005;0.0;0.0;0;17.12104646359421;33;55;20;2;
2019_03_22 14:54;55;1;0;control;44;41;0;99;40;0;0;0.89000000000000001;0.11;0.0;0.0;1;67;52;46;0.51000000000000001;0.38;0.029999999999999999;0.080000000000000002;0;6.153918834317665;33;55;20;2;
2019_03_22 14:54;55;1;0;control;45;9;1;61;69;0;0;0.93999999999999995;0.060000000000000102;0.0;0.0;18;93;72;16;0.40999999999999998;0.34999999999999998;0.089999999999999997;0.14999999999999999;0;5.2833200982177;33;55;20;2;
2019_03_22 14:54;55;1;0;control;46;35;1;33;37;0;0;0.88;0.12;0.0;0.0;63;4;79;98;0.16;0.46000000000000002;0.17000000000000001;0.20999999999999999;1;6.434201698029028;33;55;20;2;
2019_03_22 14:54;55;1;0;control;47;27;0;44;26;0;0;0.35999999999999999;0.64000000000000001;0.0;0.0;63;10;3;5;0.58999999999999997;0.19;0.14999999999999999;0.070000000000000007;0;4.222680604803827;33;55;20;2;
2019_03_22 14:54;55;1;0;control;48;120;1;64;40;48;51;0.19;0.02;0.070000000000000007;0.71999999999999997;97;9;79;94;0.23000000000000001;0.54000000000000004;0.01;0.22;0;8.20615958855251;33;55;20;2;
2019_03_22 14:54;55;1;0;control;49;68;1;84;27;55;62;0.01;0.050000000000000003;0.40999999999999998;0.53000000000000003;9;82;0;0;0.37;0.63;0.0;0.0;0;3.9925605394282684;33;55;20;2;
2019_03_22 14:54;55;1;0;control;50;116;0;53;65;43;99;0.56999999999999995;0.37;0.050000000000000003;0.010000000000000101;57;72;11;87;0.67000000000000004;0.13;0.14999999999999999;0.050000000000000003;0;8.775771271545636;33;55;20;2;
2019_03_22 14:54;55;1;0;control;51;96;0;51;54;39;7;0.17000000000000001;0.26000000000000001;0.10000000000000001;0.46999999999999997;24;96;0;0;0.28000000000000003;0.71999999999999997;0.0;0.0;1;7.91504659444854;33;55;20;2;
2019_03_22 14:54;55;1;0;control;52;22;0;32;55;0;0;0.39000000000000001;0.60999999999999999;0.0;0.0;93;72;59;22;0.20000000000000001;0.11;0.14000000000000001;0.55000000000000004;1;8.795649602561753;33;55;20;2;
2019_03_22 14:54;55;1;0;control;53;86;1;56;30;57;88;0.20000000000000001;0.35999999999999999;0.080000000000000002;0.35999999999999999;98;2;0;0;0.77000000000000002;0.23000000000000001;0.0;0.0;0;6.274118913343045;33;55;20;2;
2019_03_22 14:54;55;1;0;control;54;75;0;67;80;36;81;0.81999999999999995;0.080000000000000002;0.059999999999999998;0.040000000000000001;3;97;0;0;0.32000000000000001;0.68000000000000005;0.0;0.0;0;3.6024914303161495;33;55;20;2;
2019_03_22 14:54;55;1;0;control;55;122;0;35;58;25;31;0.81999999999999995;0.070000000000000007;0.080000000000000002;0.029999999999999999;18;64;68;89;0.63;0.17000000000000001;0.11;0.089999999999999997;1;9.175884422162198;33;55;20;2;
2019_03_22 14:54;55;1;0;control;56;95;0;93;88;68;85;0.83999999999999997;0.14000000000000001;0.01;0.01;2;82;0;0;0.41999999999999998;0.57999999999999996;0.0;0.0;0;4.432814576673081;33;55;20;2;
2019_03_22 14:54;55;1;0;control;57;39;1;14;33;0;0;0.78000000000000003;0.22;0.0;0.0;93;84;1;25;0.14000000000000001;0.23999999999999999;0.39000000000000001;0.23000000000000001;0;6.914558776742524;33;55;20;2;
2019_03_22 14:54;55;1;0;control;58;76;0;39;62;9;28;0.01;0.51000000000000001;0.26000000000000001;0.22;77;7;0;0;0.57999999999999996;0.41999999999999998;0.0;0.0;0;22.044183262945808;33;55;20;2;
2019_03_22 14:54;55;1;0;control;59;62;1;12;45;16;50;0.20999999999999999;0.76000000000000001;0.02;0.01;92;15;0;0;0.20999999999999999;0.79000000000000004;0.0;0.0;0;9.126065758211553;33;55;20;2;
2019_03_22 14:54;55;1;0;control;60;18;1;68;50;0;0;0.029999999999999999;0.96999999999999997;0.0;0.0;34;64;15;89;0.65000000000000002;0.029999999999999999;0.050000000000000003;0.27000000000000002;0;2.9918822130312037;33;55;20;2;
2019_03_22 14:54;55;1;0;control;61;108;0;48;72;39;70;0.14000000000000001;0.66000000000000003;0.02;0.17999999999999999;81;44;98;8;0.59999999999999998;0.029999999999999999;0.050000000000000003;0.32000000000000001;0;6.213912394226099;33;55;20;2;
2019_03_22 14:54;55;1;0;control;62;65;1;75;64;59;52;0.59999999999999998;0.22;0.14000000000000001;0.040000000000000001;1;99;0;0;0.35999999999999999;0.64000000000000001;0.0;0.0;0;2.551757105909928;33;55;20;2;
2019_03_22 14:54;55;1;0;control;63;99;0;8;24;15;73;0.56000000000000005;0.35999999999999999;0.070000000000000007;0.0099999999999999499;88;12;0;0;0.52000000000000002;0.47999999999999998;0.0;0.0;0;26.3371808177626;33;55;20;2;
2019_03_22 14:54;55;1;0;control;64;131;1;83;41;81;88;0.23999999999999999;0.58999999999999997;0.10000000000000001;0.070000000000000007;82;97;4;17;0.26000000000000001;0.46999999999999997;0.11;0.16;0;2.931841827754397;33;55;20;2;
2019_03_22 14:54;55;1;0;control;65;81;0;67;38;52;65;0.27000000000000002;0.35999999999999999;0.01;0.35999999999999999;2;77;0;0;0.14000000000000001;0.85999999999999999;0.0;0.0;0;3.9125067992999902;33;55;20;2;
2019_03_22 14:54;55;1;0;control;66;129;0;12;29;81;36;0.17999999999999999;0.79000000000000004;0.01;0.02;5;19;95;92;0.47999999999999998;0.26000000000000001;0.13;0.13;0;7.804989018489323;33;55;20;2;
2019_03_22 14:54;55;1;0;control;67;69;1;54;34;64;49;0.34000000000000002;0.25;0.20999999999999999;0.20000000000000001;14;98;0;0;0.62;0.38;0.0;0.0;0;3.2820686421409846;33;55;20;2;
2019_03_22 14:54;55;1;0;control;68;52;0;71;51;10;54;0.22;0.12;0.19;0.46999999999999997;91;1;0;0;0.29999999999999999;0.69999999999999996;0.0;0.0;0;3.632677436073209;33;55;20;2;
2019_03_22 14:54;55;1;0;control;69;23;0;54;40;0;0;0.93000000000000005;0.070000000000000007;0.0;0.0;36;23;71;86;0.02;0.41999999999999998;0.19;0.37;1;7.194717200432933;33;55;20;2;
2019_03_22 14:54;55;1;0;control;70;15;0;77;81;0;0;0.28000000000000003;0.71999999999999997;0.0;0.0;98;14;87;18;0.55000000000000004;0.23000000000000001;0.16;0.059999999999999901;0;10.957187180882102;33;55;20;2;
2019_03_22 14:54;55;1;0;control;71;84;0;43;10;5;45;0.78000000000000003;0.13;0.059999999999999998;0.029999999999999999;87;1;0;0;0.57999999999999996;0.41999999999999998;0.0;0.0;0;3.0719292180037883;33;55;20;2;
2019_03_22 14:54;55;1;0;control;72;34;1;32;48;0;0;0.28000000000000003;0.71999999999999997;0.0;0.0;97;83;7;62;0.040000000000000001;0.54000000000000004;0.35999999999999999;0.059999999999999901;1;6.964588796292446;33;55;20;2;
2019_03_22 14:54;55;1;0;control;73;115;0;50;28;61;79;0.83999999999999997;0.040000000000000001;0.059999999999999998;0.059999999999999998;1;26;97;55;0.45000000000000001;0.080000000000000002;0.40999999999999998;0.060000000000000102;0;6.8844102954235495;33;55;20;2;
2019_03_22 14:54;55;1;0;control;74;145;0;91;89;90;74;0.57999999999999996;0.29999999999999999;0.11;0.010000000000000101;2;75;84;39;0.32000000000000001;0.27000000000000002;0.39000000000000001;0.0199999999999999;0;3.5622783813050773;33;55;20;2;
2019_03_22 14:54;55;1;0;control;75;40;1;45;49;0;0;0.68999999999999995;0.31;0.0;0.0;2;92;65;73;0.23999999999999999;0.59999999999999998;0.11;0.050000000000000003;1;5.433594892570909;33;55;20;2;
2019_03_22 14:54;55;2;0;timed;1;144;0;99;93;90;71;0.65000000000000002;0.32000000000000001;0.01;0.02;97;14;48;73;0.23000000000000001;0.46000000000000002;0.13;0.17999999999999999;0;5.062381974414166;33;55;20;2;
2019_03_22 14:54;55;2;0;timed;2;145;0;91;89;90;74;0.57999999999999996;0.29999999999999999;0.11;0.010000000000000101;2;75;84;39;0.32000000000000001;0.27000000000000002;0.39000000000000001;0.0199999999999999;0;2.6016844945170305;33;55;20;2;
2019_03_22 14:54;55;2;0;timed;3;17;1;81;52;0;0;0.059999999999999998;0.93999999999999995;0.0;0.0;34;3;69;41;0.01;0.22;0.75;0.02;0;2.831813860821967;33;55;20;2;
2019_03_22 14:54;55;2;0;timed;4;5;0;70;5;0;0;0.98999999999999999;0.01;0.0;0.0;92;87;47;1;0.44;0.02;0.16;0.38;1;4.352782645620209;33;55;20;2;
2019_03_22 14:54;55;2;0;timed;5;120;0;64;40;48;51;0.19;0.02;0.070000000000000007;0.71999999999999997;97;9;79;94;0.23000000000000001;0.54000000000000004;0.01;0.22;0;6.494111549573972;33;55;20;2;
2019_03_22 14:54;55;2;0;timed;6;132;1;27;70;21;19;0.64000000000000001;0.23000000000000001;0.029999999999999999;0.10000000000000001;11;85;55;6;0.39000000000000001;0.46999999999999997;0.029999999999999999;0.11;0;2.961859454619116;33;55;20;2;
2019_03_22 14:54;55;2;0;timed;7;24;1;35;27;0;0;0.070000000000000007;0.93000000000000005;0.0;0.0;62;3;81;95;0.35999999999999999;0.55000000000000004;0.01;0.080000000000000002;0;6.904548731738032;33;55;20;2;
2019_03_22 14:54;55;2;0;timed;8;52;1;71;51;10;54;0.22;0.12;0.19;0.46999999999999997;91;1;0;0;0.29999999999999999;0.69999999999999996;0.0;0.0;0;1.8711606405195198;33;55;20;2;
2019_03_22 14:54;55;2;0;timed;9;105;1;49;74;63;58;0.84999999999999998;0.080000000000000002;0.02;0.050000000000000003;97;5;86;8;0.25;0.52000000000000002;0.070000000000000007;0.16;0;2.601644725025835;33;55;20;2;
2019_03_22 14:54;55;2;0;timed;10;95;1;93;88;68;85;0.83999999999999997;0.14000000000000001;0.01;0.01;2;82;0;0;0.41999999999999998;0.57999999999999996;0.0;0.0;0;2.3615980022887015;33;55;20;2;
2019_03_22 14:54;55;2;0;timed;11;140;0;36;32;26;27;0.39000000000000001;0.14999999999999999;0.19;0.27000000000000002;44;3;99;25;0.29999999999999999;0.34000000000000002;0.34000000000000002;0.0199999999999999;0;8.605510062963731;33;55;20;2;
2019_03_22 14:54;55;2;0;timed;12;7;1;49;29;0;0;0.95999999999999996;0.040000000000000001;0.0;0.0;23;99;64;25;0.68999999999999995;0.12;0.059999999999999998;0.13;1;5.674251948705205;33;55;20;2;
2019_03_22 14:54;55;2;0;timed;13;44;0;79;74;0;0;0.71999999999999997;0.28000000000000003;0.0;0.0;3;67;15;36;0.41999999999999998;0.53000000000000003;0.02;0.029999999999999999;0;1.7112154454434858;33;55;20;2;
2019_03_22 14:54;55;2;0;timed;14;146;0;25;5;64;35;0.94999999999999996;0.02;0.01;0.02;47;97;12;79;0.20999999999999999;0.029999999999999999;0.02;0.73999999999999999;1;4.372949946888184;33;55;20;2;
2019_03_22 14:54;55;2;0;timed;15;114;0;57;39;79;97;0.77000000000000002;0.02;0.13;0.080000000000000002;92;36;6;1;0.54000000000000004;0.12;0.13;0.20999999999999999;0;4.122611906215752;33;55;20;2;
2019_03_22 14:54;55;2;0;timed;16;78;0;74;36;34;3;0.14999999999999999;0.64000000000000001;0.13;0.080000000000000002;1;83;0;0;0.41999999999999998;0.57999999999999996;0.0;0.0;0;4.673117556048965;33;55;20;2;
2019_03_22 14:54;55;2;0;timed;17;137;0;71;22;28;17;0.25;0.46000000000000002;0.050000000000000003;0.23999999999999999;3;98;92;69;0.42999999999999999;0.23999999999999999;0.20000000000000001;0.13;1;6.884537942659335;33;55;20;2;
2019_03_22 14:54;55;2;0;timed;18;48;0;13;32;0;0;0.90000000000000002;0.10000000000000001;0.0;0.0;24;99;84;94;0.62;0.14999999999999999;0.20000000000000001;0.029999999999999999;1;1.7110871567638242;33;55;20;2;
2019_03_22 14:54;55;2;0;timed;19;3;0;53;40;0;0;0.31;0.68999999999999995;0.0;0.0;96;24;7;88;0.11;0.27000000000000002;0.58999999999999997;0.029999999999999999;0;3.3622936476576797;33;55;20;2;
2019_03_22 14:54;55;2;0;timed;20;142;1;98;65;64;84;0.88;0.070000000000000007;0.01;0.040000000000000001;5;68;60;16;0.46000000000000002;0.080000000000000002;0.27000000000000002;0.19;0;3.442322371492992;33;55;20;2;
2019_03_22 14:54;55;2;0;timed;21;71;0;68;55;36;51;0.20000000000000001;0.75;0.02;0.029999999999999999;38;81;0;0;0.52000000000000002;0.47999999999999998;0.0;0.0;1;9.035932376470555;33;55;20;2;
2019_03_22 14:54;55;2;0;timed;22;83;0;17;12;7;41;0.65000000000000002;0.19;0.089999999999999997;0.070000000000000007;6;84;0;0;0.72999999999999998;0.27000000000000002;0.0;0.0;1;9.436212623093525;33;55;20;2;
2019_03_22 14:54;55;2;0;timed;23;4;0;40;43;0;0;0.58999999999999997;0.40999999999999998;0.0;0.0;2;33;88;81;0.69999999999999996;0.14000000000000001;0.13;0.029999999999999999;0;3.0820819841637785;33;55;20;2;
2019_03_22 14:54;55;2;0;timed;24;136;1;29;67;14;75;0.46000000000000002;0.29999999999999999;0.20999999999999999;0.0300000000000001;70;86;1;85;0.31;0.39000000000000001;0.27000000000000002;0.029999999999999898;1;9.285966052249023;33;55;20;2;
2019_03_22 14:54;55;2;0;timed;25;148;0;37;63;55;10;0.72999999999999998;0.070000000000000007;0.029999999999999999;0.17000000000000001;80;14;23;70;0.46999999999999997;0.10000000000000001;0.23000000000000001;0.20000000000000001;0;8.125348624489561;33;55;20;2;
2019_03_22 14:54;55;2;0;timed;26;63;1;56;78;42;36;0.93000000000000005;0.040000000000000001;0.01;0.0199999999999999;2;72;0;0;0.32000000000000001;0.68000000000000005;0.0;0.0;0;2.43154451873761;33;55;20;2;
2019_03_22 14:54;55;2;0;timed;27;86;0;56;30;57;88;0.20000000000000001;0.35999999999999999;0.080000000000000002;0.35999999999999999;98;2;0;0;0.77000000000000002;0.23000000000000001;0.0;0.0;0;3.312083061788144;33;55;20;2;
2019_03_22 14:54;55;2;0;timed;28;84;1;43;10;5;45;0.78000000000000003;0.13;0.059999999999999998;0.029999999999999999;87;1;0;0;0.57999999999999996;0.41999999999999998;0.0;0.0;1;4.6431489996048185;33;55;20;2;
2019_03_22 14:54;55;2;0;timed;29;15;1;77;81;0;0;0.28000000000000003;0.71999999999999997;0.0;0.0;98;14;87;18;0.55000000000000004;0.23000000000000001;0.16;0.059999999999999901;0;2.791750588845389;33;55;20;2;
2019_03_22 14:54;55;2;0;timed;30;51;1;52;23;43;16;0.60999999999999999;0.20999999999999999;0.01;0.17000000000000001;92;7;0;0;0.14999999999999999;0.84999999999999998;0.0;0.0;0;2.6718452530622017;33;55;20;2;
2019_03_22 14:54;55;2;0;timed;31;6;1;9;51;0;0;0.14999999999999999;0.84999999999999998;0.0;0.0;6;40;50;73;0.42999999999999999;0.26000000000000001;0.059999999999999998;0.25;0;3.9925201284941068;33;55;20;2;
2019_03_22 14:54;55;2;0;timed;32;70;1;66;55;69;50;0.22;0.29999999999999999;0.29999999999999999;0.17999999999999999;2;90;0;0;0.34000000000000002;0.66000000000000003;0.0;0.0;0;3.482222396124598;33;55;20;2;
2019_03_22 14:54;55;2;0;timed;33;59;1;56;47;83;90;0.31;0.12;0.54000000000000004;0.029999999999999898;10;98;0;0;0.46999999999999997;0.53000000000000003;0.0;0.0;0;3.5523530068303444;33;55;20;2;
2019_03_22 14:54;55;2;0;timed;34;76;0;39;62;9;28;0.01;0.51000000000000001;0.26000000000000001;0.22;77;7;0;0;0.57999999999999996;0.41999999999999998;0.0;0.0;0;2.271425171778901;33;55;20;2;
2019_03_22 14:54;55;2;0;timed;35;66;1;89;23;27;15;0.070000000000000007;0.54000000000000004;0.17000000000000001;0.22;9;73;0;0;0.72999999999999998;0.27000000000000002;0.0;0.0;0;3.672322807674391;33;55;20;2;
2019_03_22 14:54;55;2;0;timed;36;110;1;47;44;23;52;0.13;0.27000000000000002;0.040000000000000001;0.56000000000000005;99;2;30;22;0.28999999999999998;0.5;0.11;0.10000000000000001;0;9.205902049026918;33;55;20;2;
2019_03_22 14:54;55;2;0;timed;37;36;1;70;17;0;0;0.33000000000000002;0.67000000000000004;0.0;0.0;84;1;12;88;0.22;0.27000000000000002;0.14000000000000001;0.37;0;4.71310642059143;33;55;20;2;
2019_03_22 14:54;55;2;0;timed;38;139;0;44;31;16;8;0.79000000000000004;0.070000000000000007;0.13;0.0099999999999999499;92;58;2;88;0.55000000000000004;0.070000000000000007;0.34000000000000002;0.039999999999999897;1;4.242841812359984;33;55;20;2;
2019_03_22 14:54;55;2;0;timed;39;23;0;54;40;0;0;0.93000000000000005;0.070000000000000007;0.0;0.0;36;23;71;86;0.02;0.41999999999999998;0.19;0.37;0;2.2715412730340176;33;55;20;2;
2019_03_22 14:54;55;2;0;timed;40;22;0;32;55;0;0;0.39000000000000001;0.60999999999999999;0.0;0.0;93;72;59;22;0.20000000000000001;0.11;0.14000000000000001;0.55000000000000004;1;5.993795317976037;33;55;20;2;
2019_03_22 14:54;55;2;0;timed;41;68;1;84;27;55;62;0.01;0.050000000000000003;0.40999999999999998;0.53000000000000003;9;82;0;0;0.37;0.63;0.0;0.0;0;3.7625623482990704;33;55;20;2;
2019_03_22 14:54;55;2;0;timed;42;90;0;27;44;50;72;0.68000000000000005;0.28999999999999998;0.02;0.0099999999999999707;6;96;0;0;0.46999999999999997;0.53000000000000003;0.0;0.0;0;3.9325448497229445;33;55;20;2;
2019_03_22 14:54;55;2;0;timed;43;42;0;70;48;0;0;0.79000000000000004;0.20999999999999999;0.0;0.0;51;8;12;67;0.19;0.26000000000000001;0.28999999999999998;0.26000000000000001;0;3.031915016446874;33;55;20;2;
2019_03_22 14:54;55;2;0;timed;44;56;0;28;84;37;41;0.68000000000000005;0.28000000000000003;0.02;0.0199999999999999;6;95;0;0;0.72999999999999998;0.27000000000000002;0.0;0.0;0;2.7117965931656727;33;55;20;2;
2019_03_22 14:54;55;2;0;timed;45;88;1;77;13;12;7;0.12;0.19;0.66000000000000003;0.029999999999999898;94;2;0;0;0.40999999999999998;0.58999999999999997;0.0;0.0;0;6.954442123845183;33;55;20;2;
2019_03_22 14:54;55;2;0;timed;46;34;1;32;48;0;0;0.28000000000000003;0.71999999999999997;0.0;0.0;97;83;7;62;0.040000000000000001;0.54000000000000004;0.35999999999999999;0.059999999999999901;1;3.2720675773452967;33;55;20;2;
2019_03_22 14:54;55;2;0;timed;47;118;1;62;52;65;68;0.40999999999999998;0.44;0.10000000000000001;0.0500000000000001;79;20;14;37;0.56999999999999995;0.23999999999999999;0.14000000000000001;0.050000000000000003;0;2.2413786799606896;33;55;20;2;
2019_03_22 14:54;55;2;0;timed;48;28;1;47;30;0;0;0.97999999999999998;0.02;0.0;0.0;55;48;77;13;0.070000000000000007;0.26000000000000001;0.42999999999999999;0.23999999999999999;1;2.2715454424169366;33;55;20;2;
2019_03_22 14:54;55;2;0;timed;49;108;0;48;72;39;70;0.14000000000000001;0.66000000000000003;0.02;0.17999999999999999;81;44;98;8;0.59999999999999998;0.029999999999999999;0.050000000000000003;0.32000000000000001;0;6.934410487856439;33;55;20;2;
2019_03_22 14:54;55;2;0;timed;50;26;1;76;41;0;0;0.57999999999999996;0.41999999999999998;0.0;0.0;61;79;84;2;0.13;0.029999999999999999;0.67000000000000004;0.17000000000000001;0;3.9225841958605088;33;55;20;2;
2019_03_22 14:54;55;2;0;timed;51;11;1;17;36;0;0;0.14000000000000001;0.85999999999999999;0.0;0.0;19;41;34;95;0.88;0.02;0.050000000000000003;0.050000000000000003;1;3.1520031635982377;33;55;20;2;
2019_03_22 14:54;55;2;0;timed;52;135;1;48;60;41;51;0.14000000000000001;0.40000000000000002;0.089999999999999997;0.37;94;1;85;65;0.64000000000000001;0.29999999999999999;0.01;0.050000000000000003;NA;11.12717128591521;33;55;20;2;
2019_03_22 14:54;55;2;0;timed;53;121;1;42;51;47;70;0.41999999999999998;0.17000000000000001;0.23999999999999999;0.17000000000000001;21;76;48;9;0.14999999999999999;0.34000000000000002;0.40999999999999998;0.10000000000000001;0;2.321835567267044;33;55;20;2;
2019_03_22 14:54;55;2;0;timed;54;35;1;33;37;0;0;0.88;0.12;0.0;0.0;63;4;79;98;0.16;0.46000000000000002;0.17000000000000001;0.20999999999999999;1;5.1532783530810775;33;55;20;2;
2019_03_22 14:54;55;2;0;timed;55;31;0;10;59;0;0;0.23999999999999999;0.76000000000000001;0.0;0.0;1;79;53;73;0.23000000000000001;0.58999999999999997;0.050000000000000003;0.13;0;4.0826894310657735;33;55;20;2;
2019_03_22 14:54;55;2;0;timed;56;141;0;93;28;60;91;0.81999999999999995;0.10000000000000001;0.01;0.070000000000000007;14;85;7;89;0.45000000000000001;0.070000000000000007;0.23999999999999999;0.23999999999999999;0;2.5217109348141094;33;55;20;2;
2019_03_22 14:54;55;2;0;timed;57;81;0;67;38;52;65;0.27000000000000002;0.35999999999999999;0.01;0.35999999999999999;2;77;0;0;0.14000000000000001;0.85999999999999999;0.0;0.0;0;9.035952902660028;33;55;20;2;
2019_03_22 14:54;55;2;0;timed;58;25;1;50;53;0;0;0.82999999999999996;0.17000000000000001;0.0;0.0;83;16;97;4;0.45000000000000001;0.29999999999999999;0.11;0.14000000000000001;0;2.4317000687624386;33;55;20;2;
2019_03_22 14:54;55;2;0;timed;59;87;0;10;30;63;4;0.56999999999999995;0.12;0.16;0.14999999999999999;86;2;0;0;0.42999999999999999;0.56999999999999995;0.0;0.0;0;3.4822454880868463;33;55;20;2;
2019_03_22 14:54;55;2;0;timed;60;104;1;55;85;93;3;0.87;0.02;0.089999999999999997;0.02;1;2;90;8;0.35999999999999999;0.070000000000000007;0.40000000000000002;0.17000000000000001;0;3.36212526876443;33;55;20;2;
2019_03_22 14:54;55;2;0;timed;61;57;1;52;35;23;47;0.22;0.68000000000000005;0.040000000000000001;0.059999999999999998;71;7;0;0;0.28999999999999998;0.70999999999999996;0.0;0.0;0;4.152812665171041;33;55;20;2;
2019_03_22 14:54;55;2;0;timed;62;126;1;16;55;51;42;0.68999999999999995;0.23999999999999999;0.01;0.060000000000000102;66;4;1;5;0.46999999999999997;0.38;0.089999999999999997;0.059999999999999998;0;3.692328144484236;33;55;20;2;
2019_03_22 14:54;55;2;0;timed;63;58;0;37;58;76;34;0.20999999999999999;0.57999999999999996;0.19;0.020000000000000101;86;5;0;0;0.47999999999999998;0.52000000000000002;0.0;0.0;0;3.071947178418668;33;55;20;2;
2019_03_22 14:54;55;2;0;timed;64;49;0;21;30;0;0;0.53000000000000003;0.46999999999999997;0.0;0.0;93;99;89;25;0.44;0.02;0.11;0.42999999999999999;1;1.710924230139426;33;55;20;2;
2019_03_22 14:54;55;2;0;timed;65;91;0;74;81;86;48;0.93000000000000005;0.02;0.01;0.039999999999999897;7;64;0;0;0.13;0.87;0.0;0.0;0;2.1513668517445694;33;55;20;2;
2019_03_22 14:54;55;2;0;timed;66;37;0;14;98;0;0;0.93000000000000005;0.070000000000000007;0.0;0.0;41;2;87;66;0.17999999999999999;0.48999999999999999;0.32000000000000001;0.010000000000000101;1;2.101471856029093;33;55;20;2;
2019_03_22 14:54;55;2;0;timed;67;93;1;87;81;73;98;0.80000000000000004;0.040000000000000001;0.14999999999999999;0.0099999999999999499;5;71;0;0;0.51000000000000001;0.48999999999999999;0.0;0.0;0;2.5918210193312916;33;55;20;2;
2019_03_22 14:54;55;2;0;timed;68;106;0;85;69;22;61;0.10000000000000001;0.58999999999999997;0.17999999999999999;0.13;20;79;91;84;0.55000000000000004;0.14999999999999999;0.26000000000000001;0.039999999999999897;1;3.4922083870005736;33;55;20;2;
2019_03_22 14:54;55;2;0;timed;69;99;0;8;24;15;73;0.56000000000000005;0.35999999999999999;0.070000000000000007;0.0099999999999999499;88;12;0;0;0.52000000000000002;0.47999999999999998;0.0;0.0;1;4.592936168683991;33;55;20;2;
2019_03_22 14:54;55;2;0;timed;70;46;1;5;19;0;0;0.32000000000000001;0.68000000000000005;0.0;0.0;88;38;97;66;0.60999999999999999;0.20000000000000001;0.040000000000000001;0.14999999999999999;1;3.0719330666643145;33;55;20;2;
2019_03_22 14:54;55;2;0;timed;71;2;0;59;32;0;0;0.080000000000000002;0.92000000000000004;0.0;0.0;33;38;85;1;0.28999999999999998;0.050000000000000003;0.070000000000000007;0.58999999999999997;1;2.7917464194633794;33;55;20;2;
2019_03_22 14:54;55;2;0;timed;72;32;0;19;81;0;0;0.93000000000000005;0.070000000000000007;0.0;0.0;1;65;41;68;0.45000000000000001;0.050000000000000003;0.059999999999999998;0.44;0;4.462839900858853;33;55;20;2;
2019_03_22 14:54;55;2;0;timed;73;65;1;75;64;59;52;0.59999999999999998;0.22;0.14000000000000001;0.040000000000000001;1;99;0;0;0.35999999999999999;0.64000000000000001;0.0;0.0;0;2.4415026068263614;33;55;20;2;
2019_03_22 14:54;55;2;0;timed;74;101;0;30;96;61;45;0.65000000000000002;0.14000000000000001;0.11;0.10000000000000001;3;98;63;89;0.75;0.19;0.040000000000000001;0.02;0;6.5241606071649585;33;55;20;2;
2019_03_22 14:54;55;2;0;timed;75;14;1;36;40;0;0;0.54000000000000004;0.46000000000000002;0.0;0.0;99;70;1;11;0.16;0.089999999999999997;0.080000000000000002;0.67000000000000004;1;3.8325274666067344;33;55;20;2;
2019_03_22 14:54;55;3;0;control;1;82;0;78;66;30;27;0.28999999999999998;0.58999999999999997;0.080000000000000002;0.040000000000000001;90;6;0;0;0.82999999999999996;0.17000000000000001;0.0;0.0;0;13.125425597697358;33;55;20;2;
2019_03_22 14:54;55;3;0;control;2;73;0;65;68;70;47;0.25;0.23000000000000001;0.20999999999999999;0.31;27;95;0;0;0.45000000000000001;0.55000000000000004;0.0;0.0;0;3.6722718129240093;33;55;20;2;
2019_03_22 14:54;55;3;0;control;3;11;0;17;36;0;0;0.14000000000000001;0.85999999999999999;0.0;0.0;19;41;34;95;0.88;0.02;0.050000000000000003;0.050000000000000003;1;3.952468402498198;33;55;20;2;
2019_03_22 14:54;55;3;0;control;4;104;1;55;85;93;3;0.87;0.02;0.089999999999999997;0.02;1;2;90;8;0.35999999999999999;0.070000000000000007;0.40000000000000002;0.17000000000000001;0;2.68162822710201;33;55;20;2;
2019_03_22 14:54;55;3;0;control;5;94;1;84;86;93;39;0.78000000000000003;0.20000000000000001;0.01;0.0099999999999999603;9;83;0;0;0.46999999999999997;0.53000000000000003;0.0;0.0;0;2.791893951444763;33;55;20;2;
2019_03_22 14:54;55;3;0;control;6;148;0;37;63;55;10;0.72999999999999998;0.070000000000000007;0.029999999999999999;0.17000000000000001;80;14;23;70;0.46999999999999997;0.10000000000000001;0.23000000000000001;0.20000000000000001;0;14.649441880095765;33;55;20;2;
2019_03_22 14:54;55;3;0;control;7;138;0;8;20;43;51;0.38;0.5;0.02;0.10000000000000001;72;82;70;1;0.39000000000000001;0.050000000000000003;0.070000000000000007;0.48999999999999999;0;9.376013801296722;33;55;20;2;
2019_03_22 14:54;55;3;0;control;8;46;1;5;19;0;0;0.32000000000000001;0.68000000000000005;0.0;0.0;88;38;97;66;0.60999999999999999;0.20000000000000001;0.040000000000000001;0.14999999999999999;1;2.2314177053776802;33;55;20;2;
2019_03_22 14:54;55;3;0;control;9;14;0;36;40;0;0;0.54000000000000004;0.46000000000000002;0.0;0.0;99;70;1;11;0.16;0.089999999999999997;0.080000000000000002;0.67000000000000004;0;3.2320729398124968;33;55;20;2;
2019_03_22 14:54;55;3;0;control;10;55;1;74;55;47;48;0.60999999999999999;0.31;0.070000000000000007;0.01;97;6;0;0;0.42999999999999999;0.56999999999999995;0.0;0.0;0;5.193425974865022;33;55;20;2;
2019_03_22 14:54;55;3;0;control;11;150;0;25;21;78;38;0.84999999999999998;0.059999999999999998;0.050000000000000003;0.040000000000000001;31;43;64;95;0.059999999999999998;0.45000000000000001;0.13;0.35999999999999999;1;15.139737162152414;33;55;20;2;
2019_03_22 14:54;55;3;0;control;12;67;0;44;42;8;89;0.88;0.070000000000000007;0.029999999999999999;0.02;10;63;0;0;0.39000000000000001;0.60999999999999999;0.0;0.0;0;9.236074263751107;33;55;20;2;
2019_03_22 14:54;55;3;0;control;13;109;0;75;28;16;56;0.19;0.070000000000000007;0.059999999999999998;0.68000000000000005;3;50;98;44;0.5;0.02;0.34999999999999998;0.13;0;12.568213657099477;33;55;20;2;
2019_03_22 14:54;55;3;0;control;14;50;1;15;20;0;0;0.82999999999999996;0.17000000000000001;0.0;0.0;97;18;88;87;0.56999999999999995;0.39000000000000001;0.01;0.029999999999999999;1;3.27207110528434;33;55;20;2;
2019_03_22 14:54;55;3;0;control;15;2;1;59;32;0;0;0.080000000000000002;0.92000000000000004;0.0;0.0;33;38;85;1;0.28999999999999998;0.050000000000000003;0.070000000000000007;0.58999999999999997;0;3.632298984467525;33;55;20;2;
2019_03_22 14:54;55;3;0;control;16;20;0;44;40;0;0;0.91000000000000003;0.089999999999999997;0.0;0.0;29;5;80;99;0.25;0.40000000000000002;0.26000000000000001;0.089999999999999997;0;5.803836665418203;33;55;20;2;
2019_03_22 14:54;55;3;0;control;17;77;0;24;17;99;41;0.17999999999999999;0.13;0.10000000000000001;0.58999999999999997;12;97;0;0;0.59999999999999998;0.40000000000000002;0.0;0.0;0;4.673101519963893;33;55;20;2;
2019_03_22 14:54;55;3;0;control;18;30;1;33;30;0;0;0.71999999999999997;0.28000000000000003;0.0;0.0;9;88;1;14;0.55000000000000004;0.39000000000000001;0.01;0.049999999999999899;0;4.873098120314353;33;55;20;2;
2019_03_22 14:54;55;3;0;control;19;118;1;62;52;65;68;0.40999999999999998;0.44;0.10000000000000001;0.0500000000000001;79;20;14;37;0.56999999999999995;0.23999999999999999;0.14000000000000001;0.050000000000000003;0;2.241383170064182;33;55;20;2;
2019_03_22 14:54;55;3;0;control;20;97;0;17;33;32;74;0.94999999999999996;0.01;0.029999999999999999;0.01;76;23;0;0;0.33000000000000002;0.67000000000000004;0.0;0.0;1;5.16340706511437;33;55;20;2;
2019_03_22 14:54;55;3;0;control;21;31;0;10;59;0;0;0.23999999999999999;0.76000000000000001;0.0;0.0;1;79;53;73;0.23000000000000001;0.58999999999999997;0.050000000000000003;0.13;1;5.3435692733219184;33;55;20;2;
2019_03_22 14:54;55;3;0;control;22;143;0;88;44;56;73;0.95999999999999996;0.02;0.01;0.01;20;3;87;32;0.19;0.40000000000000002;0.28000000000000003;0.13;0;3.8824734570725923;33;55;20;2;
2019_03_22 14:54;55;3;0;control;23;28;0;47;30;0;0;0.97999999999999998;0.02;0.0;0.0;55;48;77;13;0.070000000000000007;0.26000000000000001;0.42999999999999999;0.23999999999999999;1;3.2320533757883823;33;55;20;2;
2019_03_22 14:54;55;3;0;control;24;48;0;13;32;0;0;0.90000000000000002;0.10000000000000001;0.0;0.0;24;99;84;94;0.62;0.14999999999999999;0.20000000000000001;0.029999999999999999;1;6.714294694493219;33;55;20;2;
2019_03_22 14:54;55;3;0;control;25;61;0;43;18;39;70;0.75;0.089999999999999997;0.089999999999999997;0.070000000000000007;16;66;0;0;0.64000000000000001;0.35999999999999999;0.0;0.0;0;6.264037988844393;33;55;20;2;
2019_03_22 14:54;55;3;0;control;26;29;1;44;51;0;0;0.78000000000000003;0.22;0.0;0.0;74;1;68;82;0.69999999999999996;0.28000000000000003;0.01;0.01;0;21.554080413910015;33;55;20;2;
2019_03_22 14:54;55;3;0;control;27;12;1;53;68;0;0;0.31;0.68999999999999995;0.0;0.0;69;54;97;29;0.25;0.20999999999999999;0.20000000000000001;0.34000000000000002;0;3.352313750493522;33;55;20;2;
2019_03_22 14:54;55;3;0;control;28;66;1;89;23;27;15;0.070000000000000007;0.54000000000000004;0.17000000000000001;0.22;9;73;0;0;0.72999999999999998;0.27000000000000002;0.0;0.0;0;1.8310819739008366;33;55;20;2;
2019_03_22 14:54;55;3;0;control;29;144;0;99;93;90;71;0.65000000000000002;0.32000000000000001;0.01;0.02;97;14;48;73;0.23000000000000001;0.46000000000000002;0.13;0.17999999999999999;0;1.5009272064371544;33;55;20;2;
2019_03_22 14:54;55;3;0;control;30;64;1;48;39;34;19;0.46000000000000002;0.5;0.02;0.02;13;92;0;0;0.68999999999999995;0.31;0.0;0.0;0;2.2314231576456223;33;55;20;2;
2019_03_22 14:54;55;3;0;control;31;8;1;50;36;0;0;0.080000000000000002;0.92000000000000004;0.0;0.0;6;19;84;29;0.54000000000000004;0.070000000000000007;0.17000000000000001;0.22;0;17.841577591559144;33;55;20;2;
2019_03_22 14:54;55;3;0;control;32;80;0;47;39;45;10;0.13;0.76000000000000001;0.059999999999999998;0.050000000000000003;2;87;0;0;0.48999999999999999;0.51000000000000001;0.0;0.0;0;2.8718232515539057;33;55;20;2;
2019_03_22 14:54;55;3;0;control;33;103;1;38;49;89;50;0.89000000000000001;0.070000000000000007;0.01;0.029999999999999999;6;64;99;27;0.70999999999999996;0.17999999999999999;0.059999999999999998;0.050000000000000003;0;2.881840352434665;33;55;20;2;
2019_03_22 14:54;55;3;0;control;34;133;0;59;88;60;36;0.67000000000000004;0.070000000000000007;0.12;0.14000000000000001;7;91;66;61;0.25;0.68999999999999995;0.01;0.0500000000000001;0;2.891840455064994;33;55;20;2;
2019_03_22 14:54;55;3;0;control;35;132;0;27;70;21;19;0.64000000000000001;0.23000000000000001;0.029999999999999999;0.10000000000000001;11;85;55;6;0.39000000000000001;0.46999999999999997;0.029999999999999999;0.11;0;5.523474904168324;33;55;20;2;
2019_03_22 14:54;55;3;0;control;36;136;1;29;67;14;75;0.46000000000000002;0.29999999999999999;0.20999999999999999;0.0300000000000001;70;86;1;85;0.31;0.39000000000000001;0.27000000000000002;0.029999999999999898;0;2.3315829411976665;33;55;20;2;
2019_03_22 14:54;55;3;0;control;37;3;1;53;40;0;0;0.31;0.68999999999999995;0.0;0.0;96;24;7;88;0.11;0.27000000000000002;0.58999999999999997;0.029999999999999999;0;2.5916343593007696;33;55;20;2;
2019_03_22 14:54;55;3;0;control;38;130;1;37;79;23;95;0.94999999999999996;0.029999999999999999;0.01;0.01;94;4;58;49;0.46000000000000002;0.5;0.029999999999999999;0.01;0;2.281419822141288;33;55;20;2;
2019_03_22 14:54;55;3;0;control;39;49;0;21;30;0;0;0.53000000000000003;0.46999999999999997;0.0;0.0;93;99;89;25;0.44;0.02;0.11;0.42999999999999999;1;1.591246927485372;33;55;20;2;
2019_03_22 14:54;55;3;0;control;40;24;0;35;27;0;0;0.070000000000000007;0.93000000000000005;0.0;0.0;62;3;81;95;0.35999999999999999;0.55000000000000004;0.01;0.080000000000000002;1;5.153228961939021;33;55;20;2;
2019_03_22 14:54;55;3;0;control;41;105;1;49;74;63;58;0.84999999999999998;0.080000000000000002;0.02;0.050000000000000003;97;5;86;8;0.25;0.52000000000000002;0.070000000000000007;0.16;0;2.7217238919711235;33;55;20;2;
2019_03_22 14:54;55;3;0;control;42;100;1;27;14;59;52;0.02;0.95999999999999996;0.01;0.01;17;98;0;0;0.48999999999999999;0.51000000000000001;0.0;0.0;0;8.915664625166755;33;55;20;2;
2019_03_22 14:54;55;3;0;control;43;114;0;57;39;79;97;0.77000000000000002;0.02;0.13;0.080000000000000002;92;36;6;1;0.54000000000000004;0.12;0.13;0.20999999999999999;0;4.172651226696871;33;55;20;2;
2019_03_22 14:54;55;3;0;control;44;6;1;9;51;0;0;0.14999999999999999;0.84999999999999998;0.0;0.0;6;40;50;73;0.42999999999999999;0.26000000000000001;0.059999999999999998;0.25;1;4.392947586376977;33;55;20;2;
2019_03_22 14:54;55;3;0;control;45;59;1;56;47;83;90;0.31;0.12;0.54000000000000004;0.029999999999999898;10;98;0;0;0.46999999999999997;0.53000000000000003;0.0;0.0;0;1.7111657335799464;33;55;20;2;
2019_03_22 14:54;55;3;0;control;46;147;0;39;43;76;28;0.14000000000000001;0.10000000000000001;0.10000000000000001;0.66000000000000003;6;31;68;85;0.27000000000000002;0.20000000000000001;0.22;0.31;0;2.962267733344561;33;55;20;2;
2019_03_22 14:54;55;3;0;control;47;19;0;22;53;0;0;0.13;0.87;0.0;0.0;4;93;96;65;0.46999999999999997;0.059999999999999998;0.26000000000000001;0.20999999999999999;0;3.282055813273473;33;55;20;2;
2019_03_22 14:54;55;3;0;control;48;83;1;17;12;7;41;0.65000000000000002;0.19;0.089999999999999997;0.070000000000000007;6;84;0;0;0.72999999999999998;0.27000000000000002;0.0;0.0;0;5.433623436802009;33;55;20;2;
2019_03_22 14:54;55;3;0;control;49;72;0;63;82;51;61;0.01;0.96999999999999997;0.01;0.01;92;12;0;0;0.89000000000000001;0.11;0.0;0.0;0;3.632317265603888;33;55;20;2;
2019_03_22 14:54;55;3;0;control;50;124;1;37;65;15;41;0.17999999999999999;0.45000000000000001;0.02;0.34999999999999998;40;7;98;30;0.070000000000000007;0.45000000000000001;0.45000000000000001;0.029999999999999898;0;4.122815885218188;33;55;20;2;
2019_03_22 14:54;55;3;0;control;51;4;1;40;43;0;0;0.58999999999999997;0.40999999999999998;0.0;0.0;2;33;88;81;0.69999999999999996;0.14000000000000001;0.13;0.029999999999999999;0;2.1114479045327244;33;55;20;2;
2019_03_22 14:54;55;3;0;control;52;110;1;47;44;23;52;0.13;0.27000000000000002;0.040000000000000001;0.56000000000000005;99;2;30;22;0.28999999999999998;0.5;0.11;0.10000000000000001;0;1.9313748569584277;33;55;20;2;
2019_03_22 14:54;55;3;0;control;53;101;1;30;96;61;45;0.65000000000000002;0.14000000000000001;0.11;0.10000000000000001;3;98;63;89;0.75;0.19;0.040000000000000001;0.02;0;2.0914618110255105;33;55;20;2;
2019_03_22 14:54;55;3;0;control;54;54;0;44;79;78;52;0.79000000000000004;0.19;0.01;0.0099999999999999603;96;1;0;0;0.28000000000000003;0.71999999999999997;0.0;0.0;0;2.3916797734937063;33;55;20;2;
2019_03_22 14:54;55;3;0;control;55;7;0;49;29;0;0;0.95999999999999996;0.040000000000000001;0.0;0.0;23;99;64;25;0.68999999999999995;0.12;0.059999999999999998;0.13;1;2.271592909228275;33;55;20;2;
2019_03_22 14:54;55;3;0;control;56;25;1;50;53;0;0;0.82999999999999996;0.17000000000000001;0.0;0.0;83;16;97;4;0.45000000000000001;0.29999999999999999;0.11;0.14000000000000001;0;2.1613422588052345;33;55;20;2;
2019_03_22 14:54;55;3;0;control;57;119;0;60;58;11;18;0.25;0.72999999999999998;0.01;0.01;96;23;42;85;0.44;0.48999999999999999;0.059999999999999998;0.010000000000000101;1;3.642304218645222;33;55;20;2;
2019_03_22 14:54;55;3;0;control;58;121;1;42;51;47;70;0.41999999999999998;0.17000000000000001;0.23999999999999999;0.17000000000000001;21;76;48;9;0.14999999999999999;0.34000000000000002;0.40999999999999998;0.10000000000000001;0;2.6819069342600415;33;55;20;2;
2019_03_22 14:54;55;3;0;control;59;91;0;74;81;86;48;0.93000000000000005;0.02;0.01;0.039999999999999897;7;64;0;0;0.13;0.87;0.0;0.0;0;3.7525676979366835;33;55;20;2;
2019_03_22 14:54;55;3;0;control;60;1;0;22;51;0;0;0.26000000000000001;0.73999999999999999;0.0;0.0;14;11;92;31;0.29999999999999999;0.40999999999999998;0.14999999999999999;0.14000000000000001;1;9.19602382064204;33;55;20;2;
2019_03_22 14:54;55;3;0;control;61;74;0;66;47;52;44;0.41999999999999998;0.26000000000000001;0.17999999999999999;0.14000000000000001;17;99;0;0;0.47999999999999998;0.52000000000000002;0.0;0.0;0;2.311423016529261;33;55;20;2;
2019_03_22 14:54;55;3;0;control;62;113;1;85;65;39;64;0.44;0.34000000000000002;0.13;0.089999999999999997;87;2;4;35;0.67000000000000004;0.17000000000000001;0.11;0.049999999999999899;0;3.8425545098598377;33;55;20;2;
2019_03_22 14:54;55;3;0;control;63;112;1;70;44;98;64;0.02;0.75;0.12;0.11;33;2;63;85;0.23999999999999999;0.31;0.080000000000000002;0.37;0;1.8411064513811652;33;55;20;2;
2019_03_22 14:54;55;3;0;control;64;53;0;26;70;50;80;0.29999999999999999;0.59999999999999998;0.040000000000000001;0.059999999999999998;89;1;0;0;0.40999999999999998;0.58999999999999997;0.0;0.0;0;3.8324293257664976;33;55;20;2;
2019_03_22 14:54;55;3;0;control;65;93;1;87;81;73;98;0.80000000000000004;0.040000000000000001;0.14999999999999999;0.0099999999999999499;5;71;0;0;0.51000000000000001;0.48999999999999999;0.0;0.0;0;2.6817058417536828;33;55;20;2;
2019_03_22 14:54;55;3;0;control;66;43;0;60;83;0;0;0.23000000000000001;0.77000000000000002;0.0;0.0;72;5;70;12;0.29999999999999999;0.40999999999999998;0.12;0.17000000000000001;0;6.274007943635297;33;55;20;2;
2019_03_22 14:54;55;3;0;control;67;44;1;79;74;0;0;0.71999999999999997;0.28000000000000003;0.0;0.0;3;67;15;36;0.41999999999999998;0.53000000000000003;0.02;0.029999999999999999;0;1.8712844390956889;33;55;20;2;
2019_03_22 14:54;55;3;0;control;68;146;1;25;5;64;35;0.94999999999999996;0.02;0.01;0.02;47;97;12;79;0.20999999999999999;0.029999999999999999;0.02;0.73999999999999999;1;6.764337863633955;33;55;20;2;
2019_03_22 14:54;55;3;0;control;69;57;1;52;35;23;47;0.22;0.68000000000000005;0.040000000000000001;0.059999999999999998;71;7;0;0;0.28999999999999998;0.70999999999999996;0.0;0.0;0;1.871155508973061;33;55;20;2;
2019_03_22 14:54;55;3;0;control;70;13;1;52;56;0;0;0.46999999999999997;0.53000000000000003;0.0;0.0;94;71;27;2;0.089999999999999997;0.31;0.57999999999999996;0.020000000000000101;0;5.203315107787603;33;55;20;2;
2019_03_22 14:54;55;3;0;control;71;90;1;27;44;50;72;0.68000000000000005;0.28999999999999998;0.02;0.0099999999999999707;6;96;0;0;0.46999999999999997;0.53000000000000003;0.0;0.0;0;2.351496872322059;33;55;20;2;
2019_03_22 14:54;55;3;0;control;72;42;0;70;48;0;0;0.79000000000000004;0.20999999999999999;0.0;0.0;51;8;12;67;0.19;0.26000000000000001;0.28999999999999998;0.26000000000000001;0;3.632432404694555;33;55;20;2;
2019_03_22 14:54;55;3;0;control;73;137;0;71;22;28;17;0.25;0.46000000000000002;0.050000000000000003;0.23999999999999999;3;98;92;69;0.42999999999999999;0.23999999999999999;0.20000000000000001;0.13;0;17.05113362292377;33;55;20;2;
2019_03_22 14:54;55;3;0;control;74;134;1;57;48;50;55;0.02;0.62;0.17999999999999999;0.17999999999999999;80;96;15;18;0.23999999999999999;0.35999999999999999;0.33000000000000002;0.070000000000000007;0;2.4217872024346434;33;55;20;2;
2019_03_22 14:54;55;3;0;control;75;127;1;89;26;62;79;0.02;0.28999999999999998;0.53000000000000003;0.16;96;6;60;13;0.53000000000000003;0.25;0.17000000000000001;0.050000000000000003;0;1.9613520728880758;33;55;20;2;
2019_03_22 14:54;55;4;0;timed;1;10;1;45;62;0;0;0.059999999999999998;0.93999999999999995;0.0;0.0;17;99;28;67;0.58999999999999997;0.34000000000000002;0.01;0.059999999999999998;1;4.67703902028461;33;55;20;2;
2019_03_22 14:54;55;4;0;timed;2;33;0;27;70;0;0;0.88;0.12;0.0;0.0;93;3;77;16;0.080000000000000002;0.40000000000000002;0.5;0.02;0;2.9920172368674685;33;55;20;2;
2019_03_22 14:54;55;4;0;timed;3;61;1;43;18;39;70;0.75;0.089999999999999997;0.089999999999999997;0.070000000000000007;16;66;0;0;0.64000000000000001;0.35999999999999999;0.0;0.0;0;3.472192787096901;33;55;20;2;
2019_03_22 14:54;55;4;0;timed;4;122;0;35;58;25;31;0.81999999999999995;0.070000000000000007;0.080000000000000002;0.029999999999999999;18;64;68;89;0.63;0.17000000000000001;0.11;0.089999999999999997;0;3.702500153945948;33;55;20;2;
2019_03_22 14:54;55;4;0;timed;5;149;1;14;89;73;53;0.93999999999999995;0.01;0.01;0.040000000000000001;97;45;6;13;0.34000000000000002;0.01;0.40999999999999998;0.23999999999999999;0;2.1213171527097074;33;55;20;2;
2019_03_22 14:54;55;4;0;timed;6;133;1;59;88;60;36;0.67000000000000004;0.070000000000000007;0.12;0.14000000000000001;7;91;66;61;0.25;0.68999999999999995;0.01;0.0500000000000001;0;1.721075392691091;33;55;20;2;
2019_03_22 14:54;55;4;0;timed;7;53;0;26;70;50;80;0.29999999999999999;0.59999999999999998;0.040000000000000001;0.059999999999999998;89;1;0;0;0.40999999999999998;0.58999999999999997;0.0;0.0;0;1.8312657474352818;33;55;20;2;
2019_03_22 14:54;55;4;0;timed;8;124;1;37;65;15;41;0.17999999999999999;0.45000000000000001;0.02;0.34999999999999998;40;7;98;30;0.070000000000000007;0.45000000000000001;0.45000000000000001;0.029999999999999898;0;2.691686059638414;33;55;20;2;
2019_03_22 14:54;55;4;0;timed;9;18;1;68;50;0;0;0.029999999999999999;0.96999999999999997;0.0;0.0;34;64;15;89;0.65000000000000002;0.029999999999999999;0.050000000000000003;0.27000000000000002;0;4.062585311972725;33;55;20;2;
2019_03_22 14:54;55;4;0;timed;10;117;0;65;85;92;41;0.23000000000000001;0.17999999999999999;0.54000000000000004;0.050000000000000003;99;93;10;13;0.64000000000000001;0.16;0.01;0.19;0;4.092745980716245;33;55;20;2;
2019_03_22 14:54;55;4;0;timed;11;115;0;50;28;61;79;0.83999999999999997;0.040000000000000001;0.059999999999999998;0.059999999999999998;1;26;97;55;0.45000000000000001;0.080000000000000002;0.40999999999999998;0.060000000000000102;0;2.161470226763413;33;55;20;2;
2019_03_22 14:54;55;4;0;timed;12;27;1;44;26;0;0;0.35999999999999999;0.64000000000000001;0.0;0.0;63;10;3;5;0.58999999999999997;0.19;0.14999999999999999;0.070000000000000007;0;3.74241557321875;33;55;20;2;
2019_03_22 14:54;55;4;0;timed;13;127;1;89;26;62;79;0.02;0.28999999999999998;0.53000000000000003;0.16;96;6;60;13;0.53000000000000003;0.25;0.17000000000000001;0.050000000000000003;0;2.0212603208246946;33;55;20;2;
2019_03_22 14:54;55;4;0;timed;14;1;0;22;51;0;0;0.26000000000000001;0.73999999999999999;0.0;0.0;14;11;92;31;0.29999999999999999;0.40999999999999998;0.14999999999999999;0.14000000000000001;0;3.9427960774446547;33;55;20;2;
2019_03_22 14:54;55;4;0;timed;15;98;1;27;10;31;79;0.23000000000000001;0.67000000000000004;0.070000000000000007;0.029999999999999999;25;99;0;0;0.38;0.62;0.0;0.0;1;5.833741718965939;33;55;20;2;
2019_03_22 14:54;55;4;0;timed;16;143;1;88;44;56;73;0.95999999999999996;0.02;0.01;0.01;20;3;87;32;0.19;0.40000000000000002;0.28000000000000003;0.13;0;2.281430726678991;33;55;20;2;
2019_03_22 14:54;55;4;0;timed;17;113;0;85;65;39;64;0.44;0.34000000000000002;0.13;0.089999999999999997;87;2;4;35;0.67000000000000004;0.17000000000000001;0.11;0.049999999999999899;0;1.490912992050653;33;55;20;2;
2019_03_22 14:54;55;4;0;timed;18;55;0;74;55;47;48;0.60999999999999999;0.31;0.070000000000000007;0.01;97;6;0;0;0.42999999999999999;0.56999999999999995;0.0;0.0;0;1.4710561493893692;33;55;20;2;
2019_03_22 14:54;55;4;0;timed;19;134;1;57;48;50;55;0.02;0.62;0.17999999999999999;0.17999999999999999;80;96;15;18;0.23999999999999999;0.35999999999999999;0.33000000000000002;0.070000000000000007;0;1.961391521657788;33;55;20;2;
2019_03_22 14:54;55;4;0;timed;20;50;0;15;20;0;0;0.82999999999999996;0.17000000000000001;0.0;0.0;97;18;88;87;0.56999999999999995;0.39000000000000001;0.01;0.029999999999999999;1;2.911831359398093;33;55;20;2;
2019_03_22 14:54;55;4;0;timed;21;79;1;52;46;29;22;0.17999999999999999;0.51000000000000001;0.23999999999999999;0.070000000000000104;93;14;0;0;0.45000000000000001;0.55000000000000004;0.0;0.0;0;4.032538820154514;33;55;20;2;
2019_03_22 14:54;55;4;0;timed;22;109;0;75;28;16;56;0.19;0.070000000000000007;0.059999999999999998;0.68000000000000005;3;50;98;44;0.5;0.02;0.34999999999999998;0.13;0;3.9726174226289004;33;55;20;2;
2019_03_22 14:54;55;4;0;timed;23;45;1;97;87;0;0;0.71999999999999997;0.28000000000000003;0.0;0.0;96;11;14;4;0.25;0.029999999999999999;0.14000000000000001;0.57999999999999996;0;1.951209249101339;33;55;20;2;
2019_03_22 14:54;55;4;0;timed;24;125;1;37;41;10;35;0.91000000000000003;0.040000000000000001;0.029999999999999999;0.02;7;13;91;93;0.26000000000000001;0.39000000000000001;0.16;0.19;1;7.364751979494031;33;55;20;2;
2019_03_22 14:54;55;4;0;timed;25;74;0;66;47;52;44;0.41999999999999998;0.26000000000000001;0.17999999999999999;0.14000000000000001;17;99;0;0;0.47999999999999998;0.52000000000000002;0.0;0.0;0;2.1813578587079974;33;55;20;2;
2019_03_22 14:54;55;4;0;timed;26;128;0;70;49;27;54;0.27000000000000002;0.53000000000000003;0.02;0.17999999999999999;72;97;6;20;0.29999999999999999;0.39000000000000001;0.22;0.0899999999999999;0;3.852570327855574;33;55;20;2;
2019_03_22 14:54;55;4;0;timed;27;69;0;54;34;64;49;0.34000000000000002;0.25;0.20999999999999999;0.20000000000000001;14;98;0;0;0.62;0.38;0.0;0.0;0;2.3916242886389227;33;55;20;2;
2019_03_22 14:54;55;4;0;timed;28;40;1;45;49;0;0;0.68999999999999995;0.31;0.0;0.0;2;92;65;73;0.23999999999999999;0.59999999999999998;0.11;0.050000000000000003;0;4.4729907426899445;33;55;20;2;
2019_03_22 14:54;55;4;0;timed;29;96;0;51;54;39;7;0.17000000000000001;0.26000000000000001;0.10000000000000001;0.46999999999999997;24;96;0;0;0.28000000000000003;0.71999999999999997;0.0;0.0;1;3.7824214360116457;33;55;20;2;
2019_03_22 14:54;55;4;0;timed;30;147;0;39;43;76;28;0.14000000000000001;0.10000000000000001;0.10000000000000001;0.66000000000000003;6;31;68;85;0.27000000000000002;0.20000000000000001;0.22;0.31;0;2.801907524386479;33;55;20;2;
2019_03_22 14:54;55;4;0;timed;31;89;1;26;41;13;56;0.059999999999999998;0.40999999999999998;0.050000000000000003;0.47999999999999998;5;97;0;0;0.37;0.63;0.0;0.0;0;2.801751653640167;33;55;20;2;
2019_03_22 14:54;55;4;0;timed;32;116;1;53;65;43;99;0.56999999999999995;0.37;0.050000000000000003;0.010000000000000101;57;72;11;87;0.67000000000000004;0.13;0.14999999999999999;0.050000000000000003;0;2.0414205662145832;33;55;20;2;
2019_03_22 14:54;55;4;0;timed;33;73;0;65;68;70;47;0.25;0.23000000000000001;0.20999999999999999;0.31;27;95;0;0;0.45000000000000001;0.55000000000000004;0.0;0.0;0;4.5130289983735565;33;55;20;2;
2019_03_22 14:54;55;4;0;timed;34;85;1;31;22;82;50;0.11;0.69999999999999996;0.01;0.17999999999999999;3;99;0;0;0.62;0.38;0.0;0.0;0;3.7525048364841496;33;55;20;2;
2019_03_22 14:54;55;4;0;timed;35;102;1;40;56;53;17;0.28000000000000003;0.26000000000000001;0.14999999999999999;0.31;1;76;29;62;0.68000000000000005;0.23000000000000001;0.050000000000000003;0.039999999999999897;0;2.0513113027463987;33;55;20;2;
2019_03_22 14:54;55;4;0;timed;36;75;1;67;80;36;81;0.81999999999999995;0.080000000000000002;0.059999999999999998;0.040000000000000001;3;97;0;0;0.32000000000000001;0.68000000000000005;0.0;0.0;0;5.753702411313498;33;55;20;2;
2019_03_22 14:54;55;4;0;timed;37;94;0;84;86;93;39;0.78000000000000003;0.20000000000000001;0.01;0.0099999999999999603;9;83;0;0;0.46999999999999997;0.53000000000000003;0.0;0.0;0;2.1113109563666512;33;55;20;2;
2019_03_22 14:54;55;4;0;timed;38;62;1;12;45;16;50;0.20999999999999999;0.76000000000000001;0.02;0.01;92;15;0;0;0.20999999999999999;0.79000000000000004;0.0;0.0;0;1.9514196425352566;33;55;20;2;
2019_03_22 14:54;55;4;0;timed;39;20;0;44;40;0;0;0.91000000000000003;0.089999999999999997;0.0;0.0;29;5;80;99;0.25;0.40000000000000002;0.26000000000000001;0.089999999999999997;0;2.901995145555702;33;55;20;2;
2019_03_22 14:54;55;4;0;timed;40;130;1;37;79;23;95;0.94999999999999996;0.029999999999999999;0.01;0.01;94;4;58;49;0.46000000000000002;0.5;0.029999999999999999;0.01;0;9.175878007728898;33;55;20;2;
2019_03_22 14:54;55;4;0;timed;41;77;0;24;17;99;41;0.17999999999999999;0.13;0.10000000000000001;0.58999999999999997;12;97;0;0;0.59999999999999998;0.40000000000000002;0.0;0.0;0;6.784322353532843;33;55;20;2;
2019_03_22 14:54;55;4;0;timed;42;150;1;25;21;78;38;0.84999999999999998;0.059999999999999998;0.050000000000000003;0.040000000000000001;31;43;64;95;0.059999999999999998;0.45000000000000001;0.13;0.35999999999999999;1;4.963160301838798;33;55;20;2;
2019_03_22 14:54;55;4;0;timed;43;82;0;78;66;30;27;0.28999999999999998;0.58999999999999997;0.080000000000000002;0.040000000000000001;90;6;0;0;0.82999999999999996;0.17000000000000001;0.0;0.0;0;4.0726239012074075;33;55;20;2;
2019_03_22 14:54;55;4;0;timed;44;43;1;60;83;0;0;0.23000000000000001;0.77000000000000002;0.0;0.0;72;5;70;12;0.29999999999999999;0.40999999999999998;0.12;0.17000000000000001;0;1.8811876837735326;33;55;20;2;
2019_03_22 14:54;55;4;0;timed;45;64;1;48;39;34;19;0.46000000000000002;0.5;0.02;0.02;13;92;0;0;0.68999999999999995;0.31;0.0;0.0;0;2.271443452915264;33;55;20;2;
2019_03_22 14:54;55;4;0;timed;46;12;1;53;68;0;0;0.31;0.68999999999999995;0.0;0.0;69;54;97;29;0.25;0.20999999999999999;0.20000000000000001;0.34000000000000002;0;3.2324812185361225;33;55;20;2;
2019_03_22 14:54;55;4;0;timed;47;103;0;38;49;89;50;0.89000000000000001;0.070000000000000007;0.01;0.029999999999999999;6;64;99;27;0.70999999999999996;0.17999999999999999;0.059999999999999998;0.050000000000000003;0;3.24218048421244;33;55;20;2;
2019_03_22 14:54;55;4;0;timed;48;92;1;90;86;65;94;0.16;0.34000000000000002;0.28000000000000003;0.22;79;22;0;0;0.35999999999999999;0.64000000000000001;0.0;0.0;0;1.9113518804570049;33;55;20;2;
2019_03_22 14:54;55;4;0;timed;49;8;0;50;36;0;0;0.080000000000000002;0.92000000000000004;0.0;0.0;6;19;84;29;0.54000000000000004;0.070000000000000007;0.17000000000000001;0.22;1;4.603055900510299;33;55;20;2;
2019_03_22 14:54;55;4;0;timed;50;21;0;64;28;0;0;0.080000000000000002;0.92000000000000004;0.0;0.0;50;1;88;13;0.57999999999999996;0.13;0.02;0.27000000000000002;0;3.4323129679323756;33;55;20;2;
2019_03_22 14:54;55;4;0;timed;51;39;1;14;33;0;0;0.78000000000000003;0.22;0.0;0.0;93;84;1;25;0.14000000000000001;0.23999999999999999;0.39000000000000001;0.23000000000000001;1;2.5517696140577755;33;55;20;2;
2019_03_22 14:54;55;4;0;timed;52;131;0;83;41;81;88;0.23999999999999999;0.58999999999999997;0.10000000000000001;0.070000000000000007;82;97;4;17;0.26000000000000001;0.46999999999999997;0.11;0.16;0;2.201516821212863;33;55;20;2;
2019_03_22 14:54;55;4;0;timed;53;29;1;44;51;0;0;0.78000000000000003;0.22;0.0;0.0;74;1;68;82;0.69999999999999996;0.28000000000000003;0.01;0.01;0;5.523682411108894;33;55;20;2;
2019_03_22 14:54;55;4;0;timed;54;41;0;99;40;0;0;0.89000000000000001;0.11;0.0;0.0;1;67;52;46;0.51000000000000001;0.38;0.029999999999999999;0.080000000000000002;0;2.551632665890793;33;55;20;2;
2019_03_22 14:54;55;4;0;timed;55;16;0;64;53;0;0;0.65000000000000002;0.34999999999999998;0.0;0.0;29;17;81;46;0.10000000000000001;0.01;0.44;0.45000000000000001;0;1.441007091798383;33;55;20;2;
2019_03_22 14:54;55;4;0;timed;56;100;1;27;14;59;52;0.02;0.95999999999999996;0.01;0.01;17;98;0;0;0.48999999999999999;0.51000000000000001;0.0;0.0;0;6.984408755959521;33;55;20;2;
2019_03_22 14:54;55;4;0;timed;57;72;0;63;82;51;61;0.01;0.96999999999999997;0.01;0.01;92;12;0;0;0.89000000000000001;0.11;0.0;0.0;0;2.7519791736158368;33;55;20;2;
2019_03_22 14:54;55;4;0;timed;58;129;1;12;29;81;36;0.17999999999999999;0.79000000000000004;0.01;0.02;5;19;95;92;0.47999999999999998;0.26000000000000001;0.13;0.13;0;3.942543669467341;33;55;20;2;
2019_03_22 14:54;55;4;0;timed;59;19;1;22;53;0;0;0.13;0.87;0.0;0.0;4;93;96;65;0.46999999999999997;0.059999999999999998;0.26000000000000001;0.20999999999999999;0;6.514186162270562;33;55;20;2;
2019_03_22 14:54;55;4;0;timed;60;9;1;61;69;0;0;0.93999999999999995;0.060000000000000102;0.0;0.0;18;93;72;16;0.40999999999999998;0.34999999999999998;0.089999999999999997;0.14999999999999999;0;4.993198134168779;33;55;20;2;
2019_03_22 14:54;55;4;0;timed;61;54;0;44;79;78;52;0.79000000000000004;0.19;0.01;0.0099999999999999603;96;1;0;0;0.28000000000000003;0.71999999999999997;0.0;0.0;0;2.71180589409596;33;55;20;2;
2019_03_22 14:54;55;4;0;timed;62;111;0;51;36;48;27;0.93000000000000005;0.01;0.01;0.049999999999999899;31;78;30;53;0.55000000000000004;0.16;0.029999999999999999;0.26000000000000001;1;2.2515596696321154;33;55;20;2;
2019_03_22 14:54;55;4;0;timed;63;60;1;64;59;57;96;0.83999999999999997;0.13;0.02;0.01;83;6;0;0;0.54000000000000004;0.46000000000000002;0.0;0.0;0;2.5816390674954164;33;55;20;2;
2019_03_22 14:54;55;4;0;timed;64;38;1;40;70;0;0;0.53000000000000003;0.46999999999999997;0.0;0.0;97;90;6;96;0.56999999999999995;0.070000000000000007;0.27000000000000002;0.089999999999999997;0;2.1913666208238283;33;55;20;2;
2019_03_22 14:54;55;4;0;timed;65;97;0;17;33;32;74;0.94999999999999996;0.01;0.029999999999999999;0.01;76;23;0;0;0.33000000000000002;0.67000000000000004;0.0;0.0;0;3.032060624098449;33;55;20;2;
2019_03_22 14:54;55;4;0;timed;66;119;1;60;58;11;18;0.25;0.72999999999999998;0.01;0.01;96;23;42;85;0.44;0.48999999999999999;0.059999999999999998;0.010000000000000101;1;9.406215843138853;33;55;20;2;
2019_03_22 14:54;55;4;0;timed;67;123;1;26;24;51;92;0.72999999999999998;0.16;0.070000000000000007;0.040000000000000001;6;90;82;49;0.64000000000000001;0.25;0.050000000000000003;0.059999999999999998;0;8.905850541121254;33;55;20;2;
2019_03_22 14:54;55;4;0;timed;68;80;0;47;39;45;10;0.13;0.76000000000000001;0.059999999999999998;0.050000000000000003;2;87;0;0;0.48999999999999999;0.51000000000000001;0.0;0.0;0;5.943795766985204;33;55;20;2;
2019_03_22 14:54;55;4;0;timed;69;112;1;70;44;98;64;0.02;0.75;0.12;0.11;33;2;63;85;0.23999999999999999;0.31;0.080000000000000002;0.37;0;1.9613639395920472;33;55;20;2;
2019_03_22 14:54;55;4;0;timed;70;107;0;52;48;13;63;0.68000000000000005;0.19;0.050000000000000003;0.079999999999999905;54;91;33;3;0.19;0.17999999999999999;0.33000000000000002;0.29999999999999999;0;3.08201014250335;33;55;20;2;
2019_03_22 14:54;55;4;0;timed;71;138;0;8;20;43;51;0.38;0.5;0.02;0.10000000000000001;72;82;70;1;0.39000000000000001;0.050000000000000003;0.070000000000000007;0.48999999999999999;0;3.902479756045068;33;55;20;2;
2019_03_22 14:54;55;4;0;timed;72;47;0;2;40;0;0;0.45000000000000001;0.55000000000000004;0.0;0.0;93;89;11;56;0.58999999999999997;0.070000000000000007;0.28000000000000003;0.059999999999999998;1;3.071931142332687;33;55;20;2;
2019_03_22 14:54;55;4;0;timed;73;30;0;33;30;0;0;0.71999999999999997;0.28000000000000003;0.0;0.0;9;88;1;14;0.55000000000000004;0.39000000000000001;0.01;0.049999999999999899;0;2.7418905517952226;33;55;20;2;
2019_03_22 14:54;55;4;0;timed;74;13;0;52;56;0;0;0.46999999999999997;0.53000000000000003;0.0;0.0;94;71;27;2;0.089999999999999997;0.31;0.57999999999999996;0.020000000000000101;0;1.2308910803440085;33;55;20;2;
2019_03_22 14:54;55;4;0;timed;75;67;0;44;42;8;89;0.88;0.070000000000000007;0.029999999999999999;0.02;10;63;0;0;0.39000000000000001;0.60999999999999999;0.0;0.0;0;2.391499207176821;33;55;20;2;
