date;id;block;order;cond;trial;gameid;leftright;oa1;oa2;oa3;oa4;pa1;pa2;pa3;pa4;ob1;ob2;ob3;ob4;pb1;pb2;pb3;pb4;choice;rt;paytrial;payout;alter;geschlecht;comment
2019_02_22 10:00;5;0;0;practice;1;26;1;24;46;74;59;0.29999999999999999;0.11;0.25;0.34000000000000002;91;6;0;0;0.28999999999999998;0.70999999999999996;0.0;0.0;0;8.786029178524586;28;71;22;2; nein
2019_02_22 10:00;5;0;0;practice;2;57;0;39;68;59;91;0.73999999999999999;0.040000000000000001;0.14999999999999999;0.070000000000000007;9;22;40;84;0.29999999999999999;0.32000000000000001;0.040000000000000001;0.34000000000000002;0;6.233302147223185;28;71;22;2; nein
2019_02_22 10:00;5;0;0;practice;3;14;1;92;56;0;0;0.11;0.89000000000000001;0.0;0.0;97;31;51;4;0.58999999999999997;0.22;0.080000000000000002;0.11;0;8.349879612206678;28;71;22;2; nein
2019_02_22 10:00;5;0;0;practice;4;52;0;17;61;57;59;0.070000000000000007;0.050000000000000003;0.33000000000000002;0.55000000000000004;12;93;94;62;0.71999999999999997;0.16;0.080000000000000002;0.040000000000000001;0;11.699984380216847;28;71;22;2; nein
2019_02_22 10:00;5;0;0;practice;5;20;1;32;11;0;0;0.40999999999999998;0.58999999999999997;0.0;0.0;1;86;42;65;0.45000000000000001;0.38;0.050000000000000003;0.12;0;8.233293487384799;28;71;22;2; nein
2019_02_22 10:00;5;0;0;practice;6;67;1;74;31;10;77;0.11;0.070000000000000007;0.77000000000000002;0.050000000000000003;2;23;8;97;0.56999999999999995;0.01;0.059999999999999998;0.35999999999999999;0;5.666769408703658;28;71;22;2; nein
2019_02_22 10:00;5;0;0;practice;7;53;1;47;24;95;38;0.57999999999999996;0.28000000000000003;0.02;0.12;8;22;93;96;0.54000000000000004;0.34000000000000002;0.10000000000000001;0.0199999999999999;0;2.766689834407771;28;71;22;2; nein
2019_02_22 10:00;5;0;0;practice;8;68;1;39;58;40;8;0.48999999999999999;0.44;0.02;0.050000000000000003;92;83;51;2;0.57999999999999996;0.13;0.02;0.27000000000000002;0;10.466645348496058;28;71;22;2; nein
2019_02_22 10:00;5;0;0;practice;9;41;0;19;54;51;8;0.76000000000000001;0.070000000000000007;0.16;0.0099999999999999794;2;77;0;0;0.54000000000000004;0.46000000000000002;0.0;0.0;0;7.70007514815552;28;71;22;2; nein
2019_02_22 10:00;5;0;0;practice;10;24;0;19;38;0;0;0.89000000000000001;0.11;0.0;0.0;45;76;95;57;0.29999999999999999;0.22;0.40000000000000002;0.080000000000000002;1;3.666606475442677;28;71;22;2; nein
2019_02_22 10:00;5;0;0;practice;11;48;1;20;25;24;35;0.32000000000000001;0.13;0.48999999999999999;0.059999999999999901;44;76;0;0;0.29999999999999999;0.69999999999999996;0.0;0.0;1;3.5834293666675876;28;71;22;2; nein
2019_02_22 10:00;5;0;0;practice;12;55;1;53;11;80;74;0.31;0.37;0.28000000000000003;0.039999999999999897;6;93;98;96;0.69999999999999996;0.22;0.050000000000000003;0.029999999999999999;0;8.149963388126707;28;71;22;2; nein
2019_02_22 10:00;5;0;0;practice;13;75;0;21;86;27;62;0.88;0.040000000000000001;0.070000000000000007;0.0099999999999999794;13;3;49;87;0.28999999999999998;0.39000000000000001;0.070000000000000007;0.25;0;10.03330894679948;28;71;22;2; nein
2019_02_22 10:00;5;0;0;practice;14;60;0;39;93;27;78;0.85999999999999999;0.02;0.11;0.01;22;5;62;95;0.059999999999999998;0.56999999999999995;0.14000000000000001;0.23000000000000001;0;4.50010728577945;28;71;22;2; nein
2019_02_22 10:00;5;0;0;practice;15;54;0;69;80;22;55;0.27000000000000002;0.31;0.059999999999999998;0.35999999999999999;52;2;49;90;0.059999999999999998;0.33000000000000002;0.20000000000000001;0.40999999999999998;0;8.783311272127321;28;71;22;2; nein
2019_02_22 10:00;5;0;0;practice;16;30;1;54;78;85;25;0.20999999999999999;0.60999999999999999;0.089999999999999997;0.090000000000000094;87;20;0;0;0.58999999999999997;0.40999999999999998;0.0;0.0;0;10.29993479462155;28;71;22;2; nein
2019_02_22 10:00;5;0;0;practice;17;15;1;24;59;0;0;0.56999999999999995;0.42999999999999999;0.0;0.0;9;8;80;22;0.31;0.10000000000000001;0.55000000000000004;0.039999999999999897;0;7.733301666121406;28;71;22;2; nein
2019_02_22 10:00;5;0;0;practice;18;69;1;38;74;27;73;0.22;0.19;0.45000000000000001;0.14000000000000001;1;97;79;84;0.28000000000000003;0.45000000000000001;0.17000000000000001;0.10000000000000001;0;4.266541815313758;28;71;22;2; nein
2019_02_22 10:00;5;0;0;practice;19;74;0;36;46;10;12;0.11;0.19;0.65000000000000002;0.049999999999999899;92;24;79;19;0.51000000000000001;0.40999999999999998;0.02;0.059999999999999998;1;5.099958272407093;28;71;22;2; nein
2019_02_22 10:00;5;0;0;practice;20;44;1;69;48;22;63;0.39000000000000001;0.40999999999999998;0.19;0.01;1;94;0;0;0.22;0.78000000000000003;0.0;0.0;0;3.3166428307276874;28;71;22;2; nein
2019_02_22 10:00;5;0;0;practice;21;36;1;56;89;86;77;0.66000000000000003;0.080000000000000002;0.14999999999999999;0.11;29;91;0;0;0.40999999999999998;0.58999999999999997;0.0;0.0;1;5.450107301815478;28;71;22;2; nein
2019_02_22 10:00;5;0;0;practice;22;50;0;17;12;21;14;0.55000000000000004;0.34000000000000002;0.059999999999999998;0.049999999999999899;13;93;0;0;0.28999999999999998;0.70999999999999996;0.0;0.0;1;7.533324823170915;28;71;22;2; nein
2019_02_22 10:00;5;0;0;practice;23;56;0;47;52;64;10;0.77000000000000002;0.040000000000000001;0.11;0.080000000000000002;1;5;12;99;0.14000000000000001;0.28999999999999998;0.27000000000000002;0.29999999999999999;0;4.133334252773238;28;71;22;2; nein
2019_02_22 10:00;5;0;0;practice;24;32;1;21;86;16;78;0.45000000000000001;0.41999999999999998;0.050000000000000003;0.080000000000000099;95;9;0;0;0.42999999999999999;0.56999999999999995;0.0;0.0;0;5.416622592364547;28;71;22;2; nein
2019_02_22 10:00;5;0;0;practice;25;62;1;65;52;74;55;0.16;0.12;0.14999999999999999;0.56999999999999995;72;86;2;68;0.12;0.53000000000000003;0.22;0.13;0;11.58329112998399;28;71;22;2; nein
2019_02_22 10:00;5;0;0;practice;26;4;1;40;59;0;0;0.19;0.81000000000000005;0.0;0.0;10;88;13;45;0.56000000000000005;0.28999999999999998;0.01;0.14000000000000001;0;6.2166082234471105;28;71;22;2; nein
2019_02_22 10:00;5;0;0;practice;27;23;1;99;93;0;0;0.57999999999999996;0.41999999999999998;0.0;0.0;64;10;80;81;0.13;0.55000000000000004;0.02;0.29999999999999999;0;11.033460654343799;28;71;22;2; nein
2019_02_22 10:00;5;0;0;practice;28;27;1;68;43;98;36;0.54000000000000004;0.44;0.01;0.0099999999999999603;97;13;0;0;0.27000000000000002;0.72999999999999998;0.0;0.0;0;2.916642959021374;28;71;22;2; nein
2019_02_22 10:00;5;0;0;practice;29;7;0;13;31;0;0;0.51000000000000001;0.48999999999999999;0.0;0.0;8;79;42;18;0.85999999999999999;0.089999999999999997;0.02;0.029999999999999999;0;4.716636929209017;28;71;22;2; nein
2019_02_22 10:00;5;0;0;practice;30;12;0;45;86;0;0;0.97999999999999998;0.02;0.0;0.0;6;23;95;81;0.14999999999999999;0.40999999999999998;0.050000000000000003;0.39000000000000001;0;6.2832719821180945;28;71;22;2; nein
2019_02_22 10:00;5;0;0;practice;31;59;1;13;27;48;51;0.56999999999999995;0.13;0.13;0.17000000000000001;8;37;97;1;0.65000000000000002;0.16;0.14999999999999999;0.040000000000000001;0;2.833317350051402;28;71;22;2; nein
2019_02_22 10:00;5;0;0;practice;32;70;1;21;42;14;63;0.96999999999999997;0.01;0.01;0.01;70;2;6;76;0.23999999999999999;0.42999999999999999;0.01;0.32000000000000001;0;4.53344574017683;28;71;22;2; nein
2019_02_22 10:00;5;0;0;practice;33;8;1;20;44;0;0;0.26000000000000001;0.73999999999999999;0.0;0.0;99;3;69;24;0.20999999999999999;0.60999999999999999;0.12;0.060000000000000102;0;4.783428661051403;28;71;22;2; nein
2019_02_22 10:00;5;0;0;practice;34;35;0;84;95;4;35;0.89000000000000001;0.050000000000000003;0.01;0.050000000000000003;5;98;0;0;0.19;0.81000000000000005;0.0;0.0;0;11.266634828395581;28;71;22;2; nein
2019_02_22 10:00;5;0;0;practice;35;33;0;54;82;55;71;0.56000000000000005;0.20999999999999999;0.02;0.20999999999999999;13;99;0;0;0.5;0.5;0.0;0.0;0;3.700115560735867;28;71;22;2; nein
2019_02_22 10:00;5;0;0;practice;36;29;0;66;40;92;49;0.46999999999999997;0.10000000000000001;0.34000000000000002;0.089999999999999997;8;94;0;0;0.44;0.56000000000000005;0.0;0.0;0;2.0667452253010197;28;71;22;2; nein
2019_02_22 10:00;5;0;0;practice;37;58;0;44;50;85;42;0.38;0.57999999999999996;0.02;0.02;37;88;19;12;0.20000000000000001;0.29999999999999999;0.46000000000000002;0.040000000000000001;1;10.86665227636604;28;71;22;2; nein
2019_02_22 10:00;5;0;0;practice;38;66;1;44;18;63;36;0.47999999999999998;0.10000000000000001;0.029999999999999999;0.39000000000000001;13;93;61;53;0.52000000000000002;0.45000000000000001;0.02;0.0099999999999999707;0;7.300115689029553;28;71;22;2; nein
2019_02_22 10:00;5;0;0;practice;39;71;0;94;87;26;75;0.71999999999999997;0.23999999999999999;0.02;0.02;90;27;12;83;0.16;0.73999999999999999;0.02;0.080000000000000002;0;6.966652885762414;28;71;22;2; nein
2019_02_22 10:00;5;0;0;practice;40;42;0;23;45;91;22;0.72999999999999998;0.02;0.20000000000000001;0.050000000000000003;2;86;0;0;0.40999999999999998;0.58999999999999997;0.0;0.0;0;3.1833034461988063;28;71;22;2; nein
2019_02_22 10:00;5;0;0;practice;41;10;1;34;59;0;0;0.16;0.83999999999999997;0.0;0.0;21;61;96;7;0.19;0.01;0.5;0.29999999999999999;1;4.516629295721032;28;71;22;2; nein
2019_02_22 10:00;5;0;0;practice;42;65;0;35;15;77;1;0.62;0.33000000000000002;0.029999999999999999;0.02;68;3;25;96;0.38;0.28000000000000003;0.28000000000000003;0.059999999999999901;0;8.266651827338137;28;71;22;2; nein
2019_02_22 10:00;5;0;0;practice;43;47;0;91;99;90;78;0.93000000000000005;0.040000000000000001;0.02;0.0099999999999999499;10;87;0;0;0.23000000000000001;0.77000000000000002;0.0;0.0;0;3.9999833217916603;28;71;22;2; nein
2019_02_22 10:00;5;0;0;practice;44;11;0;10;44;0;0;0.48999999999999999;0.51000000000000001;0.0;0.0;88;12;54;50;0.17000000000000001;0.75;0.02;0.059999999999999998;1;5.549944657215747;28;71;22;2; nein
2019_02_22 10:00;5;0;0;practice;45;16;0;50;42;0;0;0.32000000000000001;0.68000000000000005;0.0;0.0;97;2;56;31;0.35999999999999999;0.16;0.16;0.32000000000000001;0;10.316790047984796;28;71;22;2; nein
2019_02_22 10:00;5;0;0;practice;46;9;1;57;44;0;0;0.14999999999999999;0.84999999999999998;0.0;0.0;38;35;64;95;0.34000000000000002;0.45000000000000001;0.089999999999999997;0.12;1;2.549974485549683;28;71;22;2; nein
2019_02_22 10:00;5;0;0;practice;47;63;1;24;82;6;96;0.91000000000000003;0.070000000000000007;0.01;0.0099999999999999603;73;10;71;22;0.31;0.51000000000000001;0.050000000000000003;0.13;0;5.866633353015459;28;71;22;2; nein
2019_02_22 10:00;5;0;0;practice;48;43;0;11;17;21;44;0.16;0.46000000000000002;0.25;0.13;2;66;0;0;0.44;0.56000000000000005;0.0;0.0;0;5.866614750400004;28;71;22;2; nein
2019_02_22 10:00;5;0;0;practice;49;51;0;38;13;51;84;0.91000000000000003;0.070000000000000007;0.01;0.0099999999999999603;4;89;35;16;0.80000000000000004;0.089999999999999997;0.059999999999999998;0.050000000000000003;0;4.983347771742956;28;71;22;2; nein
2019_02_22 10:00;5;0;0;practice;50;45;1;37;40;75;23;0.54000000000000004;0.38;0.059999999999999998;0.02;1;90;0;0;0.28000000000000003;0.71999999999999997;0.0;0.0;0;2.9834667643408466;28;71;22;2; nein
2019_02_22 10:00;5;0;0;practice;51;38;0;51;89;10;60;0.57999999999999996;0.029999999999999999;0.080000000000000002;0.31;8;84;0;0;0.33000000000000002;0.67000000000000004;0.0;0.0;0;3.43330753556711;28;71;22;2; nein
2019_02_22 10:00;5;0;0;practice;52;61;0;51;48;56;88;0.91000000000000003;0.02;0.01;0.059999999999999998;78;21;14;82;0.55000000000000004;0.29999999999999999;0.070000000000000007;0.080000000000000002;0;4.499974501586621;28;71;22;2; nein
2019_02_22 10:00;5;0;0;practice;53;49;1;14;31;42;22;0.77000000000000002;0.089999999999999997;0.02;0.12;87;28;0;0;0.68000000000000005;0.32000000000000001;0.0;0.0;1;4.633342431508936;28;71;22;2; nein
2019_02_22 10:00;5;0;0;practice;54;3;0;20;70;0;0;0.13;0.87;0.0;0.0;95;19;80;73;0.31;0.57999999999999996;0.029999999999999999;0.080000000000000002;0;5.366657247755938;28;71;22;2; nein
2019_02_22 10:00;5;0;0;practice;55;46;0;79;57;98;81;0.67000000000000004;0.070000000000000007;0.20999999999999999;0.050000000000000003;1;76;0;0;0.56000000000000005;0.44;0.0;0.0;0;2.3167894065163637;28;71;22;2; nein
2019_02_22 10:00;5;0;0;practice;56;22;0;84;87;0;0;0.17000000000000001;0.82999999999999996;0.0;0.0;3;24;41;83;0.68000000000000005;0.11;0.10000000000000001;0.11;0;3.433315553936154;28;71;22;2; nein
2019_02_22 10:00;5;0;0;practice;57;28;1;37;83;75;8;0.83999999999999997;0.070000000000000007;0.01;0.080000000000000002;94;2;0;0;0.19;0.81000000000000005;0.0;0.0;0;4.9169008297731125;28;71;22;2; nein
2019_02_22 10:00;5;0;0;practice;58;1;0;67;36;0;0;0.14999999999999999;0.84999999999999998;0.0;0.0;1;4;81;77;0.25;0.54000000000000004;0.14000000000000001;0.070000000000000007;0;2.0500827335326903;28;71;22;2; nein
2019_02_22 10:00;5;0;0;practice;59;18;1;47;36;0;0;0.089999999999999997;0.91000000000000003;0.0;0.0;2;44;81;9;0.20000000000000001;0.25;0.51000000000000001;0.040000000000000001;0;1.8665990343961312;28;71;22;2; nein
2019_02_22 10:00;5;0;0;practice;60;73;0;99;88;95;28;0.83999999999999997;0.14000000000000001;0.01;0.01;90;93;10;74;0.080000000000000002;0.46000000000000002;0.34999999999999998;0.11;0;4.033290985653366;28;71;22;2; nein
2019_02_22 10:00;5;0;0;practice;61;17;0;27;61;0;0;0.68999999999999995;0.31;0.0;0.0;3;91;69;43;0.29999999999999999;0.33000000000000002;0.27000000000000002;0.099999999999999895;0;2.633286302925626;28;71;22;2; nein
2019_02_22 10:00;5;0;0;practice;62;40;1;29;65;30;41;0.70999999999999996;0.01;0.14999999999999999;0.13;2;59;0;0;0.32000000000000001;0.68000000000000005;0.0;0.0;0;2.366637041465765;28;71;22;2; nein
2019_02_22 10:00;5;0;0;practice;63;13;0;15;25;0;0;0.29999999999999999;0.69999999999999996;0.0;0.0;3;43;35;73;0.44;0.40000000000000002;0.01;0.14999999999999999;0;2.89995352553251;28;71;22;2; nein
2019_02_22 10:00;5;0;0;practice;64;5;1;23;58;0;0;0.71999999999999997;0.28000000000000003;0.0;0.0;94;12;52;3;0.11;0.84999999999999998;0.029999999999999999;0.01;0;4.550204773110636;28;71;22;2; nein
2019_02_22 10:00;5;0;0;practice;65;25;0;7;18;0;0;0.20999999999999999;0.79000000000000004;0.0;0.0;92;45;33;13;0.41999999999999998;0.17999999999999999;0.22;0.17999999999999999;1;2.8332798240835473;28;71;22;2; nein
2019_02_22 10:00;5;0;0;practice;66;2;1;41;60;0;0;0.97999999999999998;0.02;0.0;0.0;10;14;97;6;0.54000000000000004;0.17000000000000001;0.12;0.17000000000000001;0;4.0333131163515645;28;71;22;2; nein
2019_02_22 10:00;5;0;0;practice;67;34;1;57;23;66;79;0.56000000000000005;0.23000000000000001;0.13;0.079999999999999905;85;9;0;0;0.56000000000000005;0.44;0.0;0.0;0;5.833432173096298;28;71;22;2; nein
2019_02_22 10:00;5;0;0;practice;68;64;0;44;60;96;45;0.53000000000000003;0.10000000000000001;0.029999999999999999;0.34000000000000002;88;20;43;31;0.47999999999999998;0.38;0.050000000000000003;0.089999999999999997;1;10.81697366863773;28;71;22;2; nein
2019_02_22 10:00;5;0;0;practice;69;31;1;72;59;40;92;0.59999999999999998;0.34999999999999998;0.02;0.029999999999999999;97;29;0;0;0.38;0.62;0.0;0.0;0;7.116588690700155;28;71;22;2; nein
2019_02_22 10:00;5;0;0;practice;70;6;1;42;59;0;0;0.35999999999999999;0.64000000000000001;0.0;0.0;77;19;6;7;0.44;0.14999999999999999;0.17999999999999999;0.23000000000000001;0;2.366573215246717;28;71;22;2; nein
2019_02_22 10:00;5;0;0;practice;71;72;0;86;85;97;43;0.51000000000000001;0.14999999999999999;0.33000000000000002;0.0099999999999999499;72;29;10;90;0.01;0.11;0.65000000000000002;0.23000000000000001;0;3.083286800064343;28;71;22;2; nein
2019_02_22 10:00;5;0;0;practice;72;37;0;50;66;99;12;0.26000000000000001;0.71999999999999997;0.01;0.01;22;90;0;0;0.37;0.63;0.0;0.0;1;1.9500045063232392;28;71;22;2; nein
2019_02_22 10:00;5;0;0;practice;73;19;0;25;73;0;0;0.69999999999999996;0.29999999999999999;0.0;0.0;87;84;1;86;0.040000000000000001;0.59999999999999998;0.28000000000000003;0.080000000000000002;0;3.049964703139267;28;71;22;2; nein
2019_02_22 10:00;5;0;0;practice;74;21;1;59;69;0;0;0.34000000000000002;0.66000000000000003;0.0;0.0;64;18;5;24;0.14999999999999999;0.040000000000000001;0.51000000000000001;0.29999999999999999;0;1.8999698830057241;28;71;22;2; nein
2019_02_22 10:00;5;0;0;practice;75;39;0;53;65;48;75;0.92000000000000004;0.029999999999999999;0.01;0.040000000000000001;16;83;0;0;0.31;0.68999999999999995;0.0;0.0;0;1.7500908481215447;28;71;22;2; nein
2019_02_22 10:00;5;1;0;control;1;107;1;52;48;13;63;0.68000000000000005;0.19;0.050000000000000003;0.079999999999999905;54;91;33;3;0.19;0.17999999999999999;0.33000000000000002;0.29999999999999999;0;3.183491076036262;28;71;22;2; nein
2019_02_22 10:00;5;1;0;control;2;88;0;77;13;12;7;0.12;0.19;0.66000000000000003;0.029999999999999898;94;2;0;0;0.40999999999999998;0.58999999999999997;0.0;0.0;0;4.666589476500121;28;71;22;2; nein
2019_02_22 10:00;5;1;0;control;3;63;0;56;78;42;36;0.93000000000000005;0.040000000000000001;0.01;0.0199999999999999;2;72;0;0;0.32000000000000001;0.68000000000000005;0.0;0.0;0;1.94998397929794;28;71;22;2; nein
2019_02_22 10:00;5;1;0;control;4;99;1;8;24;15;73;0.56000000000000005;0.35999999999999999;0.070000000000000007;0.0099999999999999499;88;12;0;0;0.52000000000000002;0.47999999999999998;0.0;0.0;1;8.166573920863812;28;71;22;2; nein
2019_02_22 10:00;5;1;0;control;5;3;0;53;40;0;0;0.31;0.68999999999999995;0.0;0.0;96;24;7;88;0.11;0.27000000000000002;0.58999999999999997;0.029999999999999999;0;3.3164625777899346;28;71;22;2; nein
2019_02_22 10:00;5;1;0;control;6;141;1;93;28;60;91;0.81999999999999995;0.10000000000000001;0.01;0.070000000000000007;14;85;7;89;0.45000000000000001;0.070000000000000007;0.23999999999999999;0.23999999999999999;0;2.4999905383247096;28;71;22;2; nein
2019_02_22 10:00;5;1;0;control;7;95;0;93;88;68;85;0.83999999999999997;0.14000000000000001;0.01;0.01;2;82;0;0;0.41999999999999998;0.57999999999999996;0.0;0.0;0;2.216735234413136;28;71;22;2; nein
2019_02_22 10:00;5;1;0;control;8;126;0;16;55;51;42;0.68999999999999995;0.23999999999999999;0.01;0.060000000000000102;66;4;1;5;0.46999999999999997;0.38;0.089999999999999997;0.059999999999999998;0;2.2332636590508628;28;71;22;2; nein
2019_02_22 10:00;5;1;0;control;9;8;1;50;36;0;0;0.080000000000000002;0.92000000000000004;0.0;0.0;6;19;84;29;0.54000000000000004;0.070000000000000007;0.17000000000000001;0.22;0;4.516785493551652;28;71;22;2; nein
2019_02_22 10:00;5;1;0;control;10;132;0;27;70;21;19;0.64000000000000001;0.23000000000000001;0.029999999999999999;0.10000000000000001;11;85;55;6;0.39000000000000001;0.46999999999999997;0.029999999999999999;0.11;0;10.08341060368366;28;71;22;2; nein
2019_02_22 10:00;5;1;0;control;11;67;0;44;42;8;89;0.88;0.070000000000000007;0.029999999999999999;0.02;10;63;0;0;0.39000000000000001;0.60999999999999999;0.0;0.0;1;4.233309844857104;28;71;22;2; nein
2019_02_22 10:00;5;1;0;control;12;89;1;26;41;13;56;0.059999999999999998;0.40999999999999998;0.050000000000000003;0.47999999999999998;5;97;0;0;0.37;0.63;0.0;0.0;0;2.4500931894854148;28;71;22;2; nein
2019_02_22 10:00;5;1;0;control;13;46;0;5;19;0;0;0.32000000000000001;0.68000000000000005;0.0;0.0;88;38;97;66;0.60999999999999999;0.20000000000000001;0.040000000000000001;0.14999999999999999;1;2.66681174569203;28;71;22;2; nein
2019_02_22 10:00;5;1;0;control;14;117;1;65;85;92;41;0.23000000000000001;0.17999999999999999;0.54000000000000004;0.050000000000000003;99;93;10;13;0.64000000000000001;0.16;0.01;0.19;0;5.1832951070946365;28;71;22;2; nein
2019_02_22 10:00;5;1;0;control;15;32;0;19;81;0;0;0.93000000000000005;0.070000000000000007;0.0;0.0;1;65;41;68;0.45000000000000001;0.050000000000000003;0.059999999999999998;0.44;0;4.699946854249902;28;71;22;2; nein
2019_02_22 10:00;5;1;0;control;16;42;1;70;48;0;0;0.79000000000000004;0.20999999999999999;0.0;0.0;51;8;12;67;0.19;0.26000000000000001;0.28999999999999998;0.26000000000000001;0;2.016785333184089;28;71;22;2; nein
2019_02_22 10:00;5;1;0;control;17;112;1;70;44;98;64;0.02;0.75;0.12;0.11;33;2;63;85;0.23999999999999999;0.31;0.080000000000000002;0.37;0;3.599886267452348;28;71;22;2; nein
2019_02_22 10:00;5;1;0;control;18;31;0;10;59;0;0;0.23999999999999999;0.76000000000000001;0.0;0.0;1;79;53;73;0.23000000000000001;0.58999999999999997;0.050000000000000003;0.13;0;4.633302981133056;28;71;22;2; nein
2019_02_22 10:00;5;1;0;control;19;147;1;39;43;76;28;0.14000000000000001;0.10000000000000001;0.10000000000000001;0.66000000000000003;6;31;68;85;0.27000000000000002;0.20000000000000001;0.22;0.31;0;4.416780714603192;28;71;22;2; nein
2019_02_22 10:00;5;1;0;control;20;40;1;45;49;0;0;0.68999999999999995;0.31;0.0;0.0;2;92;65;73;0.23999999999999999;0.59999999999999998;0.11;0.050000000000000003;0;3.516839376991811;28;71;22;2; nein
2019_02_22 10:00;5;1;0;control;21;38;0;40;70;0;0;0.53000000000000003;0.46999999999999997;0.0;0.0;97;90;6;96;0.56999999999999995;0.070000000000000007;0.27000000000000002;0.089999999999999997;0;2.133495582359501;28;71;22;2; nein
2019_02_22 10:00;5;1;0;control;22;15;0;77;81;0;0;0.28000000000000003;0.71999999999999997;0.0;0.0;98;14;87;18;0.55000000000000004;0.23000000000000001;0.16;0.059999999999999901;0;4.416673268457089;28;71;22;2; nein
2019_02_22 10:00;5;1;0;control;23;56;0;28;84;37;41;0.68000000000000005;0.28000000000000003;0.02;0.0199999999999999;6;95;0;0;0.72999999999999998;0.27000000000000002;0.0;0.0;0;3.466636367922547;28;71;22;2; nein
2019_02_22 10:00;5;1;0;control;24;139;1;44;31;16;8;0.79000000000000004;0.070000000000000007;0.13;0.0099999999999999499;92;58;2;88;0.55000000000000004;0.070000000000000007;0.34000000000000002;0.039999999999999897;0;4.533334445213768;28;71;22;2; nein
2019_02_22 10:00;5;1;0;control;25;149;1;14;89;73;53;0.93999999999999995;0.01;0.01;0.040000000000000001;97;45;6;13;0.34000000000000002;0.01;0.40999999999999998;0.23999999999999999;0;2.350122408422976;28;71;22;2; nein
2019_02_22 10:00;5;1;0;control;26;146;0;25;5;64;35;0.94999999999999996;0.02;0.01;0.02;47;97;12;79;0.20999999999999999;0.029999999999999999;0.02;0.73999999999999999;1;5.566806325274229;28;71;22;2; nein
2019_02_22 10:00;5;1;0;control;27;54;1;44;79;78;52;0.79000000000000004;0.19;0.01;0.0099999999999999603;96;1;0;0;0.28000000000000003;0.71999999999999997;0.0;0.0;0;3.466644065557375;28;71;22;2; nein
2019_02_22 10:00;5;1;0;control;28;17;1;81;52;0;0;0.059999999999999998;0.93999999999999995;0.0;0.0;34;3;69;41;0.01;0.22;0.75;0.02;0;2.916922960471311;28;71;22;2; nein
2019_02_22 10:00;5;1;0;control;29;140;0;36;32;26;27;0.39000000000000001;0.14999999999999999;0.19;0.27000000000000002;44;3;99;25;0.29999999999999999;0.34000000000000002;0.34000000000000002;0.0199999999999999;0;4.266644129704218;28;71;22;2; nein
2019_02_22 10:00;5;1;0;control;30;2;1;59;32;0;0;0.080000000000000002;0.92000000000000004;0.0;0.0;33;38;85;1;0.28999999999999998;0.050000000000000003;0.070000000000000007;0.58999999999999997;0;6.116635197240612;28;71;22;2; nein
2019_02_22 10:00;5;1;0;control;31;108;1;48;72;39;70;0.14000000000000001;0.66000000000000003;0.02;0.17999999999999999;81;44;98;8;0.59999999999999998;0.029999999999999999;0.050000000000000003;0.32000000000000001;0;2.1166178775629305;28;71;22;2; nein
2019_02_22 10:00;5;1;0;control;32;11;1;17;36;0;0;0.14000000000000001;0.85999999999999999;0.0;0.0;19;41;34;95;0.88;0.02;0.050000000000000003;0.050000000000000003;1;5.416602065339248;28;71;22;2; nein
2019_02_22 10:00;5;1;0;control;33;128;1;70;49;27;54;0.27000000000000002;0.53000000000000003;0.02;0.17999999999999999;72;97;6;20;0.29999999999999999;0.39000000000000001;0.22;0.0899999999999999;0;3.9833349423533946;28;71;22;2; nein
2019_02_22 10:00;5;1;0;control;34;22;0;32;55;0;0;0.39000000000000001;0.60999999999999999;0.0;0.0;93;72;59;22;0.20000000000000001;0.11;0.14000000000000001;0.55000000000000004;1;6.249886379709096;28;71;22;2; nein
2019_02_22 10:00;5;1;0;control;35;28;1;47;30;0;0;0.97999999999999998;0.02;0.0;0.0;55;48;77;13;0.070000000000000007;0.26000000000000001;0.42999999999999999;0.23999999999999999;1;6.133247012917309;28;71;22;2; nein
2019_02_22 10:00;5;1;0;control;36;27;0;44;26;0;0;0.35999999999999999;0.64000000000000001;0.0;0.0;63;10;3;5;0.58999999999999997;0.19;0.14999999999999999;0.070000000000000007;0;2.983348733947423;28;71;22;2; nein
2019_02_22 10:00;5;1;0;control;37;14;0;36;40;0;0;0.54000000000000004;0.46000000000000002;0.0;0.0;99;70;1;11;0.16;0.089999999999999997;0.080000000000000002;0.67000000000000004;0;1.9999156467565626;28;71;22;2; nein
2019_02_22 10:00;5;1;0;control;38;78;1;74;36;34;3;0.14999999999999999;0.64000000000000001;0.13;0.080000000000000002;1;83;0;0;0.41999999999999998;0.57999999999999996;0.0;0.0;0;2.1999139789359106;28;71;22;2; nein
2019_02_22 10:00;5;1;0;control;39;83;1;17;12;7;41;0.65000000000000002;0.19;0.089999999999999997;0.070000000000000007;6;84;0;0;0.72999999999999998;0.27000000000000002;0.0;0.0;0;10.933466780377785;28;71;22;2; nein
2019_02_22 10:00;5;1;0;control;40;49;1;21;30;0;0;0.53000000000000003;0.46999999999999997;0.0;0.0;93;99;89;25;0.44;0.02;0.11;0.42999999999999999;1;4.250075933955486;28;71;22;2; nein
2019_02_22 10:00;5;1;0;control;41;9;0;61;69;0;0;0.93999999999999995;0.060000000000000102;0.0;0.0;18;93;72;16;0.40999999999999998;0.34999999999999998;0.089999999999999997;0.14999999999999999;0;5.166607277278672;28;71;22;2; nein
2019_02_22 10:00;5;1;0;control;42;75;1;67;80;36;81;0.81999999999999995;0.080000000000000002;0.059999999999999998;0.040000000000000001;3;97;0;0;0.32000000000000001;0.68000000000000005;0.0;0.0;0;3.199947014616555;28;71;22;2; nein
2019_02_22 10:00;5;1;0;control;43;92;1;90;86;65;94;0.16;0.34000000000000002;0.28000000000000003;0.22;79;22;0;0;0.35999999999999999;0.64000000000000001;0.0;0.0;0;5.316760540386895;28;71;22;2; nein
2019_02_22 10:00;5;1;0;control;44;90;1;27;44;50;72;0.68000000000000005;0.28999999999999998;0.02;0.0099999999999999707;6;96;0;0;0.46999999999999997;0.53000000000000003;0.0;0.0;0;3.916739820921066;28;71;22;2; nein
2019_02_22 10:00;5;1;0;control;45;96;1;51;54;39;7;0.17000000000000001;0.26000000000000001;0.10000000000000001;0.46999999999999997;24;96;0;0;0.28000000000000003;0.71999999999999997;0.0;0.0;1;1.999949003173242;28;71;22;2; nein
2019_02_22 10:00;5;1;0;control;46;136;1;29;67;14;75;0.46000000000000002;0.29999999999999999;0.20999999999999999;0.0300000000000001;70;86;1;85;0.31;0.39000000000000001;0.27000000000000002;0.029999999999999898;0;2.0833105344372598;28;71;22;2; nein
2019_02_22 10:00;5;1;0;control;47;50;1;15;20;0;0;0.82999999999999996;0.17000000000000001;0.0;0.0;97;18;88;87;0.56999999999999995;0.39000000000000001;0.01;0.029999999999999999;1;4.033284250223005;28;71;22;2; nein
2019_02_22 10:00;5;1;0;control;48;29;0;44;51;0;0;0.78000000000000003;0.22;0.0;0.0;74;1;68;82;0.69999999999999996;0.28000000000000003;0.01;0.01;0;4.049913064842258;28;71;22;2; nein
2019_02_22 10:00;5;1;0;control;49;24;1;35;27;0;0;0.070000000000000007;0.93000000000000005;0.0;0.0;62;3;81;95;0.35999999999999999;0.55000000000000004;0.01;0.080000000000000002;0;7.716755921805998;28;71;22;2; nein
2019_02_22 10:00;5;1;0;control;50;122;0;35;58;25;31;0.81999999999999995;0.070000000000000007;0.080000000000000002;0.029999999999999999;18;64;68;89;0.63;0.17000000000000001;0.11;0.089999999999999997;0;5.433317799080214;28;71;22;2; nein
2019_02_22 10:00;5;1;0;control;51;82;1;78;66;30;27;0.28999999999999998;0.58999999999999997;0.080000000000000002;0.040000000000000001;90;6;0;0;0.82999999999999996;0.17000000000000001;0.0;0.0;0;2.899958015818811;28;71;22;2; nein
2019_02_22 10:00;5;1;0;control;52;87;0;10;30;63;4;0.56999999999999995;0.12;0.16;0.14999999999999999;86;2;0;0;0.42999999999999999;0.56999999999999995;0.0;0.0;0;6.616754670940281;28;71;22;2; nein
2019_02_22 10:00;5;1;0;control;53;110;0;47;44;23;52;0.13;0.27000000000000002;0.040000000000000001;0.56000000000000005;99;2;30;22;0.28999999999999998;0.5;0.11;0.10000000000000001;0;2.1334330390809555;28;71;22;2; nein
2019_02_22 10:00;5;1;0;control;54;142;1;98;65;64;84;0.88;0.070000000000000007;0.01;0.040000000000000001;5;68;60;16;0.46000000000000002;0.080000000000000002;0.27000000000000002;0.19;0;2.1666598777810577;28;71;22;2; nein
2019_02_22 10:00;5;1;0;control;55;52;0;71;51;10;54;0.22;0.12;0.19;0.46999999999999997;91;1;0;0;0.29999999999999999;0.69999999999999996;0.0;0.0;0;3.28321392912585;28;71;22;2; nein
2019_02_22 10:00;5;1;0;control;56;61;1;43;18;39;70;0.75;0.089999999999999997;0.089999999999999997;0.070000000000000007;16;66;0;0;0.64000000000000001;0.35999999999999999;0.0;0.0;0;3.5166350689469255;28;71;22;2; nein
2019_02_22 10:00;5;1;0;control;57;119;1;60;58;11;18;0.25;0.72999999999999998;0.01;0.01;96;23;42;85;0.44;0.48999999999999999;0.059999999999999998;0.010000000000000101;1;2.6332744357396223;28;71;22;2; nein
2019_02_22 10:00;5;1;0;control;58;134;1;57;48;50;55;0.02;0.62;0.17999999999999999;0.17999999999999999;80;96;15;18;0.23999999999999999;0.35999999999999999;0.33000000000000002;0.070000000000000007;0;3.783302933023151;28;71;22;2; nein
2019_02_22 10:00;5;1;0;control;59;123;0;26;24;51;92;0.72999999999999998;0.16;0.070000000000000007;0.040000000000000001;6;90;82;49;0.64000000000000001;0.25;0.050000000000000003;0.059999999999999998;0;3.083298987985472;28;71;22;2; nein
2019_02_22 10:00;5;1;0;control;60;79;0;52;46;29;22;0.17999999999999999;0.51000000000000001;0.23999999999999999;0.070000000000000104;93;14;0;0;0.45000000000000001;0.55000000000000004;0.0;0.0;0;4.666779351480727;28;71;22;2; nein
2019_02_22 10:00;5;1;0;control;61;34;0;32;48;0;0;0.28000000000000003;0.71999999999999997;0.0;0.0;97;83;7;62;0.040000000000000001;0.54000000000000004;0.35999999999999999;0.059999999999999901;0;2.0166114949415714;28;71;22;2; nein
2019_02_22 10:00;5;1;0;control;62;105;0;49;74;63;58;0.84999999999999998;0.080000000000000002;0.02;0.050000000000000003;97;5;86;8;0.25;0.52000000000000002;0.070000000000000007;0.16;0;1.7000924678332012;28;71;22;2; nein
2019_02_22 10:00;5;1;0;control;63;101;0;30;96;61;45;0.65000000000000002;0.14000000000000001;0.11;0.10000000000000001;3;98;63;89;0.75;0.19;0.040000000000000001;0.02;0;1.6000902547630176;28;71;22;2; nein
2019_02_22 10:00;5;1;0;control;64;39;1;14;33;0;0;0.78000000000000003;0.22;0.0;0.0;93;84;1;25;0.14000000000000001;0.23999999999999999;0.39000000000000001;0.23000000000000001;0;3.0332294045783783;28;71;22;2; nein
2019_02_22 10:00;5;1;0;control;65;71;1;68;55;36;51;0.20000000000000001;0.75;0.02;0.029999999999999999;38;81;0;0;0.52000000000000002;0.47999999999999998;0.0;0.0;1;3.5666148466198138;28;71;22;2; nein
2019_02_22 10:00;5;1;0;control;66;85;0;31;22;82;50;0.11;0.69999999999999996;0.01;0.17999999999999999;3;99;0;0;0.62;0.38;0.0;0.0;0;2.0000134708598125;28;71;22;2; nein
2019_02_22 10:00;5;1;0;control;67;70;1;66;55;69;50;0.22;0.29999999999999999;0.29999999999999999;0.17999999999999999;2;90;0;0;0.34000000000000002;0.66000000000000003;0.0;0.0;0;1.9333962187292855;28;71;22;2; nein
2019_02_22 10:00;5;1;0;control;68;137;1;71;22;28;17;0.25;0.46000000000000002;0.050000000000000003;0.23999999999999999;3;98;92;69;0.42999999999999999;0.23999999999999999;0.20000000000000001;0.13;0;2.116576823513242;28;71;22;2; nein
2019_02_22 10:00;5;1;0;control;69;12;1;53;68;0;0;0.31;0.68999999999999995;0.0;0.0;69;54;97;29;0.25;0.20999999999999999;0.20000000000000001;0.34000000000000002;1;1.633295924968479;28;71;22;2; nein
2019_02_22 10:00;5;1;0;control;70;115;1;50;28;61;79;0.83999999999999997;0.040000000000000001;0.059999999999999998;0.059999999999999998;1;26;97;55;0.45000000000000001;0.080000000000000002;0.40999999999999998;0.060000000000000102;0;3.6667504853521677;28;71;22;2; nein
2019_02_22 10:00;5;1;0;control;71;7;1;49;29;0;0;0.95999999999999996;0.040000000000000001;0.0;0.0;23;99;64;25;0.68999999999999995;0.12;0.059999999999999998;0.13;1;2.683292380849707;28;71;22;2; nein
2019_02_22 10:00;5;1;0;control;72;106;0;85;69;22;61;0.10000000000000001;0.58999999999999997;0.17999999999999999;0.13;20;79;91;84;0.55000000000000004;0.14999999999999999;0.26000000000000001;0.039999999999999897;0;11.383312041890349;28;71;22;2; nein
2019_02_22 10:00;5;1;0;control;73;1;1;22;51;0;0;0.26000000000000001;0.73999999999999999;0.0;0.0;14;11;92;31;0.29999999999999999;0.40999999999999998;0.14999999999999999;0.14000000000000001;0;3.716801786877113;28;71;22;2; nein
2019_02_22 10:00;5;1;0;control;74;150;1;25;21;78;38;0.84999999999999998;0.059999999999999998;0.050000000000000003;0.040000000000000001;31;43;64;95;0.059999999999999998;0.45000000000000001;0.13;0.35999999999999999;1;2.54994818529849;28;71;22;2; nein
2019_02_22 10:00;5;1;0;control;75;5;1;70;5;0;0;0.98999999999999999;0.01;0.0;0.0;92;87;47;1;0.44;0.02;0.16;0.38;0;4.783239106805013;28;71;22;2; nein
2019_02_22 10:00;5;2;0;timed;1;10;1;45;62;0;0;0.059999999999999998;0.93999999999999995;0.0;0.0;17;99;28;67;0.58999999999999997;0.34000000000000002;0.01;0.059999999999999998;1;2.269417523215452;28;71;22;2; nein
2019_02_22 10:00;5;2;0;timed;2;109;0;75;28;16;56;0.19;0.070000000000000007;0.059999999999999998;0.68000000000000005;3;50;98;44;0.5;0.02;0.34999999999999998;0.13;0;1.3167406548309373;28;71;22;2; nein
2019_02_22 10:00;5;2;0;timed;3;3;0;53;40;0;0;0.31;0.68999999999999995;0.0;0.0;96;24;7;88;0.11;0.27000000000000002;0.58999999999999997;0.029999999999999999;0;1.8999625061060215;28;71;22;2; nein
2019_02_22 10:00;5;2;0;timed;4;108;0;48;72;39;70;0.14000000000000001;0.66000000000000003;0.02;0.17999999999999999;81;44;98;8;0.59999999999999998;0.029999999999999999;0.050000000000000003;0.32000000000000001;0;1.6999677020094168;28;71;22;2; nein
2019_02_22 10:00;5;2;0;timed;5;21;1;64;28;0;0;0.080000000000000002;0.92000000000000004;0.0;0.0;50;1;88;13;0.57999999999999996;0.13;0.02;0.27000000000000002;0;1.4999353719449573;28;71;22;2; nein
2019_02_22 10:00;5;2;0;timed;6;28;0;47;30;0;0;0.97999999999999998;0.02;0.0;0.0;55;48;77;13;0.070000000000000007;0.26000000000000001;0.42999999999999999;0.23999999999999999;1;1.533408214209885;28;71;22;2; nein
2019_02_22 10:00;5;2;0;timed;7;105;1;49;74;63;58;0.84999999999999998;0.080000000000000002;0.02;0.050000000000000003;97;5;86;8;0.25;0.52000000000000002;0.070000000000000007;0.16;0;1.6167245218730386;28;71;22;2; nein
2019_02_22 10:00;5;2;0;timed;8;52;1;71;51;10;54;0.22;0.12;0.19;0.46999999999999997;91;1;0;0;0.29999999999999999;0.69999999999999996;0.0;0.0;0;1.533354330768816;28;71;22;2; nein
2019_02_22 10:00;5;2;0;timed;9;30;1;33;30;0;0;0.71999999999999997;0.28000000000000003;0.0;0.0;9;88;1;14;0.55000000000000004;0.39000000000000001;0.01;0.049999999999999899;0;1.49993665488455;28;71;22;2; nein
2019_02_22 10:00;5;2;0;timed;10;22;0;32;55;0;0;0.39000000000000001;0.60999999999999999;0.0;0.0;93;72;59;22;0.20000000000000001;0.11;0.14000000000000001;0.55000000000000004;0;1.8999384509988886;28;71;22;2; nein
2019_02_22 10:00;5;2;0;timed;11;147;0;39;43;76;28;0.14000000000000001;0.10000000000000001;0.10000000000000001;0.66000000000000003;6;31;68;85;0.27000000000000002;0.20000000000000001;0.22;0.31;0;1.3834653531084768;28;71;22;2; nein
2019_02_22 10:00;5;2;0;timed;12;7;0;49;29;0;0;0.95999999999999996;0.040000000000000001;0.0;0.0;23;99;64;25;0.68999999999999995;0.12;0.059999999999999998;0.13;1;1.5667113877843803;28;71;22;2; nein
2019_02_22 10:00;5;2;0;timed;13;74;0;66;47;52;44;0.41999999999999998;0.26000000000000001;0.17999999999999999;0.14000000000000001;17;99;0;0;0.47999999999999998;0.52000000000000002;0.0;0.0;0;1.449995365382165;28;71;22;2; nein
2019_02_22 10:00;5;2;0;timed;14;26;0;76;41;0;0;0.57999999999999996;0.41999999999999998;0.0;0.0;61;79;84;2;0.13;0.029999999999999999;0.67000000000000004;0.17000000000000001;0;2.1335199582017594;28;71;22;2; nein
2019_02_22 10:00;5;2;0;timed;15;138;0;8;20;43;51;0.38;0.5;0.02;0.10000000000000001;72;82;70;1;0.39000000000000001;0.050000000000000003;0.070000000000000007;0.48999999999999999;0;1.4833389515370072;28;71;22;2; nein
2019_02_22 10:00;5;2;0;timed;16;68;0;84;27;55;62;0.01;0.050000000000000003;0.40999999999999998;0.53000000000000003;9;82;0;0;0.37;0.63;0.0;0.0;0;1.2999594911989334;28;71;22;2; nein
2019_02_22 10:00;5;2;0;timed;17;99;0;8;24;15;73;0.56000000000000005;0.35999999999999999;0.070000000000000007;0.0099999999999999499;88;12;0;0;0.52000000000000002;0.47999999999999998;0.0;0.0;0;1.3000932375962293;28;71;22;2; nein
2019_02_22 10:00;5;2;0;timed;18;61;1;43;18;39;70;0.75;0.089999999999999997;0.089999999999999997;0.070000000000000007;16;66;0;0;0.64000000000000001;0.35999999999999999;0.0;0.0;0;1.6000780668409789;28;71;22;2; nein
2019_02_22 10:00;5;2;0;timed;19;13;1;52;56;0;0;0.46999999999999997;0.53000000000000003;0.0;0.0;94;71;27;2;0.089999999999999997;0.31;0.57999999999999996;0.020000000000000101;1;1.4499286525515345;28;71;22;2; nein
2019_02_22 10:00;5;2;0;timed;20;82;0;78;66;30;27;0.28999999999999998;0.58999999999999997;0.080000000000000002;0.040000000000000001;90;6;0;0;0.82999999999999996;0.17000000000000001;0.0;0.0;0;1.4665844088904123;28;71;22;2; nein
2019_02_22 10:00;5;2;0;timed;21;12;0;53;68;0;0;0.31;0.68999999999999995;0.0;0.0;69;54;97;29;0.25;0.20999999999999999;0.20000000000000001;0.34000000000000002;1;2.0999255574615745;28;71;22;2; nein
2019_02_22 10:00;5;2;0;timed;22;8;1;50;36;0;0;0.080000000000000002;0.92000000000000004;0.0;0.0;6;19;84;29;0.54000000000000004;0.070000000000000007;0.17000000000000001;0.22;0;1.7166340425947055;28;71;22;2; nein
2019_02_22 10:00;5;2;0;timed;23;35;1;33;37;0;0;0.88;0.12;0.0;0.0;63;4;79;98;0.16;0.46000000000000002;0.17000000000000001;0.20999999999999999;0;1.699964494661799;28;71;22;2; nein
2019_02_22 10:00;5;2;0;timed;24;134;0;57;48;50;55;0.02;0.62;0.17999999999999999;0.17999999999999999;80;96;15;18;0.23999999999999999;0.35999999999999999;0.33000000000000002;0.070000000000000007;0;1.733299420977346;28;71;22;2; nein
2019_02_22 10:00;5;2;0;timed;25;123;1;26;24;51;92;0.72999999999999998;0.16;0.070000000000000007;0.040000000000000001;6;90;82;49;0.64000000000000001;0.25;0.050000000000000003;0.059999999999999998;0;1.6167453696325538;28;71;22;2; nein
2019_02_22 10:00;5;2;0;timed;26;71;1;68;55;36;51;0.20000000000000001;0.75;0.02;0.029999999999999999;38;81;0;0;0.52000000000000002;0.47999999999999998;0.0;0.0;1;1.7666523084408254;28;71;22;2; nein
2019_02_22 10:00;5;2;0;timed;27;56;1;28;84;37;41;0.68000000000000005;0.28000000000000003;0.02;0.0199999999999999;6;95;0;0;0.72999999999999998;0.27000000000000002;0.0;0.0;0;1.4834066265721049;28;71;22;2; nein
2019_02_22 10:00;5;2;0;timed;28;137;0;71;22;28;17;0.25;0.46000000000000002;0.050000000000000003;0.23999999999999999;3;98;92;69;0.42999999999999999;0.23999999999999999;0.20000000000000001;0.13;0;1.6832429876958486;28;71;22;2; nein
2019_02_22 10:00;5;2;0;timed;29;37;0;14;98;0;0;0.93000000000000005;0.070000000000000007;0.0;0.0;41;2;87;66;0.17999999999999999;0.48999999999999999;0.32000000000000001;0.010000000000000101;0;1.7167953721818776;28;71;22;2; nein
2019_02_22 10:00;5;2;0;timed;30;9;1;61;69;0;0;0.93999999999999995;0.060000000000000102;0.0;0.0;18;93;72;16;0.40999999999999998;0.34999999999999998;0.089999999999999997;0.14999999999999999;0;1.6667299583277781;28;71;22;2; nein
2019_02_22 10:00;5;2;0;timed;31;124;1;37;65;15;41;0.17999999999999999;0.45000000000000001;0.02;0.34999999999999998;40;7;98;30;0.070000000000000007;0.45000000000000001;0.45000000000000001;0.029999999999999898;0;2.133415398669058;28;71;22;2; nein
2019_02_22 10:00;5;2;0;timed;32;1;0;22;51;0;0;0.26000000000000001;0.73999999999999999;0.0;0.0;14;11;92;31;0.29999999999999999;0.40999999999999998;0.14999999999999999;0.14000000000000001;0;1.46665208392551;28;71;22;2; nein
2019_02_22 10:00;5;2;0;timed;33;103;1;38;49;89;50;0.89000000000000001;0.070000000000000007;0.01;0.029999999999999999;6;64;99;27;0.70999999999999996;0.17999999999999999;0.059999999999999998;0.050000000000000003;0;1.7499939862236715;28;71;22;2; nein
2019_02_22 10:00;5;2;0;timed;34;93;0;87;81;73;98;0.80000000000000004;0.040000000000000001;0.14999999999999999;0.0099999999999999499;5;71;0;0;0.51000000000000001;0.48999999999999999;0.0;0.0;0;1.2332325477791528;28;71;22;2; nein
2019_02_22 10:00;5;2;0;timed;35;117;0;65;85;92;41;0.23000000000000001;0.17999999999999999;0.54000000000000004;0.050000000000000003;99;93;10;13;0.64000000000000001;0.16;0.01;0.19;1;2.1833903653205198;28;71;22;2; nein
2019_02_22 10:00;5;2;0;timed;36;60;1;64;59;57;96;0.83999999999999997;0.13;0.02;0.01;83;6;0;0;0.54000000000000004;0.46000000000000002;0.0;0.0;0;1.966646471067179;28;71;22;2; nein
2019_02_22 10:00;5;2;0;timed;37;40;1;45;49;0;0;0.68999999999999995;0.31;0.0;0.0;2;92;65;73;0.23999999999999999;0.59999999999999998;0.11;0.050000000000000003;0;1.5501351736666038;28;71;22;2; nein
2019_02_22 10:00;5;2;0;timed;38;55;1;74;55;47;48;0.60999999999999999;0.31;0.070000000000000007;0.01;97;6;0;0;0.42999999999999999;0.56999999999999995;0.0;0.0;0;1.633286623659842;28;71;22;2; nein
2019_02_22 10:00;5;2;0;timed;39;23;0;54;40;0;0;0.93000000000000005;0.070000000000000007;0.0;0.0;36;23;71;86;0.02;0.41999999999999998;0.19;0.37;0;2.533308144962575;28;71;22;2; nein
2019_02_22 10:00;5;2;0;timed;40;120;0;64;40;48;51;0.19;0.02;0.070000000000000007;0.71999999999999997;97;9;79;94;0.23000000000000001;0.54000000000000004;0.01;0.22;0;1.61676461371826;28;71;22;2; nein
2019_02_22 10:00;5;2;0;timed;41;114;1;57;39;79;97;0.77000000000000002;0.02;0.13;0.080000000000000002;92;36;6;1;0.54000000000000004;0.12;0.13;0.20999999999999999;0;1.6166222074825782;28;71;22;2; nein
2019_02_22 10:00;5;2;0;timed;42;83;1;17;12;7;41;0.65000000000000002;0.19;0.089999999999999997;0.070000000000000007;6;84;0;0;0.72999999999999998;0.27000000000000002;0.0;0.0;1;1.316609795047043;28;71;22;2; nein
2019_02_22 10:00;5;2;0;timed;43;144;1;99;93;90;71;0.65000000000000002;0.32000000000000001;0.01;0.02;97;14;48;73;0.23000000000000001;0.46000000000000002;0.13;0.17999999999999999;0;1.5167755507736729;28;71;22;2; nein
2019_02_22 10:00;5;2;0;timed;44;149;0;14;89;73;53;0.93999999999999995;0.01;0.01;0.040000000000000001;97;45;6;13;0.34000000000000002;0.01;0.40999999999999998;0.23999999999999999;0;1.4999552575000052;28;71;22;2; nein
2019_02_22 10:00;5;2;0;timed;45;46;1;5;19;0;0;0.32000000000000001;0.68000000000000005;0.0;0.0;88;38;97;66;0.60999999999999999;0.20000000000000001;0.040000000000000001;0.14999999999999999;1;1.3501560855729622;28;71;22;2; nein
2019_02_22 10:00;5;2;0;timed;46;51;1;52;23;43;16;0.60999999999999999;0.20999999999999999;0.01;0.17000000000000001;92;7;0;0;0.14999999999999999;0.84999999999999998;0.0;0.0;0;1.9666172842044034;28;71;22;2; nein
2019_02_22 10:00;5;2;0;timed;47;97;1;17;33;32;74;0.94999999999999996;0.01;0.029999999999999999;0.01;76;23;0;0;0.33000000000000002;0.67000000000000004;0.0;0.0;1;2.083689001458879;28;71;22;2; nein
2019_02_22 10:00;5;2;0;timed;48;115;1;50;28;61;79;0.83999999999999997;0.040000000000000001;0.059999999999999998;0.059999999999999998;1;26;97;55;0.45000000000000001;0.080000000000000002;0.40999999999999998;0.060000000000000102;0;1.883315088870404;28;71;22;2; nein
2019_02_22 10:00;5;2;0;timed;49;88;0;77;13;12;7;0.12;0.19;0.66000000000000003;0.029999999999999898;94;2;0;0;0.40999999999999998;0.58999999999999997;0.0;0.0;0;1.5167768337132657;28;71;22;2; nein
2019_02_22 10:00;5;2;0;timed;50;90;1;27;44;50;72;0.68000000000000005;0.28999999999999998;0.02;0.0099999999999999707;6;96;0;0;0.46999999999999997;0.53000000000000003;0.0;0.0;0;1.7001081838361642;28;71;22;2; nein
2019_02_22 10:00;5;2;0;timed;51;110;0;47;44;23;52;0.13;0.27000000000000002;0.040000000000000001;0.56000000000000005;99;2;30;22;0.28999999999999998;0.5;0.11;0.10000000000000001;0;1.3999456675310284;28;71;22;2; nein
2019_02_22 10:00;5;2;0;timed;52;94;1;84;86;93;39;0.78000000000000003;0.20000000000000001;0.01;0.0099999999999999603;9;83;0;0;0.46999999999999997;0.53000000000000003;0.0;0.0;0;1.6332670588399196;28;71;22;2; nein
2019_02_22 10:00;5;2;0;timed;53;118;0;62;52;65;68;0.40999999999999998;0.44;0.10000000000000001;0.0500000000000001;79;20;14;37;0.56999999999999995;0.23999999999999999;0.14000000000000001;0.050000000000000003;0;1.6832433084309741;28;71;22;2; nein
2019_02_22 10:00;5;2;0;timed;54;119;0;60;58;11;18;0.25;0.72999999999999998;0.01;0.01;96;23;42;85;0.44;0.48999999999999999;0.059999999999999998;0.010000000000000101;1;2.099953140650541;28;71;22;2; nein
2019_02_22 10:00;5;2;0;timed;55;126;1;16;55;51;42;0.68999999999999995;0.23999999999999999;0.01;0.060000000000000102;66;4;1;5;0.46999999999999997;0.38;0.089999999999999997;0.059999999999999998;0;1.9834067869405771;28;71;22;2; nein
2019_02_22 10:00;5;2;0;timed;56;73;0;65;68;70;47;0.25;0.23000000000000001;0.20999999999999999;0.31;27;95;0;0;0.45000000000000001;0.55000000000000004;0.0;0.0;NA;3.1166143494810967;28;71;22;2; nein
2019_02_22 10:00;5;2;0;timed;57;49;1;21;30;0;0;0.53000000000000003;0.46999999999999997;0.0;0.0;93;99;89;25;0.44;0.02;0.11;0.42999999999999999;1;2.283314639841592;28;71;22;2; nein
2019_02_22 10:00;5;2;0;timed;58;81;1;67;38;52;65;0.27000000000000002;0.35999999999999999;0.01;0.35999999999999999;2;77;0;0;0.14000000000000001;0.85999999999999999;0.0;0.0;0;1.9167564991294057;28;71;22;2; nein
2019_02_22 10:00;5;2;0;timed;59;104;1;55;85;93;3;0.87;0.02;0.089999999999999997;0.02;1;2;90;8;0.35999999999999999;0.070000000000000007;0.40000000000000002;0.17000000000000001;0;1.9001340992053883;28;71;22;2; nein
2019_02_22 10:00;5;2;0;timed;60;45;1;97;87;0;0;0.71999999999999997;0.28000000000000003;0.0;0.0;96;11;14;4;0.25;0.029999999999999999;0.14000000000000001;0.57999999999999996;0;1.483311047612915;28;71;22;2; nein
2019_02_22 10:00;5;2;0;timed;61;125;1;37;41;10;35;0.91000000000000003;0.040000000000000001;0.029999999999999999;0.02;7;13;91;93;0.26000000000000001;0.39000000000000001;0.16;0.19;0;1.6832118764232291;28;71;22;2; nein
2019_02_22 10:00;5;2;0;timed;62;128;0;70;49;27;54;0.27000000000000002;0.53000000000000003;0.02;0.17999999999999999;72;97;6;20;0.29999999999999999;0.39000000000000001;0.22;0.0899999999999999;0;1.816642670361034;28;71;22;2; nein
2019_02_22 10:00;5;2;0;timed;63;43;1;60;83;0;0;0.23000000000000001;0.77000000000000002;0.0;0.0;72;5;70;12;0.29999999999999999;0.40999999999999998;0.12;0.17000000000000001;0;1.466596276076416;28;71;22;2; nein
2019_02_22 10:00;5;2;0;timed;64;64;0;48;39;34;19;0.46000000000000002;0.5;0.02;0.02;13;92;0;0;0.68999999999999995;0.31;0.0;0.0;0;1.5833183924387413;28;71;22;2; nein
2019_02_22 10:00;5;2;0;timed;65;5;1;70;5;0;0;0.98999999999999999;0.01;0.0;0.0;92;87;47;1;0.44;0.02;0.16;0.38;1;1.2832937920820768;28;71;22;2; nein
2019_02_22 10:00;5;2;0;timed;66;127;1;89;26;62;79;0.02;0.28999999999999998;0.53000000000000003;0.16;96;6;60;13;0.53000000000000003;0.25;0.17000000000000001;0.050000000000000003;0;1.3499190625825577;28;71;22;2; nein
2019_02_22 10:00;5;2;0;timed;67;25;1;50;53;0;0;0.82999999999999996;0.17000000000000001;0.0;0.0;83;16;97;4;0.45000000000000001;0.29999999999999999;0.11;0.14000000000000001;0;1.683300399217842;28;71;22;2; nein
2019_02_22 10:00;5;2;0;timed;68;27;1;44;26;0;0;0.35999999999999999;0.64000000000000001;0.0;0.0;63;10;3;5;0.58999999999999997;0.19;0.14999999999999999;0.070000000000000007;0;1.3832767610656447;28;71;22;2; nein
2019_02_22 10:00;5;2;0;timed;69;63;1;56;78;42;36;0.93000000000000005;0.040000000000000001;0.01;0.0199999999999999;2;72;0;0;0.32000000000000001;0.68000000000000005;0.0;0.0;0;1.2665761339339952;28;71;22;2; nein
2019_02_22 10:00;5;2;0;timed;70;2;1;59;32;0;0;0.080000000000000002;0.92000000000000004;0.0;0.0;33;38;85;1;0.28999999999999998;0.050000000000000003;0.070000000000000007;0.58999999999999997;0;1.3499524189974181;28;71;22;2; nein
2019_02_22 10:00;5;2;0;timed;71;48;0;13;32;0;0;0.90000000000000002;0.10000000000000001;0.0;0.0;24;99;84;94;0.62;0.14999999999999999;0.20000000000000001;0.029999999999999999;1;1.6999417224933495;28;71;22;2; nein
2019_02_22 10:00;5;2;0;timed;72;41;0;99;40;0;0;0.89000000000000001;0.11;0.0;0.0;1;67;52;46;0.51000000000000001;0.38;0.029999999999999999;0.080000000000000002;0;1.4501002456509013;28;71;22;2; nein
2019_02_22 10:00;5;2;0;timed;73;36;0;70;17;0;0;0.33000000000000002;0.67000000000000004;0.0;0.0;84;1;12;88;0.22;0.27000000000000002;0.14000000000000001;0.37;0;1.6167139376257182;28;71;22;2; nein
2019_02_22 10:00;5;2;0;timed;74;39;0;14;33;0;0;0.78000000000000003;0.22;0.0;0.0;93;84;1;25;0.14000000000000001;0.23999999999999999;0.39000000000000001;0.23000000000000001;0;1.3833178151162429;28;71;22;2; nein
2019_02_22 10:00;5;2;0;timed;75;100;1;27;14;59;52;0.02;0.95999999999999996;0.01;0.01;17;98;0;0;0.48999999999999999;0.51000000000000001;0.0;0.0;0;1.8833349744263614;28;71;22;2; nein
2019_02_22 10:00;5;3;0;control;1;41;1;99;40;0;0;0.89000000000000001;0.11;0.0;0.0;1;67;52;46;0.51000000000000001;0.38;0.029999999999999999;0.080000000000000002;0;2.6686983075787793;28;71;22;2; nein
2019_02_22 10:00;5;3;0;control;2;72;0;63;82;51;61;0.01;0.96999999999999997;0.01;0.01;92;12;0;0;0.89000000000000001;0.11;0.0;0.0;0;1.9832881150769026;28;71;22;2; nein
2019_02_22 10:00;5;3;0;control;3;129;1;12;29;81;36;0.17999999999999999;0.79000000000000004;0.01;0.02;5;19;95;92;0.47999999999999998;0.26000000000000001;0.13;0.13;0;2.2332719981550326;28;71;22;2; nein
2019_02_22 10:00;5;3;0;control;4;53;1;26;70;50;80;0.29999999999999999;0.59999999999999998;0.040000000000000001;0.059999999999999998;89;1;0;0;0.40999999999999998;0.58999999999999997;0.0;0.0;0;3.4666411789439735;28;71;22;2; nein
2019_02_22 10:00;5;3;0;control;5;74;1;66;47;52;44;0.41999999999999998;0.26000000000000001;0.17999999999999999;0.14000000000000001;17;99;0;0;0.47999999999999998;0.52000000000000002;0.0;0.0;0;2.6666879420727128;28;71;22;2; nein
2019_02_22 10:00;5;3;0;control;6;118;1;62;52;65;68;0.40999999999999998;0.44;0.10000000000000001;0.0500000000000001;79;20;14;37;0.56999999999999995;0.23999999999999999;0.14000000000000001;0.050000000000000003;0;3.299956925321567;28;71;22;2; nein
2019_02_22 10:00;5;3;0;control;7;6;1;9;51;0;0;0.14999999999999999;0.84999999999999998;0.0;0.0;6;40;50;73;0.42999999999999999;0.26000000000000001;0.059999999999999998;0.25;1;1.3833559825534394;28;71;22;2; nein
2019_02_22 10:00;5;3;0;control;8;62;1;12;45;16;50;0.20999999999999999;0.76000000000000001;0.02;0.01;92;15;0;0;0.20999999999999999;0.79000000000000004;0.0;0.0;0;5.650066825088288;28;71;22;2; nein
2019_02_22 10:00;5;3;0;control;9;73;0;65;68;70;47;0.25;0.23000000000000001;0.20999999999999999;0.31;27;95;0;0;0.45000000000000001;0.55000000000000004;0.0;0.0;0;2.616667431084352;28;71;22;2; nein
2019_02_22 10:00;5;3;0;control;10;100;1;27;14;59;52;0.02;0.95999999999999996;0.01;0.01;17;98;0;0;0.48999999999999999;0.51000000000000001;0.0;0.0;1;5.950077313114889;28;71;22;2; nein
2019_02_22 10:00;5;3;0;control;11;113;0;85;65;39;64;0.44;0.34000000000000002;0.13;0.089999999999999997;87;2;4;35;0.67000000000000004;0.17000000000000001;0.11;0.049999999999999899;0;1.9499640937428921;28;71;22;2; nein
2019_02_22 10:00;5;3;0;control;12;16;0;64;53;0;0;0.65000000000000002;0.34999999999999998;0.0;0.0;29;17;81;46;0.10000000000000001;0.01;0.44;0.45000000000000001;0;2.699984059482631;28;71;22;2; nein
2019_02_22 10:00;5;3;0;control;13;81;0;67;38;52;65;0.27000000000000002;0.35999999999999999;0.01;0.35999999999999999;2;77;0;0;0.14000000000000001;0.85999999999999999;0.0;0.0;0;2.3999626664735842;28;71;22;2; nein
2019_02_22 10:00;5;3;0;control;14;37;1;14;98;0;0;0.93000000000000005;0.070000000000000007;0.0;0.0;41;2;87;66;0.17999999999999999;0.48999999999999999;0.32000000000000001;0.010000000000000101;0;4.416611366647885;28;71;22;2; nein
2019_02_22 10:00;5;3;0;control;15;65;1;75;64;59;52;0.59999999999999998;0.22;0.14000000000000001;0.040000000000000001;1;99;0;0;0.35999999999999999;0.64000000000000001;0.0;0.0;0;2.6167723113530883;28;71;22;2; nein
2019_02_22 10:00;5;3;0;control;16;97;1;17;33;32;74;0.94999999999999996;0.01;0.029999999999999999;0.01;76;23;0;0;0.33000000000000002;0.67000000000000004;0.0;0.0;0;3.3165953619827633;28;71;22;2; nein
2019_02_22 10:00;5;3;0;control;17;20;1;44;40;0;0;0.91000000000000003;0.089999999999999997;0.0;0.0;29;5;80;99;0.25;0.40000000000000002;0.26000000000000001;0.089999999999999997;0;4.7999541990748185;28;71;22;2; nein
2019_02_22 10:00;5;3;0;control;18;148;1;37;63;55;10;0.72999999999999998;0.070000000000000007;0.029999999999999999;0.17000000000000001;80;14;23;70;0.46999999999999997;0.10000000000000001;0.23000000000000001;0.20000000000000001;0;4.900205623057445;28;71;22;2; nein
2019_02_22 10:00;5;3;0;control;19;55;0;74;55;47;48;0.60999999999999999;0.31;0.070000000000000007;0.01;97;6;0;0;0.42999999999999999;0.56999999999999995;0.0;0.0;0;1.8000959638420682;28;71;22;2; nein
2019_02_22 10:00;5;3;0;control;20;120;0;64;40;48;51;0.19;0.02;0.070000000000000007;0.71999999999999997;97;9;79;94;0.23000000000000001;0.54000000000000004;0.01;0.22;0;1.9335065514887901;28;71;22;2; nein
2019_02_22 10:00;5;3;0;control;21;98;0;27;10;31;79;0.23000000000000001;0.67000000000000004;0.070000000000000007;0.029999999999999999;25;99;0;0;0.38;0.62;0.0;0.0;1;2.7838084110126147;28;71;22;2; nein
2019_02_22 10:00;5;3;0;control;22;135;0;48;60;41;51;0.14000000000000001;0.40000000000000002;0.089999999999999997;0.37;94;1;85;65;0.64000000000000001;0.29999999999999999;0.01;0.050000000000000003;0;1.6166180379304933;28;71;22;2; nein
2019_02_22 10:00;5;3;0;control;23;18;1;68;50;0;0;0.029999999999999999;0.96999999999999997;0.0;0.0;34;64;15;89;0.65000000000000002;0.029999999999999999;0.050000000000000003;0.27000000000000002;0;4.1166268581373515;28;71;22;2; nein
2019_02_22 10:00;5;3;0;control;24;47;1;2;40;0;0;0.45000000000000001;0.55000000000000004;0.0;0.0;93;89;11;56;0.58999999999999997;0.070000000000000007;0.28000000000000003;0.059999999999999998;1;1.6499779815585498;28;71;22;2; nein
2019_02_22 10:00;5;3;0;control;25;21;0;64;28;0;0;0.080000000000000002;0.92000000000000004;0.0;0.0;50;1;88;13;0.57999999999999996;0.13;0.02;0.27000000000000002;0;4.283264284484176;28;71;22;2; nein
2019_02_22 10:00;5;3;0;control;26;13;1;52;56;0;0;0.46999999999999997;0.53000000000000003;0.0;0.0;94;71;27;2;0.089999999999999997;0.31;0.57999999999999996;0.020000000000000101;0;2.383295363682919;28;71;22;2; nein
2019_02_22 10:00;5;3;0;control;27;91;0;74;81;86;48;0.93000000000000005;0.02;0.01;0.039999999999999897;7;64;0;0;0.13;0.87;0.0;0.0;0;1.4999642380735168;28;71;22;2; nein
2019_02_22 10:00;5;3;0;control;28;103;1;38;49;89;50;0.89000000000000001;0.070000000000000007;0.01;0.029999999999999999;6;64;99;27;0.70999999999999996;0.17999999999999999;0.059999999999999998;0.050000000000000003;0;1.9499583205179079;28;71;22;2; nein
2019_02_22 10:00;5;3;0;control;29;19;0;22;53;0;0;0.13;0.87;0.0;0.0;4;93;96;65;0.46999999999999997;0.059999999999999998;0.26000000000000001;0.20999999999999999;0;1.6833238128565426;28;71;22;2; nein
2019_02_22 10:00;5;3;0;control;30;80;0;47;39;45;10;0.13;0.76000000000000001;0.059999999999999998;0.050000000000000003;2;87;0;0;0.48999999999999999;0.51000000000000001;0.0;0.0;0;1.4333075355671099;28;71;22;2; nein
2019_02_22 10:00;5;3;0;control;31;69;0;54;34;64;49;0.34000000000000002;0.25;0.20999999999999999;0.20000000000000001;14;98;0;0;0.62;0.38;0.0;0.0;0;1.9667702746874056;28;71;22;2; nein
2019_02_22 10:00;5;3;0;control;32;57;1;52;35;23;47;0.22;0.68000000000000005;0.040000000000000001;0.059999999999999998;71;7;0;0;0.28999999999999998;0.70999999999999996;0.0;0.0;0;2.1665822599679814;28;71;22;2; nein
2019_02_22 10:00;5;3;0;control;33;84;0;43;10;5;45;0.78000000000000003;0.13;0.059999999999999998;0.029999999999999999;87;1;0;0;0.57999999999999996;0.41999999999999998;0.0;0.0;0;1.4832953316090425;28;71;22;2; nein
2019_02_22 10:00;5;3;0;control;34;58;1;37;58;76;34;0.20999999999999999;0.57999999999999996;0.19;0.020000000000000101;86;5;0;0;0.47999999999999998;0.52000000000000002;0.0;0.0;0;2.199956636659408;28;71;22;2; nein
2019_02_22 10:00;5;3;0;control;35;102;0;40;56;53;17;0.28000000000000003;0.26000000000000001;0.14999999999999999;0.31;1;76;29;62;0.68000000000000005;0.23000000000000001;0.050000000000000003;0.039999999999999897;0;1.7167094152655409;28;71;22;2; nein
2019_02_22 10:00;5;3;0;control;36;131;0;83;41;81;88;0.23999999999999999;0.58999999999999997;0.10000000000000001;0.070000000000000007;82;97;4;17;0.26000000000000001;0.46999999999999997;0.11;0.16;0;2.0167862953876465;28;71;22;2; nein
2019_02_22 10:00;5;3;0;control;37;64;0;48;39;34;19;0.46000000000000002;0.5;0.02;0.02;13;92;0;0;0.68999999999999995;0.31;0.0;0.0;0;2.13345773565743;28;71;22;2; nein
2019_02_22 10:00;5;3;0;control;38;125;1;37;41;10;35;0.91000000000000003;0.040000000000000001;0.029999999999999999;0.02;7;13;91;93;0.26000000000000001;0.39000000000000001;0.16;0.19;0;2.966607020691299;28;71;22;2; nein
2019_02_22 10:00;5;3;0;control;39;121;0;42;51;47;70;0.41999999999999998;0.17000000000000001;0.23999999999999999;0.17000000000000001;21;76;48;9;0.14999999999999999;0.34000000000000002;0.40999999999999998;0.10000000000000001;0;2.3166255110509155;28;71;22;2; nein
2019_02_22 10:00;5;3;0;control;40;109;1;75;28;16;56;0.19;0.070000000000000007;0.059999999999999998;0.68000000000000005;3;50;98;44;0.5;0.02;0.34999999999999998;0.13;0;3.283331638784148;28;71;22;2; nein
2019_02_22 10:00;5;3;0;control;41;4;1;40;43;0;0;0.58999999999999997;0.40999999999999998;0.0;0.0;2;33;88;81;0.69999999999999996;0.14000000000000001;0.13;0.029999999999999999;0;1.9001087611586627;28;71;22;2; nein
2019_02_22 10:00;5;3;0;control;42;23;0;54;40;0;0;0.93000000000000005;0.070000000000000007;0.0;0.0;36;23;71;86;0.02;0.41999999999999998;0.19;0.37;0;7.0166227206582334;28;71;22;2; nein
2019_02_22 10:00;5;3;0;control;43;111;0;51;36;48;27;0.93000000000000005;0.01;0.01;0.049999999999999899;31;78;30;53;0.55000000000000004;0.16;0.029999999999999999;0.26000000000000001;0;3.4999889346509008;28;71;22;2; nein
2019_02_22 10:00;5;3;0;control;44;133;0;59;88;60;36;0.67000000000000004;0.070000000000000007;0.12;0.14000000000000001;7;91;66;61;0.25;0.68999999999999995;0.01;0.0500000000000001;0;1.483367176196225;28;71;22;2; nein
2019_02_22 10:00;5;3;0;control;45;43;0;60;83;0;0;0.23000000000000001;0.77000000000000002;0.0;0.0;72;5;70;12;0.29999999999999999;0.40999999999999998;0.12;0.17000000000000001;0;1.5334675501408128;28;71;22;2; nein
2019_02_22 10:00;5;3;0;control;46;59;1;56;47;83;90;0.31;0.12;0.54000000000000004;0.029999999999999898;10;98;0;0;0.46999999999999997;0.53000000000000003;0.0;0.0;0;2.933306092260864;28;71;22;2; nein
2019_02_22 10:00;5;3;0;control;47;145;1;91;89;90;74;0.57999999999999996;0.29999999999999999;0.11;0.010000000000000101;2;75;84;39;0.32000000000000001;0.27000000000000002;0.39000000000000001;0.0199999999999999;0;1.6666565100658772;28;71;22;2; nein
2019_02_22 10:00;5;3;0;control;48;44;1;79;74;0;0;0.71999999999999997;0.28000000000000003;0.0;0.0;3;67;15;36;0.41999999999999998;0.53000000000000003;0.02;0.029999999999999999;0;1.7333500970707973;28;71;22;2; nein
2019_02_22 10:00;5;3;0;control;49;93;1;87;81;73;98;0.80000000000000004;0.040000000000000001;0.14999999999999999;0.0099999999999999499;5;71;0;0;0.51000000000000001;0.48999999999999999;0.0;0.0;0;2.650083824030844;28;71;22;2; nein
2019_02_22 10:00;5;3;0;control;50;127;0;89;26;62;79;0.02;0.28999999999999998;0.53000000000000003;0.16;96;6;60;13;0.53000000000000003;0.25;0.17000000000000001;0.050000000000000003;0;3.533337011092044;28;71;22;2; nein
2019_02_22 10:00;5;3;0;control;51;36;1;70;17;0;0;0.33000000000000002;0.67000000000000004;0.0;0.0;84;1;12;88;0.22;0.27000000000000002;0.14000000000000001;0.37;0;1.949890004012559;28;71;22;2; nein
2019_02_22 10:00;5;3;0;control;52;30;1;33;30;0;0;0.71999999999999997;0.28000000000000003;0.0;0.0;9;88;1;14;0.55000000000000004;0.39000000000000001;0.01;0.049999999999999899;0;2.033289381979557;28;71;22;2; nein
2019_02_22 10:00;5;3;0;control;53;45;0;97;87;0;0;0.71999999999999997;0.28000000000000003;0.0;0.0;96;11;14;4;0.25;0.029999999999999999;0.14000000000000001;0.57999999999999996;0;2.500143849541928;28;71;22;2; nein
2019_02_22 10:00;5;3;0;control;54;35;0;33;37;0;0;0.88;0.12;0.0;0.0;63;4;79;98;0.16;0.46000000000000002;0.17000000000000001;0.20999999999999999;0;4.26659698169351;28;71;22;2; nein
2019_02_22 10:00;5;3;0;control;55;66;1;89;23;27;15;0.070000000000000007;0.54000000000000004;0.17000000000000001;0.22;9;73;0;0;0.72999999999999998;0.27000000000000002;0.0;0.0;0;1.7502518569745007;28;71;22;2; nein
2019_02_22 10:00;5;3;0;control;56;33;0;27;70;0;0;0.88;0.12;0.0;0.0;93;3;77;16;0.080000000000000002;0.40000000000000002;0.5;0.02;0;1.5500995721076833;28;71;22;2; nein
2019_02_22 10:00;5;3;0;control;57;124;1;37;65;15;41;0.17999999999999999;0.45000000000000001;0.02;0.34999999999999998;40;7;98;30;0.070000000000000007;0.45000000000000001;0.45000000000000001;0.029999999999999898;0;1.9668645707079122;28;71;22;2; nein
2019_02_22 10:00;5;3;0;control;58;86;1;56;30;57;88;0.20000000000000001;0.35999999999999999;0.080000000000000002;0.35999999999999999;98;2;0;0;0.77000000000000002;0.23000000000000001;0.0;0.0;0;1.733306156407707;28;71;22;2; nein
2019_02_22 10:00;5;3;0;control;59;68;1;84;27;55;62;0.01;0.050000000000000003;0.40999999999999998;0.53000000000000003;9;82;0;0;0.37;0.63;0.0;0.0;0;2.766596179856606;28;71;22;2; nein
2019_02_22 10:00;5;3;0;control;60;48;0;13;32;0;0;0.90000000000000002;0.10000000000000001;0.0;0.0;24;99;84;94;0.62;0.14999999999999999;0.20000000000000001;0.029999999999999999;1;1.5834646474913825;28;71;22;2; nein
2019_02_22 10:00;5;3;0;control;61;51;0;52;23;43;16;0.60999999999999999;0.20999999999999999;0.01;0.17000000000000001;92;7;0;0;0.14999999999999999;0.84999999999999998;0.0;0.0;0;1.4666174445710567;28;71;22;2; nein
2019_02_22 10:00;5;3;0;control;62;144;1;99;93;90;71;0.65000000000000002;0.32000000000000001;0.01;0.02;97;14;48;73;0.23000000000000001;0.46000000000000002;0.13;0.17999999999999999;0;1.9833692609718128;28;71;22;2; nein
2019_02_22 10:00;5;3;0;control;63;25;0;50;53;0;0;0.82999999999999996;0.17000000000000001;0.0;0.0;83;16;97;4;0.45000000000000001;0.29999999999999999;0.11;0.14000000000000001;0;3.4666267458796938;28;71;22;2; nein
2019_02_22 10:00;5;3;0;control;64;94;0;84;86;93;39;0.78000000000000003;0.20000000000000001;0.01;0.0099999999999999603;9;83;0;0;0.46999999999999997;0.53000000000000003;0.0;0.0;0;2.1001019615814585;28;71;22;2; nein
2019_02_22 10:00;5;3;0;control;65;116;0;53;65;43;99;0.56999999999999995;0.37;0.050000000000000003;0.010000000000000101;57;72;11;87;0.67000000000000004;0.13;0.14999999999999999;0.050000000000000003;0;2.4999097131640156;28;71;22;2; nein
2019_02_22 10:00;5;3;0;control;66;130;0;37;79;23;95;0.94999999999999996;0.029999999999999999;0.01;0.01;94;4;58;49;0.46000000000000002;0.5;0.029999999999999999;0.01;0;2.283300527512438;28;71;22;2; nein
2019_02_22 10:00;5;3;0;control;67;77;0;24;17;99;41;0.17999999999999999;0.13;0.10000000000000001;0.58999999999999997;12;97;0;0;0.59999999999999998;0.40000000000000002;0.0;0.0;0;7.1001199227284815;28;71;22;2; nein
2019_02_22 10:00;5;3;0;control;68;104;1;55;85;93;3;0.87;0.02;0.089999999999999997;0.02;1;2;90;8;0.35999999999999999;0.070000000000000007;0.40000000000000002;0.17000000000000001;0;5.050013454822874;28;71;22;2; nein
2019_02_22 10:00;5;3;0;control;69;138;0;8;20;43;51;0.38;0.5;0.02;0.10000000000000001;72;82;70;1;0.39000000000000001;0.050000000000000003;0.070000000000000007;0.48999999999999999;0;1.866743685774054;28;71;22;2; nein
2019_02_22 10:00;5;3;0;control;70;26;1;76;41;0;0;0.57999999999999996;0.41999999999999998;0.0;0.0;61;79;84;2;0.13;0.029999999999999999;0.67000000000000004;0.17000000000000001;0;2.6999391566150734;28;71;22;2; nein
2019_02_22 10:00;5;3;0;control;71;76;1;39;62;9;28;0.01;0.51000000000000001;0.26000000000000001;0.22;77;7;0;0;0.57999999999999996;0.41999999999999998;0.0;0.0;0;3.133260804512247;28;71;22;2; nein
2019_02_22 10:00;5;3;0;control;72;143;0;88;44;56;73;0.95999999999999996;0.02;0.01;0.01;20;3;87;32;0.19;0.40000000000000002;0.28000000000000003;0.13;0;2.9999647191752956;28;71;22;2; nein
2019_02_22 10:00;5;3;0;control;73;10;1;45;62;0;0;0.059999999999999998;0.93999999999999995;0.0;0.0;17;99;28;67;0.58999999999999997;0.34000000000000002;0.01;0.059999999999999998;0;2.633454367943159;28;71;22;2; nein
2019_02_22 10:00;5;3;0;control;74;114;1;57;39;79;97;0.77000000000000002;0.02;0.13;0.080000000000000002;92;36;6;1;0.54000000000000004;0.12;0.13;0.20999999999999999;0;2.4000357940003596;28;71;22;2; nein
2019_02_22 10:00;5;3;0;control;75;60;0;64;59;57;96;0.83999999999999997;0.13;0.02;0.01;83;6;0;0;0.54000000000000004;0.46000000000000002;0.0;0.0;0;2.333307888376112;28;71;22;2; nein
2019_02_22 10:00;5;4;0;timed;1;57;0;52;35;23;47;0.22;0.68000000000000005;0.040000000000000001;0.059999999999999998;71;7;0;0;0.28999999999999998;0.70999999999999996;0.0;0.0;1;0.40453089172933687;28;71;22;2; nein
2019_02_22 10:00;5;4;0;timed;2;130;1;37;79;23;95;0.94999999999999996;0.029999999999999999;0.01;0.01;94;4;58;49;0.46000000000000002;0.5;0.029999999999999999;0.01;0;1.6498936283151124;28;71;22;2; nein
2019_02_22 10:00;5;4;0;timed;3;141;1;93;28;60;91;0.81999999999999995;0.10000000000000001;0.01;0.070000000000000007;14;85;7;89;0.45000000000000001;0.070000000000000007;0.23999999999999999;0.23999999999999999;0;1.299978093815298;28;71;22;2; nein
2019_02_22 10:00;5;4;0;timed;4;95;0;93;88;68;85;0.83999999999999997;0.14000000000000001;0.01;0.01;2;82;0;0;0.41999999999999998;0.57999999999999996;0.0;0.0;0;1.1500179130362085;28;71;22;2; nein
2019_02_22 10:00;5;4;0;timed;5;47;1;2;40;0;0;0.45000000000000001;0.55000000000000004;0.0;0.0;93;89;11;56;0.58999999999999997;0.070000000000000007;0.28000000000000003;0.059999999999999998;1;1.1332887084363392;28;71;22;2; nein
2019_02_22 10:00;5;4;0;timed;6;67;1;44;42;8;89;0.88;0.070000000000000007;0.029999999999999999;0.02;10;63;0;0;0.39000000000000001;0.60999999999999999;0.0;0.0;1;1.4498968998104829;28;71;22;2; nein
2019_02_22 10:00;5;4;0;timed;7;20;1;44;40;0;0;0.91000000000000003;0.089999999999999997;0.0;0.0;29;5;80;99;0.25;0.40000000000000002;0.26000000000000001;0.089999999999999997;0;1.3332873613508127;28;71;22;2; nein
2019_02_22 10:00;5;4;0;timed;8;129;0;12;29;81;36;0.17999999999999999;0.79000000000000004;0.01;0.02;5;19;95;92;0.47999999999999998;0.26000000000000001;0.13;0.13;0;1.5333171255369962;28;71;22;2; nein
2019_02_22 10:00;5;4;0;timed;9;65;0;75;64;59;52;0.59999999999999998;0.22;0.14000000000000001;0.040000000000000001;1;99;0;0;0.35999999999999999;0.64000000000000001;0.0;0.0;0;1.1666037491968382;28;71;22;2; nein
2019_02_22 10:00;5;4;0;timed;10;34;0;32;48;0;0;0.28000000000000003;0.71999999999999997;0.0;0.0;97;83;7;62;0.040000000000000001;0.54000000000000004;0.35999999999999999;0.059999999999999901;0;1.3666200425232091;28;71;22;2; nein
2019_02_22 10:00;5;4;0;timed;11;113;1;85;65;39;64;0.44;0.34000000000000002;0.13;0.089999999999999997;87;2;4;35;0.67000000000000004;0.17000000000000001;0.11;0.049999999999999899;0;1.2833063007383316;28;71;22;2; nein
2019_02_22 10:00;5;4;0;timed;12;18;0;68;50;0;0;0.029999999999999999;0.96999999999999997;0.0;0.0;34;64;15;89;0.65000000000000002;0.029999999999999999;0.050000000000000003;0.27000000000000002;1;1.3500896934774573;28;71;22;2; nein
2019_02_22 10:00;5;4;0;timed;13;107;1;52;48;13;63;0.68000000000000005;0.19;0.050000000000000003;0.079999999999999905;54;91;33;3;0.19;0.17999999999999999;0.33000000000000002;0.29999999999999999;1;1.2998940613069863;28;71;22;2; nein
2019_02_22 10:00;5;4;0;timed;14;87;1;10;30;63;4;0.56999999999999995;0.12;0.16;0.14999999999999999;86;2;0;0;0.42999999999999999;0.56999999999999995;0.0;0.0;0;1.4665561842311945;28;71;22;2; nein
2019_02_22 10:00;5;4;0;timed;15;58;1;37;58;76;34;0.20999999999999999;0.57999999999999996;0.19;0.020000000000000101;86;5;0;0;0.47999999999999998;0.52000000000000002;0.0;0.0;0;1.3166113987208519;28;71;22;2; nein
2019_02_22 10:00;5;4;0;timed;16;92;0;90;86;65;94;0.16;0.34000000000000002;0.28000000000000003;0.22;79;22;0;0;0.35999999999999999;0.64000000000000001;0.0;0.0;0;1.4332712925388478;28;71;22;2; nein
2019_02_22 10:00;5;4;0;timed;17;77;0;24;17;99;41;0.17999999999999999;0.13;0.10000000000000001;0.58999999999999997;12;97;0;0;0.59999999999999998;0.40000000000000002;0.0;0.0;0;1.1999627306204275;28;71;22;2; nein
2019_02_22 10:00;5;4;0;timed;18;86;0;56;30;57;88;0.20000000000000001;0.35999999999999999;0.080000000000000002;0.35999999999999999;98;2;0;0;0.77000000000000002;0.23000000000000001;0.0;0.0;0;1.1832469968803707;28;71;22;2; nein
2019_02_22 10:00;5;4;0;timed;19;145;0;91;89;90;74;0.57999999999999996;0.29999999999999999;0.11;0.010000000000000101;2;75;84;39;0.32000000000000001;0.27000000000000002;0.39000000000000001;0.0199999999999999;0;1.5666100355983872;28;71;22;2; nein
2019_02_22 10:00;5;4;0;timed;20;142;0;98;65;64;84;0.88;0.070000000000000007;0.01;0.040000000000000001;5;68;60;16;0.46000000000000002;0.080000000000000002;0.27000000000000002;0.19;0;1.5832824701446953;28;71;22;2; nein
2019_02_22 10:00;5;4;0;timed;21;140;1;36;32;26;27;0.39000000000000001;0.14999999999999999;0.19;0.27000000000000002;44;3;99;25;0.29999999999999999;0.34000000000000002;0.34000000000000002;0.0199999999999999;0;1.5832847152887553;28;71;22;2; nein
2019_02_22 10:00;5;4;0;timed;22;139;1;44;31;16;8;0.79000000000000004;0.070000000000000007;0.13;0.0099999999999999499;92;58;2;88;0.55000000000000004;0.070000000000000007;0.34000000000000002;0.039999999999999897;1;1.4000585661678997;28;71;22;2; nein
2019_02_22 10:00;5;4;0;timed;23;102;1;40;56;53;17;0.28000000000000003;0.26000000000000001;0.14999999999999999;0.31;1;76;29;62;0.68000000000000005;0.23000000000000001;0.050000000000000003;0.039999999999999897;0;1.1334538868404707;28;71;22;2; nein
2019_02_22 10:00;5;4;0;timed;24;4;0;40;43;0;0;0.58999999999999997;0.40999999999999998;0.0;0.0;2;33;88;81;0.69999999999999996;0.14000000000000001;0.13;0.029999999999999999;0;1.6999673812742913;28;71;22;2; nein
2019_02_22 10:00;5;4;0;timed;25;143;0;88;44;56;73;0.95999999999999996;0.02;0.01;0.01;20;3;87;32;0.19;0.40000000000000002;0.28000000000000003;0.13;0;1.349987379086997;28;71;22;2; nein
2019_02_22 10:00;5;4;0;timed;26;50;1;15;20;0;0;0.82999999999999996;0.17000000000000001;0.0;0.0;97;18;88;87;0.56999999999999995;0.39000000000000001;0.01;0.029999999999999999;1;1.2665514373566111;28;71;22;2; nein
2019_02_22 10:00;5;4;0;timed;27;38;1;40;70;0;0;0.53000000000000003;0.46999999999999997;0.0;0.0;97;90;6;96;0.56999999999999995;0.070000000000000007;0.27000000000000002;0.089999999999999997;0;1.3001365367890685;28;71;22;2; nein
2019_02_22 10:00;5;4;0;timed;28;31;1;10;59;0;0;0.23999999999999999;0.76000000000000001;0.0;0.0;1;79;53;73;0.23000000000000001;0.58999999999999997;0.050000000000000003;0.13;0;1.4501031322633935;28;71;22;2; nein
2019_02_22 10:00;5;4;0;timed;29;66;1;89;23;27;15;0.070000000000000007;0.54000000000000004;0.17000000000000001;0.22;9;73;0;0;0.72999999999999998;0.27000000000000002;0.0;0.0;0;1.2832841700401332;28;71;22;2; nein
2019_02_22 10:00;5;4;0;timed;30;79;0;52;46;29;22;0.17999999999999999;0.51000000000000001;0.23999999999999999;0.070000000000000104;93;14;0;0;0.45000000000000001;0.55000000000000004;0.0;0.0;0;1.2334073482261374;28;71;22;2; nein
2019_02_22 10:00;5;4;0;timed;31;42;1;70;48;0;0;0.79000000000000004;0.20999999999999999;0.0;0.0;51;8;12;67;0.19;0.26000000000000001;0.28999999999999998;0.26000000000000001;0;1.099925557460665;28;71;22;2; nein
2019_02_22 10:00;5;4;0;timed;32;116;0;53;65;43;99;0.56999999999999995;0.37;0.050000000000000003;0.010000000000000101;57;72;11;87;0.67000000000000004;0.13;0.14999999999999999;0.050000000000000003;0;1.4166261204472903;28;71;22;2; nein
2019_02_22 10:00;5;4;0;timed;33;96;1;51;54;39;7;0.17000000000000001;0.26000000000000001;0.10000000000000001;0.46999999999999997;24;96;0;0;0.28000000000000003;0.71999999999999997;0.0;0.0;1;1.433511202142654;28;71;22;2; nein
2019_02_22 10:00;5;4;0;timed;34;59;1;56;47;83;90;0.31;0.12;0.54000000000000004;0.029999999999999898;10;98;0;0;0.46999999999999997;0.53000000000000003;0.0;0.0;0;1.133598217485087;28;71;22;2; nein
2019_02_22 10:00;5;4;0;timed;35;89;0;26;41;13;56;0.059999999999999998;0.40999999999999998;0.050000000000000003;0.47999999999999998;5;97;0;0;0.37;0.63;0.0;0.0;0;1.1332646533292063;28;71;22;2; nein
2019_02_22 10:00;5;4;0;timed;36;17;0;81;52;0;0;0.059999999999999998;0.93999999999999995;0.0;0.0;34;3;69;41;0.01;0.22;0.75;0.02;0;1.3332854369409688;28;71;22;2; nein
2019_02_22 10:00;5;4;0;timed;37;112;0;70;44;98;64;0.02;0.75;0.12;0.11;33;2;63;85;0.23999999999999999;0.31;0.080000000000000002;0.37;0;1.300089709513486;28;71;22;2; nein
2019_02_22 10:00;5;4;0;timed;38;146;0;25;5;64;35;0.94999999999999996;0.02;0.01;0.02;47;97;12;79;0.20999999999999999;0.029999999999999999;0.02;0.73999999999999999;1;1.3332289876225332;28;71;22;2; nein
2019_02_22 10:00;5;4;0;timed;39;19;0;22;53;0;0;0.13;0.87;0.0;0.0;4;93;96;65;0.46999999999999997;0.059999999999999998;0.26000000000000001;0.20999999999999999;0;1.3667002262145616;28;71;22;2; nein
2019_02_22 10:00;5;4;0;timed;40;70;0;66;55;69;50;0.22;0.29999999999999999;0.29999999999999999;0.17999999999999999;2;90;0;0;0.34000000000000002;0.66000000000000003;0.0;0.0;0;1.1999293742046575;28;71;22;2; nein
2019_02_22 10:00;5;4;0;timed;41;76;0;39;62;9;28;0.01;0.51000000000000001;0.26000000000000001;0.22;77;7;0;0;0.57999999999999996;0.41999999999999998;0.0;0.0;0;1.200012444508502;28;71;22;2; nein
2019_02_22 10:00;5;4;0;timed;42;29;1;44;51;0;0;0.78000000000000003;0.22;0.0;0.0;74;1;68;82;0.69999999999999996;0.28000000000000003;0.01;0.01;0;1.1832306394071566;28;71;22;2; nein
2019_02_22 10:00;5;4;0;timed;43;11;0;17;36;0;0;0.14000000000000001;0.85999999999999999;0.0;0.0;19;41;34;95;0.88;0.02;0.050000000000000003;0.050000000000000003;0;1.3666248535446357;28;71;22;2; nein
2019_02_22 10:00;5;4;0;timed;44;14;1;36;40;0;0;0.54000000000000004;0.46000000000000002;0.0;0.0;99;70;1;11;0.16;0.089999999999999997;0.080000000000000002;0.67000000000000004;0;1.549977372162175;28;71;22;2; nein
2019_02_22 10:00;5;4;0;timed;45;78;1;74;36;34;3;0.14999999999999999;0.64000000000000001;0.13;0.080000000000000002;1;83;0;0;0.41999999999999998;0.57999999999999996;0.0;0.0;1;1.2666627323196735;28;71;22;2; nein
2019_02_22 10:00;5;4;0;timed;46;24;0;35;27;0;0;0.070000000000000007;0.93000000000000005;0.0;0.0;62;3;81;95;0.35999999999999999;0.55000000000000004;0.01;0.080000000000000002;0;1.700075468889736;28;71;22;2; nein
2019_02_22 10:00;5;4;0;timed;47;33;0;27;70;0;0;0.88;0.12;0.0;0.0;93;3;77;16;0.080000000000000002;0.40000000000000002;0.5;0.02;0;1.5498994336148826;28;71;22;2; nein
2019_02_22 10:00;5;4;0;timed;48;148;0;37;63;55;10;0.72999999999999998;0.070000000000000007;0.029999999999999999;0.17000000000000001;80;14;23;70;0.46999999999999997;0.10000000000000001;0.23000000000000001;0.20000000000000001;1;1.5162675069068428;28;71;22;2; nein
2019_02_22 10:00;5;4;0;timed;49;91;0;74;81;86;48;0.93000000000000005;0.02;0.01;0.039999999999999897;7;64;0;0;0.13;0.87;0.0;0.0;0;1.3666424939574426;28;71;22;2; nein
2019_02_22 10:00;5;4;0;timed;50;136;0;29;67;14;75;0.46000000000000002;0.29999999999999999;0.20999999999999999;0.0300000000000001;70;86;1;85;0.31;0.39000000000000001;0.27000000000000002;0.029999999999999898;0;1.4165501063071133;28;71;22;2; nein
2019_02_22 10:00;5;4;0;timed;51;106;1;85;69;22;61;0.10000000000000001;0.58999999999999997;0.17999999999999999;0.13;20;79;91;84;0.55000000000000004;0.14999999999999999;0.26000000000000001;0.039999999999999897;0;1.4166402327764445;28;71;22;2; nein
2019_02_22 10:00;5;4;0;timed;52;135;0;48;60;41;51;0.14000000000000001;0.40000000000000002;0.089999999999999997;0.37;94;1;85;65;0.64000000000000001;0.29999999999999999;0.01;0.050000000000000003;0;1.5666257516013502;28;71;22;2; nein
2019_02_22 10:00;5;4;0;timed;53;132;0;27;70;21;19;0.64000000000000001;0.23000000000000001;0.029999999999999999;0.10000000000000001;11;85;55;6;0.39000000000000001;0.46999999999999997;0.029999999999999999;0.11;0;1.383303061317747;28;71;22;2; nein
2019_02_22 10:00;5;4;0;timed;54;101;1;30;96;61;45;0.65000000000000002;0.14000000000000001;0.11;0.10000000000000001;3;98;63;89;0.75;0.19;0.040000000000000001;0.02;0;1.6167229181983203;28;71;22;2; nein
2019_02_22 10:00;5;4;0;timed;55;62;1;12;45;16;50;0.20999999999999999;0.76000000000000001;0.02;0.01;92;15;0;0;0.20999999999999999;0.79000000000000004;0.0;0.0;0;2.1499547282883213;28;71;22;2; nein
2019_02_22 10:00;5;4;0;timed;56;54;0;44;79;78;52;0.79000000000000004;0.19;0.01;0.0099999999999999603;96;1;0;0;0.28000000000000003;0.71999999999999997;0.0;0.0;0;1.3499716630831244;28;71;22;2; nein
2019_02_22 10:00;5;4;0;timed;57;111;0;51;36;48;27;0.93000000000000005;0.01;0.01;0.049999999999999899;31;78;30;53;0.55000000000000004;0.16;0.029999999999999999;0.26000000000000001;1;1.683436711493414;28;71;22;2; nein
2019_02_22 10:00;5;4;0;timed;58;84;0;43;10;5;45;0.78000000000000003;0.13;0.059999999999999998;0.029999999999999999;87;1;0;0;0.57999999999999996;0.41999999999999998;0.0;0.0;0;1.1333605530235218;28;71;22;2; nein
2019_02_22 10:00;5;4;0;timed;59;16;0;64;53;0;0;0.65000000000000002;0.34999999999999998;0.0;0.0;29;17;81;46;0.10000000000000001;0.01;0.44;0.45000000000000001;1;1.2499425082933158;28;71;22;2; nein
2019_02_22 10:00;5;4;0;timed;60;75;0;67;80;36;81;0.81999999999999995;0.080000000000000002;0.059999999999999998;0.040000000000000001;3;97;0;0;0.32000000000000001;0.68000000000000005;0.0;0.0;0;1.200188207159954;28;71;22;2; nein
2019_02_22 10:00;5;4;0;timed;61;131;1;83;41;81;88;0.23999999999999999;0.58999999999999997;0.10000000000000001;0.070000000000000007;82;97;4;17;0.26000000000000001;0.46999999999999997;0.11;0.16;0;1.3832684219623843;28;71;22;2; nein
2019_02_22 10:00;5;4;0;timed;62;44;1;79;74;0;0;0.71999999999999997;0.28000000000000003;0.0;0.0;3;67;15;36;0.41999999999999998;0.53000000000000003;0.02;0.029999999999999999;0;1.6333735427815554;28;71;22;2; nein
2019_02_22 10:00;5;4;0;timed;63;122;1;35;58;25;31;0.81999999999999995;0.070000000000000007;0.080000000000000002;0.029999999999999999;18;64;68;89;0.63;0.17000000000000001;0.11;0.089999999999999997;0;1.316833026443419;28;71;22;2; nein
2019_02_22 10:00;5;4;0;timed;64;72;0;63;82;51;61;0.01;0.96999999999999997;0.01;0.01;92;12;0;0;0.89000000000000001;0.11;0.0;0.0;0;1.5667716859197753;28;71;22;2; nein
2019_02_22 10:00;5;4;0;timed;65;98;1;27;10;31;79;0.23000000000000001;0.67000000000000004;0.070000000000000007;0.029999999999999999;25;99;0;0;0.38;0.62;0.0;0.0;0;1.78327951938536;28;71;22;2; nein
2019_02_22 10:00;5;4;0;timed;66;15;0;77;81;0;0;0.28000000000000003;0.71999999999999997;0.0;0.0;98;14;87;18;0.55000000000000004;0.23000000000000001;0.16;0.059999999999999901;1;1.8999609024313031;28;71;22;2; nein
2019_02_22 10:00;5;4;0;timed;67;121;1;42;51;47;70;0.41999999999999998;0.17000000000000001;0.23999999999999999;0.17000000000000001;21;76;48;9;0.14999999999999999;0.34000000000000002;0.40999999999999998;0.10000000000000001;0;1.5666482030355837;28;71;22;2; nein
2019_02_22 10:00;5;4;0;timed;68;53;1;26;70;50;80;0.29999999999999999;0.59999999999999998;0.040000000000000001;0.059999999999999998;89;1;0;0;0.40999999999999998;0.58999999999999997;0.0;0.0;0;1.3002070984375678;28;71;22;2; nein
2019_02_22 10:00;5;4;0;timed;69;133;1;59;88;60;36;0.67000000000000004;0.070000000000000007;0.12;0.14000000000000001;7;91;66;61;0.25;0.68999999999999995;0.01;0.0500000000000001;0;1.3335971911337765;28;71;22;2; nein
2019_02_22 10:00;5;4;0;timed;70;32;0;19;81;0;0;0.93000000000000005;0.070000000000000007;0.0;0.0;1;65;41;68;0.45000000000000001;0.050000000000000003;0.059999999999999998;0.44;0;1.3998946707024515;28;71;22;2; nein
2019_02_22 10:00;5;4;0;timed;71;6;1;9;51;0;0;0.14999999999999999;0.84999999999999998;0.0;0.0;6;40;50;73;0.42999999999999999;0.26000000000000001;0.059999999999999998;0.25;1;1.1832867679904666;28;71;22;2; nein
2019_02_22 10:00;5;4;0;timed;72;69;0;54;34;64;49;0.34000000000000002;0.25;0.20999999999999999;0.20000000000000001;14;98;0;0;0.62;0.38;0.0;0.0;1;1.266627130760753;28;71;22;2; nein
2019_02_22 10:00;5;4;0;timed;73;150;0;25;21;78;38;0.84999999999999998;0.059999999999999998;0.050000000000000003;0.040000000000000001;31;43;64;95;0.059999999999999998;0.45000000000000001;0.13;0.35999999999999999;1;1.433347948147457;28;71;22;2; nein
2019_02_22 10:00;5;4;0;timed;74;80;0;47;39;45;10;0.13;0.76000000000000001;0.059999999999999998;0.050000000000000003;2;87;0;0;0.48999999999999999;0.51000000000000001;0.0;0.0;0;1.3835615735370084;28;71;22;2; nein
2019_02_22 10:00;5;4;0;timed;75;85;1;31;22;82;50;0.11;0.69999999999999996;0.01;0.17999999999999999;3;99;0;0;0.62;0.38;0.0;0.0;0;1.1333066695833622;28;71;22;2; nein
