date;id;block;order;cond;trial;gameid;leftright;oa1;oa2;oa3;oa4;pa1;pa2;pa3;pa4;ob1;ob2;ob3;ob4;pb1;pb2;pb3;pb4;choice;rt;paytrial;payout;alter;geschlecht;comment
2019_03_21 12:10;43;0;0;practice;1;45;0;37;40;75;23;0.54000000000000004;0.38;0.059999999999999998;0.02;1;90;0;0;0.28000000000000003;0.71999999999999997;0.0;0.0;0;14.408581431358925;48;14;21;2;nein
2019_03_21 12:10;43;0;0;practice;2;61;1;51;48;56;88;0.91000000000000003;0.02;0.01;0.059999999999999998;78;21;14;82;0.55000000000000004;0.29999999999999999;0.070000000000000007;0.080000000000000002;1;14.559529414481403;48;14;21;2;nein
2019_03_21 12:10;43;0;0;practice;3;24;1;19;38;0;0;0.89000000000000001;0.11;0.0;0.0;45;76;95;57;0.29999999999999999;0.22;0.40000000000000002;0.080000000000000002;1;5.7137044786572915;48;14;21;2;nein
2019_03_21 12:10;43;0;0;practice;4;10;1;34;59;0;0;0.16;0.83999999999999997;0.0;0.0;21;61;96;7;0.19;0.01;0.5;0.29999999999999999;1;3.872530939823946;48;14;21;2;nein
2019_03_21 12:10;43;0;0;practice;5;3;1;20;70;0;0;0.13;0.87;0.0;0.0;95;19;80;73;0.31;0.57999999999999996;0.029999999999999999;0.080000000000000002;0;3.031977672781295;48;14;21;2;nein
2019_03_21 12:10;43;0;0;practice;6;20;0;32;11;0;0;0.40999999999999998;0.58999999999999997;0.0;0.0;1;86;42;65;0.45000000000000001;0.38;0.050000000000000003;0.12;0;6.754501300197489;48;14;21;2;nein
2019_03_21 12:10;43;0;0;practice;7;46;1;79;57;98;81;0.67000000000000004;0.070000000000000007;0.20999999999999999;0.050000000000000003;1;76;0;0;0.56000000000000005;0.44;0.0;0.0;0;5.313445080609654;48;14;21;2;nein
2019_03_21 12:10;43;0;0;practice;8;38;0;51;89;10;60;0.57999999999999996;0.029999999999999999;0.080000000000000002;0.31;8;84;0;0;0.33000000000000002;0.67000000000000004;0.0;0.0;1;3.9526595355721383;48;14;21;2;nein
2019_03_21 12:10;43;0;0;practice;9;44;0;69;48;22;63;0.39000000000000001;0.40999999999999998;0.19;0.01;1;94;0;0;0.22;0.78000000000000003;0.0;0.0;1;5.833874601185016;48;14;21;2;nein
2019_03_21 12:10;43;0;0;practice;10;29;0;66;40;92;49;0.46999999999999997;0.10000000000000001;0.34000000000000002;0.089999999999999997;8;94;0;0;0.44;0.56000000000000005;0.0;0.0;1;3.87262523139907;48;14;21;2;nein
2019_03_21 12:10;43;0;0;practice;11;6;0;42;59;0;0;0.35999999999999999;0.64000000000000001;0.0;0.0;77;19;6;7;0.44;0.14999999999999999;0.17999999999999999;0.23000000000000001;0;8.515585050359277;48;14;21;2;nein
2019_03_21 12:10;43;0;0;practice;12;52;0;17;61;57;59;0.070000000000000007;0.050000000000000003;0.33000000000000002;0.55000000000000004;12;93;94;62;0.71999999999999997;0.16;0.080000000000000002;0.040000000000000001;0;5.573593612291006;48;14;21;2;nein
2019_03_21 12:10;43;0;0;practice;13;54;1;69;80;22;55;0.27000000000000002;0.31;0.059999999999999998;0.35999999999999999;52;2;49;90;0.059999999999999998;0.33000000000000002;0.20000000000000001;0.40999999999999998;1;6.574267444262205;48;14;21;2;nein
2019_03_21 12:10;43;0;0;practice;14;5;1;23;58;0;0;0.71999999999999997;0.28000000000000003;0.0;0.0;94;12;52;3;0.11;0.84999999999999998;0.029999999999999999;0.01;0;8.975886372878904;48;14;21;2;nein
2019_03_21 12:10;43;0;0;practice;15;15;1;24;59;0;0;0.56999999999999995;0.42999999999999999;0.0;0.0;9;8;80;22;0.31;0.10000000000000001;0.55000000000000004;0.039999999999999897;1;3.8726316457921257;48;14;21;2;nein
2019_03_21 12:10;43;0;0;practice;16;21;0;59;69;0;0;0.34000000000000002;0.66000000000000003;0.0;0.0;64;18;5;24;0.14999999999999999;0.040000000000000001;0.51000000000000001;0.29999999999999999;0;2.991900866840979;48;14;21;2;nein
2019_03_21 12:10;43;0;0;practice;17;75;0;21;86;27;62;0.88;0.040000000000000001;0.070000000000000007;0.0099999999999999794;13;3;49;87;0.28999999999999998;0.39000000000000001;0.070000000000000007;0.25;0;13.969072363331634;48;14;21;2;nein
2019_03_21 12:10;43;0;0;practice;18;65;0;35;15;77;1;0.62;0.33000000000000002;0.029999999999999999;0.02;68;3;25;96;0.38;0.28000000000000003;0.28000000000000003;0.059999999999999901;0;10.496869134839471;48;14;21;2;nein
2019_03_21 12:10;43;0;0;practice;19;67;1;74;31;10;77;0.11;0.070000000000000007;0.77000000000000002;0.050000000000000003;2;23;8;97;0.56999999999999995;0.01;0.059999999999999998;0.35999999999999999;0;8.605733889931798;48;14;21;2;nein
2019_03_21 12:10;43;0;0;practice;20;36;0;56;89;86;77;0.66000000000000003;0.080000000000000002;0.14999999999999999;0.11;29;91;0;0;0.40999999999999998;0.58999999999999997;0.0;0.0;1;6.474439606566875;48;14;21;2;nein
2019_03_21 12:10;43;0;0;practice;21;58;1;44;50;85;42;0.38;0.57999999999999996;0.02;0.02;37;88;19;12;0.20000000000000001;0.29999999999999999;0.46000000000000002;0.040000000000000001;0;11.197437899055558;48;14;21;2;nein
2019_03_21 12:10;43;0;0;practice;22;41;1;19;54;51;8;0.76000000000000001;0.070000000000000007;0.16;0.0099999999999999794;2;77;0;0;0.54000000000000004;0.46000000000000002;0.0;0.0;0;3.4422518624189706;48;14;21;2;nein
2019_03_21 12:10;43;0;0;practice;23;59;1;13;27;48;51;0.56999999999999995;0.13;0.13;0.17000000000000001;8;37;97;1;0.65000000000000002;0.16;0.14999999999999999;0.040000000000000001;0;6.3341170652356595;48;14;21;2;nein
2019_03_21 12:10;43;0;0;practice;24;60;0;39;93;27;78;0.85999999999999999;0.02;0.11;0.01;22;5;62;95;0.059999999999999998;0.56999999999999995;0.14000000000000001;0.23000000000000001;0;6.3641454040232475;48;14;21;2;nein
2019_03_21 12:10;43;0;0;practice;25;8;1;20;44;0;0;0.26000000000000001;0.73999999999999999;0.0;0.0;99;3;69;24;0.20999999999999999;0.60999999999999999;0.12;0.060000000000000102;0;2.631669846067325;48;14;21;2;nein
2019_03_21 12:10;43;0;0;practice;26;68;1;39;58;40;8;0.48999999999999999;0.44;0.02;0.050000000000000003;92;83;51;2;0.57999999999999996;0.13;0.02;0.27000000000000002;1;8.215570104823883;48;14;21;2;nein
2019_03_21 12:10;43;0;0;practice;27;34;1;57;23;66;79;0.56000000000000005;0.23000000000000001;0.13;0.079999999999999905;85;9;0;0;0.56000000000000005;0.44;0.0;0.0;0;4.362939177443877;48;14;21;2;nein
2019_03_21 12:10;43;0;0;practice;28;69;0;38;74;27;73;0.22;0.19;0.45000000000000001;0.14000000000000001;1;97;79;84;0.28000000000000003;0.45000000000000001;0.17000000000000001;0.10000000000000001;1;9.175997470163566;48;14;21;2;nein
2019_03_21 12:10;43;0;0;practice;29;72;1;86;85;97;43;0.51000000000000001;0.14999999999999999;0.33000000000000002;0.0099999999999999499;72;29;10;90;0.01;0.11;0.65000000000000002;0.23000000000000001;0;4.00271649538081;48;14;21;2;nein
2019_03_21 12:10;43;0;0;practice;30;47;1;91;99;90;78;0.93000000000000005;0.040000000000000001;0.02;0.0099999999999999499;10;87;0;0;0.23000000000000001;0.77000000000000002;0.0;0.0;0;6.79458131333422;48;14;21;2;nein
2019_03_21 12:10;43;0;0;practice;31;33;0;54;82;55;71;0.56000000000000005;0.20999999999999999;0.02;0.20999999999999999;13;99;0;0;0.5;0.5;0.0;0.0;0;7.314747523082133;48;14;21;2;nein
2019_03_21 12:10;43;0;0;practice;32;12;1;45;86;0;0;0.97999999999999998;0.02;0.0;0.0;6;23;95;81;0.14999999999999999;0.40999999999999998;0.050000000000000003;0.39000000000000001;0;10.23716993137873;48;14;21;2;nein
2019_03_21 12:10;43;0;0;practice;33;49;1;14;31;42;22;0.77000000000000002;0.089999999999999997;0.02;0.12;87;28;0;0;0.68000000000000005;0.32000000000000001;0.0;0.0;1;4.753217459464395;48;14;21;2;nein
2019_03_21 12:10;43;0;0;practice;34;73;0;99;88;95;28;0.83999999999999997;0.14000000000000001;0.01;0.01;90;93;10;74;0.080000000000000002;0.46000000000000002;0.34999999999999998;0.11;0;13.72899093902879;48;14;21;2;nein
2019_03_21 12:10;43;0;0;practice;35;56;0;47;52;64;10;0.77000000000000002;0.040000000000000001;0.11;0.080000000000000002;1;5;12;99;0.14000000000000001;0.28999999999999998;0.27000000000000002;0.29999999999999999;0;3.372283985698459;48;14;21;2;nein
2019_03_21 12:10;43;0;0;practice;36;32;1;21;86;16;78;0.45000000000000001;0.41999999999999998;0.050000000000000003;0.080000000000000099;95;9;0;0;0.42999999999999999;0.56999999999999995;0.0;0.0;0;9.846428209473515;48;14;21;2;nein
2019_03_21 12:10;43;0;0;practice;37;4;1;40;59;0;0;0.19;0.81000000000000005;0.0;0.0;10;88;13;45;0.56000000000000005;0.28999999999999998;0.01;0.14000000000000001;0;8.035194490806134;48;14;21;2;nein
2019_03_21 12:10;43;0;0;practice;38;7;1;13;31;0;0;0.51000000000000001;0.48999999999999999;0.0;0.0;8;79;42;18;0.85999999999999999;0.089999999999999997;0.02;0.029999999999999999;0;14.279353544657624;48;14;21;2;nein
2019_03_21 12:10;43;0;0;practice;39;26;1;24;46;74;59;0.29999999999999999;0.11;0.25;0.34000000000000002;91;6;0;0;0.28999999999999998;0.70999999999999996;0.0;0.0;0;8.47552299752283;48;14;21;2;nein
2019_03_21 12:10;43;0;0;practice;40;39;1;53;65;48;75;0.92000000000000004;0.029999999999999999;0.01;0.040000000000000001;16;83;0;0;0.31;0.68999999999999995;0.0;0.0;1;8.795714736554373;48;14;21;2;nein
2019_03_21 12:10;43;0;0;practice;41;17;1;27;61;0;0;0.68999999999999995;0.31;0.0;0.0;3;91;69;43;0.29999999999999999;0.33000000000000002;0.27000000000000002;0.099999999999999895;1;6.524227482594597;48;14;21;2;nein
2019_03_21 12:10;43;0;0;practice;42;74;0;36;46;10;12;0.11;0.19;0.65000000000000002;0.049999999999999899;92;24;79;19;0.51000000000000001;0.40999999999999998;0.02;0.059999999999999998;1;8.725977457257613;48;14;21;2;nein
2019_03_21 12:10;43;0;0;practice;43;27;0;68;43;98;36;0.54000000000000004;0.44;0.01;0.0099999999999999603;97;13;0;0;0.27000000000000002;0.72999999999999998;0.0;0.0;0;6.634331177669765;48;14;21;2;nein
2019_03_21 12:10;43;0;0;practice;44;66;0;44;18;63;36;0.47999999999999998;0.10000000000000001;0.029999999999999999;0.39000000000000001;13;93;61;53;0.52000000000000002;0.45000000000000001;0.02;0.0099999999999999707;1;12.28816403398605;48;14;21;2;nein
2019_03_21 12:10;43;0;0;practice;45;71;0;94;87;26;75;0.71999999999999997;0.23999999999999999;0.02;0.02;90;27;12;83;0.16;0.73999999999999999;0.02;0.080000000000000002;0;4.9632118532849745;48;14;21;2;nein
2019_03_21 12:10;43;0;0;practice;46;50;1;17;12;21;14;0.55000000000000004;0.34000000000000002;0.059999999999999998;0.049999999999999899;13;93;0;0;0.28999999999999998;0.70999999999999996;0.0;0.0;1;5.913898000890413;48;14;21;2;nein
2019_03_21 12:10;43;0;0;practice;47;53;1;47;24;95;38;0.57999999999999996;0.28000000000000003;0.02;0.12;8;22;93;96;0.54000000000000004;0.34000000000000002;0.10000000000000001;0.0199999999999999;0;13.979320318102737;48;14;21;2;nein
2019_03_21 12:10;43;0;0;practice;48;18;0;47;36;0;0;0.089999999999999997;0.91000000000000003;0.0;0.0;2;44;81;9;0.20000000000000001;0.25;0.51000000000000001;0.040000000000000001;0;10.87709606323051;48;14;21;2;nein
2019_03_21 12:10;43;0;0;practice;49;25;0;7;18;0;0;0.20999999999999999;0.79000000000000004;0.0;0.0;92;45;33;13;0.41999999999999998;0.17999999999999999;0.22;0.17999999999999999;1;9.476311005686966;48;14;21;2;nein
2019_03_21 12:10;43;0;0;practice;50;55;1;53;11;80;74;0.31;0.37;0.28000000000000003;0.039999999999999897;6;93;98;96;0.69999999999999996;0.22;0.050000000000000003;0.029999999999999999;0;8.45548315131441;48;14;21;2;nein
2019_03_21 12:10;43;0;0;practice;51;40;1;29;65;30;41;0.70999999999999996;0.01;0.14999999999999999;0.13;2;59;0;0;0.32000000000000001;0.68000000000000005;0.0;0.0;0;16.360832049385635;48;14;21;2;nein
2019_03_21 12:10;43;0;0;practice;52;35;1;84;95;4;35;0.89000000000000001;0.050000000000000003;0.01;0.050000000000000003;5;98;0;0;0.19;0.81000000000000005;0.0;0.0;1;5.233386081024037;48;14;21;2;nein
2019_03_21 12:10;43;0;0;practice;53;51;0;38;13;51;84;0.91000000000000003;0.070000000000000007;0.01;0.0099999999999999603;4;89;35;16;0.80000000000000004;0.089999999999999997;0.059999999999999998;0.050000000000000003;0;4.362972211567239;48;14;21;2;nein
2019_03_21 12:10;43;0;0;practice;54;31;1;72;59;40;92;0.59999999999999998;0.34999999999999998;0.02;0.029999999999999999;97;29;0;0;0.38;0.62;0.0;0.0;0;6.514355411246015;48;14;21;2;nein
2019_03_21 12:10;43;0;0;practice;55;30;0;54;78;85;25;0.20999999999999999;0.60999999999999999;0.089999999999999997;0.090000000000000094;87;20;0;0;0.58999999999999997;0.40999999999999998;0.0;0.0;0;14.079281575169489;48;14;21;2;nein
2019_03_21 12:10;43;0;0;practice;56;1;1;67;36;0;0;0.14999999999999999;0.84999999999999998;0.0;0.0;1;4;81;77;0.25;0.54000000000000004;0.14000000000000001;0.070000000000000007;0;16.400739836073626;48;14;21;2;nein
2019_03_21 12:10;43;0;0;practice;57;64;0;44;60;96;45;0.53000000000000003;0.10000000000000001;0.029999999999999999;0.34000000000000002;88;20;43;31;0.47999999999999998;0.38;0.050000000000000003;0.089999999999999997;0;10.406952496289477;48;14;21;2;nein
2019_03_21 12:10;43;0;0;practice;58;63;0;24;82;6;96;0.91000000000000003;0.070000000000000007;0.01;0.0099999999999999603;73;10;71;22;0.31;0.51000000000000001;0.050000000000000003;0.13;0;14.45942928580871;48;14;21;2;nein
2019_03_21 12:10;43;0;0;practice;59;16;0;50;42;0;0;0.32000000000000001;0.68000000000000005;0.0;0.0;97;2;56;31;0.35999999999999999;0.16;0.16;0.32000000000000001;1;6.354104954861896;48;14;21;2;nein
2019_03_21 12:10;43;0;0;practice;60;43;1;11;17;21;44;0.16;0.46000000000000002;0.25;0.13;2;66;0;0;0.44;0.56000000000000005;0.0;0.0;0;13.899146500884399;48;14;21;2;nein
2019_03_21 12:10;43;0;0;practice;61;23;1;99;93;0;0;0.57999999999999996;0.41999999999999998;0.0;0.0;64;10;80;81;0.13;0.55000000000000004;0.02;0.29999999999999999;0;6.4744457002400395;48;14;21;2;nein
2019_03_21 12:10;43;0;0;practice;62;57;0;39;68;59;91;0.73999999999999999;0.040000000000000001;0.14999999999999999;0.070000000000000007;9;22;40;84;0.29999999999999999;0.32000000000000001;0.040000000000000001;0.34000000000000002;0;11.847857977644708;48;14;21;2;nein
2019_03_21 12:10;43;0;0;practice;63;37;1;50;66;99;12;0.26000000000000001;0.71999999999999997;0.01;0.01;22;90;0;0;0.37;0.63;0.0;0.0;0;9.676295739431907;48;14;21;2;nein
2019_03_21 12:10;43;0;0;practice;64;48;0;20;25;24;35;0.32000000000000001;0.13;0.48999999999999999;0.059999999999999901;44;76;0;0;0.29999999999999999;0.69999999999999996;0.0;0.0;1;8.235361714028386;48;14;21;2;nein
2019_03_21 12:10;43;0;0;practice;65;14;1;92;56;0;0;0.11;0.89000000000000001;0.0;0.0;97;31;51;4;0.58999999999999997;0.22;0.080000000000000002;0.11;0;11.077226403693658;48;14;21;2;nein
2019_03_21 12:10;43;0;0;practice;66;2;0;41;60;0;0;0.97999999999999998;0.02;0.0;0.0;10;14;97;6;0.54000000000000004;0.17000000000000001;0.12;0.17000000000000001;0;7.795418391603789;48;14;21;2;nein
2019_03_21 12:10;43;0;0;practice;67;28;0;37;83;75;8;0.83999999999999997;0.070000000000000007;0.01;0.080000000000000002;94;2;0;0;0.19;0.81000000000000005;0.0;0.0;0;3.4423410224796953;48;14;21;2;nein
2019_03_21 12:10;43;0;0;practice;68;62;0;65;52;74;55;0.16;0.12;0.14999999999999999;0.56999999999999995;72;86;2;68;0.12;0.53000000000000003;0.22;0.13;0;11.567727650010056;48;14;21;2;nein
2019_03_21 12:10;43;0;0;practice;69;42;1;23;45;91;22;0.72999999999999998;0.02;0.20000000000000001;0.050000000000000003;2;86;0;0;0.40999999999999998;0.58999999999999997;0.0;0.0;0;4.953687762749496;48;14;21;2;nein
2019_03_21 12:10;43;0;0;practice;70;13;1;15;25;0;0;0.29999999999999999;0.69999999999999996;0.0;0.0;3;43;35;73;0.44;0.40000000000000002;0.01;0.14999999999999999;1;7.835231245277555;48;14;21;2;nein
2019_03_21 12:10;43;0;0;practice;71;19;0;25;73;0;0;0.69999999999999996;0.29999999999999999;0.0;0.0;87;84;1;86;0.040000000000000001;0.59999999999999998;0.28000000000000003;0.080000000000000002;0;9.51621847165552;48;14;21;2;nein
2019_03_21 12:10;43;0;0;practice;72;11;1;10;44;0;0;0.48999999999999999;0.51000000000000001;0.0;0.0;88;12;54;50;0.17000000000000001;0.75;0.02;0.059999999999999998;1;6.154085583395499;48;14;21;2;nein
2019_03_21 12:10;43;0;0;practice;73;70;0;21;42;14;63;0.96999999999999997;0.01;0.01;0.01;70;2;6;76;0.23999999999999999;0.42999999999999999;0.01;0.32000000000000001;0;8.00542465205126;48;14;21;2;nein
2019_03_21 12:10;43;0;0;practice;74;9;1;57;44;0;0;0.14999999999999999;0.84999999999999998;0.0;0.0;38;35;64;95;0.34000000000000002;0.45000000000000001;0.089999999999999997;0.12;1;8.27557771229408;48;14;21;2;nein
2019_03_21 12:10;43;0;0;practice;75;22;1;84;87;0;0;0.17000000000000001;0.82999999999999996;0.0;0.0;3;24;41;83;0.68000000000000005;0.11;0.10000000000000001;0.11;0;3.392163151365594;48;14;21;2;nein
2019_03_21 12:10;43;1;0;control;1;145;0;91;89;90;74;0.57999999999999996;0.29999999999999999;0.11;0.010000000000000101;2;75;84;39;0.32000000000000001;0.27000000000000002;0.39000000000000001;0.0199999999999999;0;6.226235315851227;48;14;21;2;nein
2019_03_21 12:10;43;1;0;control;2;128;1;70;49;27;54;0.27000000000000002;0.53000000000000003;0.02;0.17999999999999999;72;97;6;20;0.29999999999999999;0.39000000000000001;0.22;0.0899999999999999;0;8.125272130617304;48;14;21;2;nein
2019_03_21 12:10;43;1;0;control;3;87;1;10;30;63;4;0.56999999999999995;0.12;0.16;0.14999999999999999;86;2;0;0;0.42999999999999999;0.56999999999999995;0.0;0.0;0;3.9725816776717693;48;14;21;2;nein
2019_03_21 12:10;43;1;0;control;4;46;0;5;19;0;0;0.32000000000000001;0.68000000000000005;0.0;0.0;88;38;97;66;0.60999999999999999;0.20000000000000001;0.040000000000000001;0.14999999999999999;1;4.793100871459501;48;14;21;2;nein
2019_03_21 12:10;43;1;0;control;5;13;0;52;56;0;0;0.46999999999999997;0.53000000000000003;0.0;0.0;94;71;27;2;0.089999999999999997;0.31;0.57999999999999996;0.020000000000000101;0;6.955106626452562;48;14;21;2;nein
2019_03_21 12:10;43;1;0;control;6;120;0;64;40;48;51;0.19;0.02;0.070000000000000007;0.71999999999999997;97;9;79;94;0.23000000000000001;0.54000000000000004;0.01;0.22;0;8.565612503960892;48;14;21;2;nein
2019_03_21 12:10;43;1;0;control;7;82;1;78;66;30;27;0.28999999999999998;0.58999999999999997;0.080000000000000002;0.040000000000000001;90;6;0;0;0.82999999999999996;0.17000000000000001;0.0;0.0;1;6.7545022623562545;48;14;21;2;nein
2019_03_21 12:10;43;1;0;control;8;12;0;53;68;0;0;0.31;0.68999999999999995;0.0;0.0;69;54;97;29;0.25;0.20999999999999999;0.20000000000000001;0.34000000000000002;1;4.833593009338074;48;14;21;2;nein
2019_03_21 12:10;43;1;0;control;9;88;0;77;13;12;7;0.12;0.19;0.66000000000000003;0.029999999999999898;94;2;0;0;0.40999999999999998;0.58999999999999997;0.0;0.0;0;7.795205113040538;48;14;21;2;nein
2019_03_21 12:10;43;1;0;control;10;109;0;75;28;16;56;0.19;0.070000000000000007;0.059999999999999998;0.68000000000000005;3;50;98;44;0.5;0.02;0.34999999999999998;0.13;0;8.656305284048358;48;14;21;2;nein
2019_03_21 12:10;43;1;0;control;11;57;0;52;35;23;47;0.22;0.68000000000000005;0.040000000000000001;0.059999999999999998;71;7;0;0;0.28999999999999998;0.70999999999999996;0.0;0.0;0;4.873158588166461;48;14;21;2;nein
2019_03_21 12:10;43;1;0;control;12;143;1;88;44;56;73;0.95999999999999996;0.02;0.01;0.01;20;3;87;32;0.19;0.40000000000000002;0.28000000000000003;0.13;0;4.803086477561919;48;14;21;2;nein
2019_03_21 12:10;43;1;0;control;13;86;1;56;30;57;88;0.20000000000000001;0.35999999999999999;0.080000000000000002;0.35999999999999999;98;2;0;0;0.77000000000000002;0.23000000000000001;0.0;0.0;1;8.675628642573429;48;14;21;2;nein
2019_03_21 12:10;43;1;0;control;14;18;1;68;50;0;0;0.029999999999999999;0.96999999999999997;0.0;0.0;34;64;15;89;0.65000000000000002;0.029999999999999999;0.050000000000000003;0.27000000000000002;0;7.765170359860349;48;14;21;2;nein
2019_03_21 12:10;43;1;0;control;15;133;1;59;88;60;36;0.67000000000000004;0.070000000000000007;0.12;0.14000000000000001;7;91;66;61;0.25;0.68999999999999995;0.01;0.0500000000000001;1;5.6536551776339365;48;14;21;2;nein
2019_03_21 12:10;43;1;0;control;16;27;0;44;26;0;0;0.35999999999999999;0.64000000000000001;0.0;0.0;63;10;3;5;0.58999999999999997;0.19;0.14999999999999999;0.070000000000000007;0;5.15333285439192;48;14;21;2;nein
2019_03_21 12:10;43;1;0;control;17;50;1;15;20;0;0;0.82999999999999996;0.17000000000000001;0.0;0.0;97;18;88;87;0.56999999999999995;0.39000000000000001;0.01;0.029999999999999999;1;3.782613980554288;48;14;21;2;nein
2019_03_21 12:10;43;1;0;control;18;73;0;65;68;70;47;0.25;0.23000000000000001;0.20999999999999999;0.31;27;95;0;0;0.45000000000000001;0.55000000000000004;0.0;0.0;0;7.034583519885018;48;14;21;2;nein
2019_03_21 12:10;43;1;0;control;19;141;1;93;28;60;91;0.81999999999999995;0.10000000000000001;0.01;0.070000000000000007;14;85;7;89;0.45000000000000001;0.070000000000000007;0.23999999999999999;0.23999999999999999;0;16.290662440009328;48;14;21;2;nein
2019_03_21 12:10;43;1;0;control;20;89;1;26;41;13;56;0.059999999999999998;0.40999999999999998;0.050000000000000003;0.47999999999999998;5;97;0;0;0.37;0.63;0.0;0.0;1;4.383089030490282;48;14;21;2;nein
2019_03_21 12:10;43;1;0;control;21;71;0;68;55;36;51;0.20000000000000001;0.75;0.02;0.029999999999999999;38;81;0;0;0.52000000000000002;0.47999999999999998;0.0;0.0;1;6.754554539658329;48;14;21;2;nein
2019_03_21 12:10;43;1;0;control;22;59;1;56;47;83;90;0.31;0.12;0.54000000000000004;0.029999999999999898;10;98;0;0;0.46999999999999997;0.53000000000000003;0.0;0.0;0;9.196116534123576;48;14;21;2;nein
2019_03_21 12:10;43;1;0;control;23;5;1;70;5;0;0;0.98999999999999999;0.01;0.0;0.0;92;87;47;1;0.44;0.02;0.16;0.38;1;3.8824953784301215;48;14;21;2;nein
2019_03_21 12:10;43;1;0;control;24;130;0;37;79;23;95;0.94999999999999996;0.029999999999999999;0.01;0.01;94;4;58;49;0.46000000000000002;0.5;0.029999999999999999;0.01;0;11.687743827108989;48;14;21;2;nein
2019_03_21 12:10;43;1;0;control;25;146;1;25;5;64;35;0.94999999999999996;0.02;0.01;0.02;47;97;12;79;0.20999999999999999;0.029999999999999999;0.02;0.73999999999999999;1;4.883145156427872;48;14;21;2;nein
2019_03_21 12:10;43;1;0;control;26;20;1;44;40;0;0;0.91000000000000003;0.089999999999999997;0.0;0.0;29;5;80;99;0.25;0.40000000000000002;0.26000000000000001;0.089999999999999997;0;13.308679828145614;48;14;21;2;nein
2019_03_21 12:10;43;1;0;control;27;31;0;10;59;0;0;0.23999999999999999;0.76000000000000001;0.0;0.0;1;79;53;73;0.23000000000000001;0.58999999999999997;0.050000000000000003;0.13;1;7.164828087856677;48;14;21;2;nein
2019_03_21 12:10;43;1;0;control;28;62;0;12;45;16;50;0.20999999999999999;0.76000000000000001;0.02;0.01;92;15;0;0;0.20999999999999999;0.79000000000000004;0.0;0.0;1;6.834568959213357;48;14;21;2;nein
2019_03_21 12:10;43;1;0;control;29;6;0;9;51;0;0;0.14999999999999999;0.84999999999999998;0.0;0.0;6;40;50;73;0.42999999999999999;0.26000000000000001;0.059999999999999998;0.25;0;6.834558054745685;48;14;21;2;nein
2019_03_21 12:10;43;1;0;control;30;25;1;50;53;0;0;0.82999999999999996;0.17000000000000001;0.0;0.0;83;16;97;4;0.45000000000000001;0.29999999999999999;0.11;0.14000000000000001;1;10.75701894939948;48;14;21;2;nein
2019_03_21 12:10;43;1;0;control;31;64;1;48;39;34;19;0.46000000000000002;0.5;0.02;0.02;13;92;0;0;0.68999999999999995;0.31;0.0;0.0;0;5.153315856250629;48;14;21;2;nein
2019_03_21 12:10;43;1;0;control;32;148;0;37;63;55;10;0.72999999999999998;0.070000000000000007;0.029999999999999999;0.17000000000000001;80;14;23;70;0.46999999999999997;0.10000000000000001;0.23000000000000001;0.20000000000000001;1;11.107351599813683;48;14;21;2;nein
2019_03_21 12:10;43;1;0;control;33;122;1;35;58;25;31;0.81999999999999995;0.070000000000000007;0.080000000000000002;0.029999999999999999;18;64;68;89;0.63;0.17000000000000001;0.11;0.089999999999999997;0;5.933773959361133;48;14;21;2;nein
2019_03_21 12:10;43;1;0;control;34;102;0;40;56;53;17;0.28000000000000003;0.26000000000000001;0.14999999999999999;0.31;1;76;29;62;0.68000000000000005;0.23000000000000001;0.050000000000000003;0.039999999999999897;0;3.892567258116287;48;14;21;2;nein
2019_03_21 12:10;43;1;0;control;35;54;0;44;79;78;52;0.79000000000000004;0.19;0.01;0.0099999999999999603;96;1;0;0;0.28000000000000003;0.71999999999999997;0.0;0.0;0;2.6717097692485368;48;14;21;2;nein
2019_03_21 12:10;43;1;0;control;36;150;0;25;21;78;38;0.84999999999999998;0.059999999999999998;0.050000000000000003;0.040000000000000001;31;43;64;95;0.059999999999999998;0.45000000000000001;0.13;0.35999999999999999;1;11.217450163374451;48;14;21;2;nein
2019_03_21 12:10;43;1;0;control;37;22;1;32;55;0;0;0.39000000000000001;0.60999999999999999;0.0;0.0;93;72;59;22;0.20000000000000001;0.11;0.14000000000000001;0.55000000000000004;1;4.032630016536132;48;14;21;2;nein
2019_03_21 12:10;43;1;0;control;38;112;1;70;44;98;64;0.02;0.75;0.12;0.11;33;2;63;85;0.23999999999999999;0.31;0.080000000000000002;0.37;0;3.812353030223221;48;14;21;2;nein
2019_03_21 12:10;43;1;0;control;39;43;0;60;83;0;0;0.23000000000000001;0.77000000000000002;0.0;0.0;72;5;70;12;0.29999999999999999;0.40999999999999998;0.12;0.17000000000000001;0;4.993362065536985;48;14;21;2;nein
2019_03_21 12:10;43;1;0;control;40;100;1;27;14;59;52;0.02;0.95999999999999996;0.01;0.01;17;98;0;0;0.48999999999999999;0.51000000000000001;0.0;0.0;1;7.354824970461777;48;14;21;2;nein
2019_03_21 12:10;43;1;0;control;41;63;0;56;78;42;36;0.93000000000000005;0.040000000000000001;0.01;0.0199999999999999;2;72;0;0;0.32000000000000001;0.68000000000000005;0.0;0.0;0;5.603957103106495;48;14;21;2;nein
2019_03_21 12:10;43;1;0;control;42;124;0;37;65;15;41;0.17999999999999999;0.45000000000000001;0.02;0.34999999999999998;40;7;98;30;0.070000000000000007;0.45000000000000001;0.45000000000000001;0.029999999999999898;1;6.964629113389947;48;14;21;2;nein
2019_03_21 12:10;43;1;0;control;43;92;1;90;86;65;94;0.16;0.34000000000000002;0.28000000000000003;0.22;79;22;0;0;0.35999999999999999;0.64000000000000001;0.0;0.0;0;4.473263206913998;48;14;21;2;nein
2019_03_21 12:10;43;1;0;control;44;113;1;85;65;39;64;0.44;0.34000000000000002;0.13;0.089999999999999997;87;2;4;35;0.67000000000000004;0.17000000000000001;0.11;0.049999999999999899;0;5.133324759428433;48;14;21;2;nein
2019_03_21 12:10;43;1;0;control;45;97;0;17;33;32;74;0.94999999999999996;0.01;0.029999999999999999;0.01;76;23;0;0;0.33000000000000002;0.67000000000000004;0.0;0.0;1;6.724365841048893;48;14;21;2;nein
2019_03_21 12:10;43;1;0;control;46;77;0;24;17;99;41;0.17999999999999999;0.13;0.10000000000000001;0.58999999999999997;12;97;0;0;0.59999999999999998;0.40000000000000002;0.0;0.0;0;8.795867078385072;48;14;21;2;nein
2019_03_21 12:10;43;1;0;control;47;85;0;31;22;82;50;0.11;0.69999999999999996;0.01;0.17999999999999999;3;99;0;0;0.62;0.38;0.0;0.0;0;2.5115991466291234;48;14;21;2;nein
2019_03_21 12:10;43;1;0;control;48;37;0;14;98;0;0;0.93000000000000005;0.070000000000000007;0.0;0.0;41;2;87;66;0.17999999999999999;0.48999999999999999;0.32000000000000001;0.010000000000000101;0;9.19594815631126;48;14;21;2;nein
2019_03_21 12:10;43;1;0;control;49;39;1;14;33;0;0;0.78000000000000003;0.22;0.0;0.0;93;84;1;25;0.14000000000000001;0.23999999999999999;0.39000000000000001;0.23000000000000001;1;16.721133628480857;48;14;21;2;nein
2019_03_21 12:10;43;1;0;control;50;17;0;81;52;0;0;0.059999999999999998;0.93999999999999995;0.0;0.0;34;3;69;41;0.01;0.22;0.75;0.02;0;5.573782516160918;48;14;21;2;nein
2019_03_21 12:10;43;1;0;control;51;65;1;75;64;59;52;0.59999999999999998;0.22;0.14000000000000001;0.040000000000000001;1;99;0;0;0.35999999999999999;0.64000000000000001;0.0;0.0;0;12.198092808567708;48;14;21;2;nein
2019_03_21 12:10;43;1;0;control;52;48;0;13;32;0;0;0.90000000000000002;0.10000000000000001;0.0;0.0;24;99;84;94;0.62;0.14999999999999999;0.20000000000000001;0.029999999999999999;1;6.794378939238868;48;14;21;2;nein
2019_03_21 12:10;43;1;0;control;53;29;0;44;51;0;0;0.78000000000000003;0.22;0.0;0.0;74;1;68;82;0.69999999999999996;0.28000000000000003;0.01;0.01;0;9.336080831613344;48;14;21;2;nein
2019_03_21 12:10;43;1;0;control;54;19;1;22;53;0;0;0.13;0.87;0.0;0.0;4;93;96;65;0.46999999999999997;0.059999999999999998;0.26000000000000001;0.20999999999999999;1;19.64301273770161;48;14;21;2;nein
2019_03_21 12:10;43;1;0;control;55;137;0;71;22;28;17;0.25;0.46000000000000002;0.050000000000000003;0.23999999999999999;3;98;92;69;0.42999999999999999;0.23999999999999999;0.20000000000000001;0.13;0;11.0073149736304;48;14;21;2;nein
2019_03_21 12:10;43;1;0;control;56;131;1;83;41;81;88;0.23999999999999999;0.58999999999999997;0.10000000000000001;0.070000000000000007;82;97;4;17;0.26000000000000001;0.46999999999999997;0.11;0.16;0;3.2021697966765714;48;14;21;2;nein
2019_03_21 12:10;43;1;0;control;57;15;0;77;81;0;0;0.28000000000000003;0.71999999999999997;0.0;0.0;98;14;87;18;0.55000000000000004;0.23000000000000001;0.16;0.059999999999999901;1;6.354260503889236;48;14;21;2;nein
2019_03_21 12:10;43;1;0;control;58;107;0;52;48;13;63;0.68000000000000005;0.19;0.050000000000000003;0.079999999999999905;54;91;33;3;0.19;0.17999999999999999;0.33000000000000002;0.29999999999999999;0;8.735681150793425;48;14;21;2;nein
2019_03_21 12:10;43;1;0;control;59;142;0;98;65;64;84;0.88;0.070000000000000007;0.01;0.040000000000000001;5;68;60;16;0.46000000000000002;0.080000000000000002;0.27000000000000002;0.19;0;4.012570606429563;48;14;21;2;nein
2019_03_21 12:10;43;1;0;control;60;114;0;57;39;79;97;0.77000000000000002;0.02;0.13;0.080000000000000002;92;36;6;1;0.54000000000000004;0.12;0.13;0.20999999999999999;1;3.332330336101677;48;14;21;2;nein
2019_03_21 12:10;43;1;0;control;61;134;1;57;48;50;55;0.02;0.62;0.17999999999999999;0.17999999999999999;80;96;15;18;0.23999999999999999;0.35999999999999999;0.33000000000000002;0.070000000000000007;1;19.132682678701713;48;14;21;2;nein
2019_03_21 12:10;43;1;0;control;62;115;1;50;28;61;79;0.83999999999999997;0.040000000000000001;0.059999999999999998;0.059999999999999998;1;26;97;55;0.45000000000000001;0.080000000000000002;0.40999999999999998;0.060000000000000102;0;3.922683153366961;48;14;21;2;nein
2019_03_21 12:10;43;1;0;control;63;108;1;48;72;39;70;0.14000000000000001;0.66000000000000003;0.02;0.17999999999999999;81;44;98;8;0.59999999999999998;0.029999999999999999;0.050000000000000003;0.32000000000000001;0;7.655211630064059;48;14;21;2;nein
2019_03_21 12:10;43;1;0;control;64;41;1;99;40;0;0;0.89000000000000001;0.11;0.0;0.0;1;67;52;46;0.51000000000000001;0.38;0.029999999999999999;0.080000000000000002;0;3.0320751715530605;48;14;21;2;nein
2019_03_21 12:10;43;1;0;control;65;90;1;27;44;50;72;0.68000000000000005;0.28999999999999998;0.02;0.0099999999999999707;6;96;0;0;0.46999999999999997;0.53000000000000003;0.0;0.0;1;13.719071080453432;48;14;21;2;nein
2019_03_21 12:10;43;1;0;control;66;111;1;51;36;48;27;0.93000000000000005;0.01;0.01;0.049999999999999899;31;78;30;53;0.55000000000000004;0.16;0.029999999999999999;0.26000000000000001;0;8.615768886859314;48;14;21;2;nein
2019_03_21 12:10;43;1;0;control;67;95;1;93;88;68;85;0.83999999999999997;0.14000000000000001;0.01;0.01;2;82;0;0;0.41999999999999998;0.57999999999999996;0.0;0.0;0;12.808470398218105;48;14;21;2;nein
2019_03_21 12:10;43;1;0;control;68;140;0;36;32;26;27;0.39000000000000001;0.14999999999999999;0.19;0.27000000000000002;44;3;99;25;0.29999999999999999;0.34000000000000002;0.34000000000000002;0.0199999999999999;1;13.218772490465199;48;14;21;2;nein
2019_03_21 12:10;43;1;0;control;69;56;0;28;84;37;41;0.68000000000000005;0.28000000000000003;0.02;0.0199999999999999;6;95;0;0;0.72999999999999998;0.27000000000000002;0.0;0.0;0;5.633629763809495;48;14;21;2;nein
2019_03_21 12:10;43;1;0;control;70;81;0;67;38;52;65;0.27000000000000002;0.35999999999999999;0.01;0.35999999999999999;2;77;0;0;0.14000000000000001;0.85999999999999999;0.0;0.0;1;5.793914857914842;48;14;21;2;nein
2019_03_21 12:10;43;1;0;control;71;24;1;35;27;0;0;0.070000000000000007;0.93000000000000005;0.0;0.0;62;3;81;95;0.35999999999999999;0.55000000000000004;0.01;0.080000000000000002;1;3.1619871532539037;48;14;21;2;nein
2019_03_21 12:10;43;1;0;control;72;8;1;50;36;0;0;0.080000000000000002;0.92000000000000004;0.0;0.0;6;19;84;29;0.54000000000000004;0.070000000000000007;0.17000000000000001;0.22;0;4.913214868049181;48;14;21;2;nein
2019_03_21 12:10;43;1;0;control;73;69;1;54;34;64;49;0.34000000000000002;0.25;0.20999999999999999;0.20000000000000001;14;98;0;0;0.62;0.38;0.0;0.0;0;6.234049329246773;48;14;21;2;nein
2019_03_21 12:10;43;1;0;control;74;52;0;71;51;10;54;0.22;0.12;0.19;0.46999999999999997;91;1;0;0;0.29999999999999999;0.69999999999999996;0.0;0.0;0;9.556204834656;48;14;21;2;nein
2019_03_21 12:10;43;1;0;control;75;47;0;2;40;0;0;0.45000000000000001;0.55000000000000004;0.0;0.0;93;89;11;56;0.58999999999999997;0.070000000000000007;0.28000000000000003;0.059999999999999998;1;4.122829209092288;48;14;21;2;nein
2019_03_21 12:10;43;2;0;timed;1;62;0;12;45;16;50;0.20999999999999999;0.76000000000000001;0.02;0.01;92;15;0;0;0.20999999999999999;0.79000000000000004;0.0;0.0;0;3.731677607483107;48;14;21;2;nein
2019_03_21 12:10;43;2;0;timed;2;34;0;32;48;0;0;0.28000000000000003;0.71999999999999997;0.0;0.0;97;83;7;62;0.040000000000000001;0.54000000000000004;0.35999999999999999;0.059999999999999901;1;3.52233427453848;48;14;21;2;nein
2019_03_21 12:10;43;2;0;timed;3;33;0;27;70;0;0;0.88;0.12;0.0;0.0;93;3;77;16;0.080000000000000002;0.40000000000000002;0.5;0.02;0;4.402985194298253;48;14;21;2;nein
2019_03_21 12:10;43;2;0;timed;4;30;0;33;30;0;0;0.71999999999999997;0.28000000000000003;0.0;0.0;9;88;1;14;0.55000000000000004;0.39000000000000001;0.01;0.049999999999999899;1;3.9625069115081715;48;14;21;2;nein
2019_03_21 12:10;43;2;0;timed;5;130;1;37;79;23;95;0.94999999999999996;0.029999999999999999;0.01;0.01;94;4;58;49;0.46000000000000002;0.5;0.029999999999999999;0.01;1;4.983409172838492;48;14;21;2;nein
2019_03_21 12:10;43;2;0;timed;6;106;1;85;69;22;61;0.10000000000000001;0.58999999999999997;0.17999999999999999;0.13;20;79;91;84;0.55000000000000004;0.14999999999999999;0.26000000000000001;0.039999999999999897;1;3.182179020573585;48;14;21;2;nein
2019_03_21 12:10;43;2;0;timed;7;57;0;52;35;23;47;0.22;0.68000000000000005;0.040000000000000001;0.059999999999999998;71;7;0;0;0.28999999999999998;0.70999999999999996;0.0;0.0;0;4.84312479714481;48;14;21;2;nein
2019_03_21 12:10;43;2;0;timed;8;95;0;93;88;68;85;0.83999999999999997;0.14000000000000001;0.01;0.01;2;82;0;0;0.41999999999999998;0.57999999999999996;0.0;0.0;0;3.9625806770263807;48;14;21;2;nein
2019_03_21 12:10;43;2;0;timed;9;39;1;14;33;0;0;0.78000000000000003;0.22;0.0;0.0;93;84;1;25;0.14000000000000001;0.23999999999999999;0.39000000000000001;0.23000000000000001;1;4.5330851177104705;48;14;21;2;nein
2019_03_21 12:10;43;2;0;timed;10;90;1;27;44;50;72;0.68000000000000005;0.28999999999999998;0.02;0.0099999999999999707;6;96;0;0;0.46999999999999997;0.53000000000000003;0.0;0.0;0;3.8424916965682314;48;14;21;2;nein
2019_03_21 12:10;43;2;0;timed;11;5;1;70;5;0;0;0.98999999999999999;0.01;0.0;0.0;92;87;47;1;0.44;0.02;0.16;0.38;0;2.6819266142142624;48;14;21;2;nein
2019_03_21 12:10;43;2;0;timed;12;13;0;52;56;0;0;0.46999999999999997;0.53000000000000003;0.0;0.0;94;71;27;2;0.089999999999999997;0.31;0.57999999999999996;0.020000000000000101;1;3.6824404070830496;48;14;21;2;nein
2019_03_21 12:10;43;2;0;timed;13;52;1;71;51;10;54;0.22;0.12;0.19;0.46999999999999997;91;1;0;0;0.29999999999999999;0.69999999999999996;0.0;0.0;0;2.0417169661973276;48;14;21;2;nein
2019_03_21 12:10;43;2;0;timed;14;83;1;17;12;7;41;0.65000000000000002;0.19;0.089999999999999997;0.070000000000000007;6;84;0;0;0.72999999999999998;0.27000000000000002;0.0;0.0;0;2.4115240340888704;48;14;21;2;nein
2019_03_21 12:10;43;2;0;timed;15;131;1;83;41;81;88;0.23999999999999999;0.58999999999999997;0.10000000000000001;0.070000000000000007;82;97;4;17;0.26000000000000001;0.46999999999999997;0.11;0.16;1;4.012754378785303;48;14;21;2;nein
2019_03_21 12:10;43;2;0;timed;16;132;1;27;70;21;19;0.64000000000000001;0.23000000000000001;0.029999999999999999;0.10000000000000001;11;85;55;6;0.39000000000000001;0.46999999999999997;0.029999999999999999;0.11;0;4.863356112980455;48;14;21;2;nein
2019_03_21 12:10;43;2;0;timed;17;137;1;71;22;28;17;0.25;0.46000000000000002;0.050000000000000003;0.23999999999999999;3;98;92;69;0.42999999999999999;0.23999999999999999;0.20000000000000001;0.13;1;3.2622441138323666;48;14;21;2;nein
2019_03_21 12:10;43;2;0;timed;18;19;0;22;53;0;0;0.13;0.87;0.0;0.0;4;93;96;65;0.46999999999999997;0.059999999999999998;0.26000000000000001;0.20999999999999999;1;1.811175668411579;48;14;21;2;nein
2019_03_21 12:10;43;2;0;timed;19;146;1;25;5;64;35;0.94999999999999996;0.02;0.01;0.02;47;97;12;79;0.20999999999999999;0.029999999999999999;0.02;0.73999999999999999;1;4.052604435937155;48;14;21;2;nein
2019_03_21 12:10;43;2;0;timed;20;1;1;22;51;0;0;0.26000000000000001;0.73999999999999999;0.0;0.0;14;11;92;31;0.29999999999999999;0.40999999999999998;0.14999999999999999;0.14000000000000001;0;4.563078177337502;48;14;21;2;nein
2019_03_21 12:10;43;2;0;timed;21;89;0;26;41;13;56;0.059999999999999998;0.40999999999999998;0.050000000000000003;0.47999999999999998;5;97;0;0;0.37;0.63;0.0;0.0;1;3.242109013890058;48;14;21;2;nein
2019_03_21 12:10;43;2;0;timed;22;82;0;78;66;30;27;0.28999999999999998;0.58999999999999997;0.080000000000000002;0.040000000000000001;90;6;0;0;0.82999999999999996;0.17000000000000001;0.0;0.0;1;2.6017848689602943;48;14;21;2;nein
2019_03_21 12:10;43;2;0;timed;23;38;0;40;70;0;0;0.53000000000000003;0.46999999999999997;0.0;0.0;97;90;6;96;0.56999999999999995;0.070000000000000007;0.27000000000000002;0.089999999999999997;1;2.171357939799691;48;14;21;2;nein
2019_03_21 12:10;43;2;0;timed;24;43;0;60;83;0;0;0.23000000000000001;0.77000000000000002;0.0;0.0;72;5;70;12;0.29999999999999999;0.40999999999999998;0.12;0.17000000000000001;0;2.361630641298234;48;14;21;2;nein
2019_03_21 12:10;43;2;0;timed;25;64;0;48;39;34;19;0.46000000000000002;0.5;0.02;0.02;13;92;0;0;0.68999999999999995;0.31;0.0;0.0;0;3.0019332980114086;48;14;21;2;nein
2019_03_21 12:10;43;2;0;timed;26;128;0;70;49;27;54;0.27000000000000002;0.53000000000000003;0.02;0.17999999999999999;72;97;6;20;0.29999999999999999;0.39000000000000001;0.22;0.0899999999999999;0;2.4516133480947246;48;14;21;2;nein
2019_03_21 12:10;43;2;0;timed;27;138;1;8;20;43;51;0.38;0.5;0.02;0.10000000000000001;72;82;70;1;0.39000000000000001;0.050000000000000003;0.070000000000000007;0.48999999999999999;1;2.111454886933643;48;14;21;2;nein
2019_03_21 12:10;43;2;0;timed;28;18;1;68;50;0;0;0.029999999999999999;0.96999999999999997;0.0;0.0;34;64;15;89;0.65000000000000002;0.029999999999999999;0.050000000000000003;0.27000000000000002;0;4.032598265291199;48;14;21;2;nein
2019_03_21 12:10;43;2;0;timed;29;86;1;56;30;57;88;0.20000000000000001;0.35999999999999999;0.080000000000000002;0.35999999999999999;98;2;0;0;0.77000000000000002;0.23000000000000001;0.0;0.0;1;2.1515069974611833;48;14;21;2;nein
2019_03_21 12:10;43;2;0;timed;30;11;1;17;36;0;0;0.14000000000000001;0.85999999999999999;0.0;0.0;19;41;34;95;0.88;0.02;0.050000000000000003;0.050000000000000003;1;2.161525316967527;48;14;21;2;nein
2019_03_21 12:10;43;2;0;timed;31;2;1;59;32;0;0;0.080000000000000002;0.92000000000000004;0.0;0.0;33;38;85;1;0.28999999999999998;0.050000000000000003;0.070000000000000007;0.58999999999999997;1;2.2614509741538313;48;14;21;2;nein
2019_03_21 12:10;43;2;0;timed;32;72;1;63;82;51;61;0.01;0.96999999999999997;0.01;0.01;92;12;0;0;0.89000000000000001;0.11;0.0;0.0;1;2.281496593315751;48;14;21;2;nein
2019_03_21 12:10;43;2;0;timed;33;60;0;64;59;57;96;0.83999999999999997;0.13;0.02;0.01;83;6;0;0;0.54000000000000004;0.46000000000000002;0.0;0.0;1;2.952195454247885;48;14;21;2;nein
2019_03_21 12:10;43;2;0;timed;34;7;1;49;29;0;0;0.95999999999999996;0.040000000000000001;0.0;0.0;23;99;64;25;0.68999999999999995;0.12;0.059999999999999998;0.13;1;2.7117461645134426;48;14;21;2;nein
2019_03_21 12:10;43;2;0;timed;35;31;0;10;59;0;0;0.23999999999999999;0.76000000000000001;0.0;0.0;1;79;53;73;0.23000000000000001;0.58999999999999997;0.050000000000000003;0.13;0;2.5916674470845464;48;14;21;2;nein
2019_03_21 12:10;43;2;0;timed;36;115;1;50;28;61;79;0.83999999999999997;0.040000000000000001;0.059999999999999998;0.059999999999999998;1;26;97;55;0.45000000000000001;0.080000000000000002;0.40999999999999998;0.060000000000000102;0;3.1320290520684466;48;14;21;2;nein
2019_03_21 12:10;43;2;0;timed;37;26;0;76;41;0;0;0.57999999999999996;0.41999999999999998;0.0;0.0;61;79;84;2;0.13;0.029999999999999999;0.67000000000000004;0.17000000000000001;0;2.4317056383797535;48;14;21;2;nein
2019_03_21 12:10;43;2;0;timed;38;16;0;64;53;0;0;0.65000000000000002;0.34999999999999998;0.0;0.0;29;17;81;46;0.10000000000000001;0.01;0.44;0.45000000000000001;0;2.671714580043499;48;14;21;2;nein
2019_03_21 12:10;43;2;0;timed;39;53;1;26;70;50;80;0.29999999999999999;0.59999999999999998;0.040000000000000001;0.059999999999999998;89;1;0;0;0.40999999999999998;0.58999999999999997;0.0;0.0;0;1.8311574643648783;48;14;21;2;nein
2019_03_21 12:10;43;2;0;timed;40;125;1;37;41;10;35;0.91000000000000003;0.040000000000000001;0.029999999999999999;0.02;7;13;91;93;0.26000000000000001;0.39000000000000001;0.16;0.19;0;4.292909401831821;48;14;21;2;nein
2019_03_21 12:10;43;2;0;timed;41;108;0;48;72;39;70;0.14000000000000001;0.66000000000000003;0.02;0.17999999999999999;81;44;98;8;0.59999999999999998;0.029999999999999999;0.050000000000000003;0.32000000000000001;1;3.8124348137325796;48;14;21;2;nein
2019_03_21 12:10;43;2;0;timed;42;148;1;37;63;55;10;0.72999999999999998;0.070000000000000007;0.029999999999999999;0.17000000000000001;80;14;23;70;0.46999999999999997;0.10000000000000001;0.23000000000000001;0.20000000000000001;1;3.522126768928956;48;14;21;2;nein
2019_03_21 12:10;43;2;0;timed;43;3;0;53;40;0;0;0.31;0.68999999999999995;0.0;0.0;96;24;7;88;0.11;0.27000000000000002;0.58999999999999997;0.029999999999999999;1;1.8712775674571276;48;14;21;2;nein
2019_03_21 12:10;43;2;0;timed;44;123;0;26;24;51;92;0.72999999999999998;0.16;0.070000000000000007;0.040000000000000001;6;90;82;49;0.64000000000000001;0.25;0.050000000000000003;0.059999999999999998;NA;5.413518268832377;48;14;21;2;nein
2019_03_21 12:10;43;2;0;timed;45;10;1;45;62;0;0;0.059999999999999998;0.93999999999999995;0.0;0.0;17;99;28;67;0.58999999999999997;0.34000000000000002;0.01;0.059999999999999998;0;2.111694143787645;48;14;21;2;nein
2019_03_21 12:10;43;2;0;timed;46;69;0;54;34;64;49;0.34000000000000002;0.25;0.20999999999999999;0.20000000000000001;14;98;0;0;0.62;0.38;0.0;0.0;0;2.1513530520319364;48;14;21;2;nein
2019_03_21 12:10;43;2;0;timed;47;122;0;35;58;25;31;0.81999999999999995;0.070000000000000007;0.080000000000000002;0.029999999999999999;18;64;68;89;0.63;0.17000000000000001;0.11;0.089999999999999997;0;3.16202339457368;48;14;21;2;nein
2019_03_21 12:10;43;2;0;timed;48;54;1;44;79;78;52;0.79000000000000004;0.19;0.01;0.0099999999999999603;96;1;0;0;0.28000000000000003;0.71999999999999997;0.0;0.0;0;1.7512302805530453;48;14;21;2;nein
2019_03_21 12:10;43;2;0;timed;49;66;0;89;23;27;15;0.070000000000000007;0.54000000000000004;0.17000000000000001;0.22;9;73;0;0;0.72999999999999998;0.27000000000000002;0.0;0.0;0;1.8312559252954088;48;14;21;2;nein
2019_03_21 12:10;43;2;0;timed;50;150;0;25;21;78;38;0.84999999999999998;0.059999999999999998;0.050000000000000003;0.040000000000000001;31;43;64;95;0.059999999999999998;0.45000000000000001;0.13;0.35999999999999999;1;4.853169094941677;48;14;21;2;nein
2019_03_21 12:10;43;2;0;timed;51;140;1;36;32;26;27;0.39000000000000001;0.14999999999999999;0.19;0.27000000000000002;44;3;99;25;0.29999999999999999;0.34000000000000002;0.34000000000000002;0.0199999999999999;0;3.13201814760032;48;14;21;2;nein
2019_03_21 12:10;43;2;0;timed;52;65;1;75;64;59;52;0.59999999999999998;0.22;0.14000000000000001;0.040000000000000001;1;99;0;0;0.35999999999999999;0.64000000000000001;0.0;0.0;0;2.6722004703033235;48;14;21;2;nein
2019_03_21 12:10;43;2;0;timed;53;88;0;77;13;12;7;0.12;0.19;0.66000000000000003;0.029999999999999898;94;2;0;0;0.40999999999999998;0.58999999999999997;0.0;0.0;0;2.551768319826351;48;14;21;2;nein
2019_03_21 12:10;43;2;0;timed;54;21;0;64;28;0;0;0.080000000000000002;0.92000000000000004;0.0;0.0;50;1;88;13;0.57999999999999996;0.13;0.02;0.27000000000000002;1;3.392160906328172;48;14;21;2;nein
2019_03_21 12:10;43;2;0;timed;55;120;0;64;40;48;51;0.19;0.02;0.070000000000000007;0.71999999999999997;97;9;79;94;0.23000000000000001;0.54000000000000004;0.01;0.22;1;3.8825194324031145;48;14;21;2;nein
2019_03_21 12:10;43;2;0;timed;56;101;1;30;96;61;45;0.65000000000000002;0.14000000000000001;0.11;0.10000000000000001;3;98;63;89;0.75;0.19;0.040000000000000001;0.02;0;2.0016109747693918;48;14;21;2;nein
2019_03_21 12:10;43;2;0;timed;57;94;1;84;86;93;39;0.78000000000000003;0.20000000000000001;0.01;0.0099999999999999603;9;83;0;0;0.46999999999999997;0.53000000000000003;0.0;0.0;0;1.6710478039044574;48;14;21;2;nein
2019_03_21 12:10;43;2;0;timed;58;48;1;13;32;0;0;0.90000000000000002;0.10000000000000001;0.0;0.0;24;99;84;94;0.62;0.14999999999999999;0.20000000000000001;0.029999999999999999;1;1.911339299573683;48;14;21;2;nein
2019_03_21 12:10;43;2;0;timed;59;45;0;97;87;0;0;0.71999999999999997;0.28000000000000003;0.0;0.0;96;11;14;4;0.25;0.029999999999999999;0.14000000000000001;0.57999999999999996;0;1.641028765986448;48;14;21;2;nein
2019_03_21 12:10;43;2;0;timed;60;81;0;67;38;52;65;0.27000000000000002;0.35999999999999999;0.01;0.35999999999999999;2;77;0;0;0.14000000000000001;0.85999999999999999;0.0;0.0;1;2.991902470439072;48;14;21;2;nein
2019_03_21 12:10;43;2;0;timed;61;29;1;44;51;0;0;0.78000000000000003;0.22;0.0;0.0;74;1;68;82;0.69999999999999996;0.28000000000000003;0.01;0.01;1;2.11134006930115;48;14;21;2;nein
2019_03_21 12:10;43;2;0;timed;62;12;1;53;68;0;0;0.31;0.68999999999999995;0.0;0.0;69;54;97;29;0.25;0.20999999999999999;0.20000000000000001;0.34000000000000002;1;3.9124428958675708;48;14;21;2;nein
2019_03_21 12:10;43;2;0;timed;63;50;0;15;20;0;0;0.82999999999999996;0.17000000000000001;0.0;0.0;97;18;88;87;0.56999999999999995;0.39000000000000001;0.01;0.029999999999999999;1;1.83109107539849;48;14;21;2;nein
2019_03_21 12:10;43;2;0;timed;64;4;1;40;43;0;0;0.58999999999999997;0.40999999999999998;0.0;0.0;2;33;88;81;0.69999999999999996;0.14000000000000001;0.13;0.029999999999999999;1;4.452852608797912;48;14;21;2;nein
2019_03_21 12:10;43;2;0;timed;65;28;0;47;30;0;0;0.97999999999999998;0.02;0.0;0.0;55;48;77;13;0.070000000000000007;0.26000000000000001;0.42999999999999999;0.23999999999999999;1;2.5516118086407005;48;14;21;2;nein
2019_03_21 12:10;43;2;0;timed;66;14;0;36;40;0;0;0.54000000000000004;0.46000000000000002;0.0;0.0;99;70;1;11;0.16;0.089999999999999997;0.080000000000000002;0.67000000000000004;0;4.632912313966699;48;14;21;2;nein
2019_03_21 12:10;43;2;0;timed;67;147;0;39;43;76;28;0.14000000000000001;0.10000000000000001;0.10000000000000001;0.66000000000000003;6;31;68;85;0.27000000000000002;0.20000000000000001;0.22;0.31;1;4.012633146759981;48;14;21;2;nein
2019_03_21 12:10;43;2;0;timed;68;51;1;52;23;43;16;0.60999999999999999;0.20999999999999999;0.01;0.17000000000000001;92;7;0;0;0.14999999999999999;0.84999999999999998;0.0;0.0;0;1.6411621853580982;48;14;21;2;nein
2019_03_21 12:10;43;2;0;timed;69;142;1;98;65;64;84;0.88;0.070000000000000007;0.01;0.040000000000000001;5;68;60;16;0.46000000000000002;0.080000000000000002;0.27000000000000002;0.19;0;2.041440185144893;48;14;21;2;nein
2019_03_21 12:10;43;2;0;timed;70;124;0;37;65;15;41;0.17999999999999999;0.45000000000000001;0.02;0.34999999999999998;40;7;98;30;0.070000000000000007;0.45000000000000001;0.45000000000000001;0.029999999999999898;0;3.522248642393606;48;14;21;2;nein
2019_03_21 12:10;43;2;0;timed;71;117;1;65;85;92;41;0.23000000000000001;0.17999999999999999;0.54000000000000004;0.050000000000000003;99;93;10;13;0.64000000000000001;0.16;0.01;0.19;1;1.8811512424035755;48;14;21;2;nein
2019_03_21 12:10;43;2;0;timed;72;37;1;14;98;0;0;0.93000000000000005;0.070000000000000007;0.0;0.0;41;2;87;66;0.17999999999999999;0.48999999999999999;0.32000000000000001;0.010000000000000101;1;2.7117298078119347;48;14;21;2;nein
2019_03_21 12:10;43;2;0;timed;73;91;0;74;81;86;48;0.93000000000000005;0.02;0.01;0.039999999999999897;7;64;0;0;0.13;0.87;0.0;0.0;0;3.952494685675447;48;14;21;2;nein
2019_03_21 12:10;43;2;0;timed;74;141;1;93;28;60;91;0.81999999999999995;0.10000000000000001;0.01;0.070000000000000007;14;85;7;89;0.45000000000000001;0.070000000000000007;0.23999999999999999;0.23999999999999999;0;2.0514238669293263;48;14;21;2;nein
2019_03_21 12:10;43;2;0;timed;75;99;1;8;24;15;73;0.56000000000000005;0.35999999999999999;0.070000000000000007;0.0099999999999999499;88;12;0;0;0.52000000000000002;0.47999999999999998;0.0;0.0;1;3.9925698880174423;48;14;21;2;nein
2019_03_21 12:10;43;3;0;control;1;93;1;87;81;73;98;0.80000000000000004;0.040000000000000001;0.14999999999999999;0.0099999999999999499;5;71;0;0;0.51000000000000001;0.48999999999999999;0.0;0.0;0;2.2393412033657114;48;14;21;2;nein
2019_03_21 12:10;43;3;0;control;2;139;0;44;31;16;8;0.79000000000000004;0.070000000000000007;0.13;0.0099999999999999499;92;58;2;88;0.55000000000000004;0.070000000000000007;0.34000000000000002;0.039999999999999897;1;2.932002624769666;48;14;21;2;nein
2019_03_21 12:10;43;3;0;control;3;144;1;99;93;90;71;0.65000000000000002;0.32000000000000001;0.01;0.02;97;14;48;73;0.23000000000000001;0.46000000000000002;0.13;0.17999999999999999;0;4.292826014725051;48;14;21;2;nein
2019_03_21 12:10;43;3;0;control;4;136;0;29;67;14;75;0.46000000000000002;0.29999999999999999;0.20999999999999999;0.0300000000000001;70;86;1;85;0.31;0.39000000000000001;0.27000000000000002;0.029999999999999898;0;2.851984677298333;48;14;21;2;nein
2019_03_21 12:10;43;3;0;control;5;117;0;65;85;92;41;0.23000000000000001;0.17999999999999999;0.54000000000000004;0.050000000000000003;99;93;10;13;0.64000000000000001;0.16;0.01;0.19;0;3.5622449477036753;48;14;21;2;nein
2019_03_21 12:10;43;3;0;control;6;94;1;84;86;93;39;0.78000000000000003;0.20000000000000001;0.01;0.0099999999999999603;9;83;0;0;0.46999999999999997;0.53000000000000003;0.0;0.0;0;3.0822697200887887;48;14;21;2;nein
2019_03_21 12:10;43;3;0;control;7;40;0;45;49;0;0;0.68999999999999995;0.31;0.0;0.0;2;92;65;73;0.23999999999999999;0.59999999999999998;0.11;0.050000000000000003;1;5.153530417692309;48;14;21;2;nein
2019_03_21 12:10;43;3;0;control;8;36;0;70;17;0;0;0.33000000000000002;0.67000000000000004;0.0;0.0;84;1;12;88;0.22;0.27000000000000002;0.14000000000000001;0.37;1;7.274868921881534;48;14;21;2;nein
2019_03_21 12:10;43;3;0;control;9;78;0;74;36;34;3;0.14999999999999999;0.64000000000000001;0.13;0.080000000000000002;1;83;0;0;0.41999999999999998;0.57999999999999996;0.0;0.0;0;2.791771809256261;48;14;21;2;nein
2019_03_21 12:10;43;3;0;control;10;125;0;37;41;10;35;0.91000000000000003;0.040000000000000001;0.029999999999999999;0.02;7;13;91;93;0.26000000000000001;0.39000000000000001;0.16;0.19;0;3.9225362637703256;48;14;21;2;nein
2019_03_21 12:10;43;3;0;control;11;67;0;44;42;8;89;0.88;0.070000000000000007;0.029999999999999999;0.02;10;63;0;0;0.39000000000000001;0.60999999999999999;0.0;0.0;0;3.08216676908296;48;14;21;2;nein
2019_03_21 12:10;43;3;0;control;12;129;0;12;29;81;36;0.17999999999999999;0.79000000000000004;0.01;0.02;5;19;95;92;0.47999999999999998;0.26000000000000001;0.13;0.13;0;2.6017723608943015;48;14;21;2;nein
2019_03_21 12:10;43;3;0;control;13;116;1;53;65;43;99;0.56999999999999995;0.37;0.050000000000000003;0.010000000000000101;57;72;11;87;0.67000000000000004;0.13;0.14999999999999999;0.050000000000000003;0;7.284722391490504;48;14;21;2;nein
2019_03_21 12:10;43;3;0;control;14;132;0;27;70;21;19;0.64000000000000001;0.23000000000000001;0.029999999999999999;0.10000000000000001;11;85;55;6;0.39000000000000001;0.46999999999999997;0.029999999999999999;0.11;0;4.202789747747829;48;14;21;2;nein
2019_03_21 12:10;43;3;0;control;15;16;0;64;53;0;0;0.65000000000000002;0.34999999999999998;0.0;0.0;29;17;81;46;0.10000000000000001;0.01;0.44;0.45000000000000001;1;7.685033746121007;48;14;21;2;nein
2019_03_21 12:10;43;3;0;control;16;127;1;89;26;62;79;0.02;0.28999999999999998;0.53000000000000003;0.16;96;6;60;13;0.53000000000000003;0.25;0.17000000000000001;0.050000000000000003;1;3.7624150574024497;48;14;21;2;nein
2019_03_21 12:10;43;3;0;control;17;72;1;63;82;51;61;0.01;0.96999999999999997;0.01;0.01;92;12;0;0;0.89000000000000001;0.11;0.0;0.0;1;2.5817649073696884;48;14;21;2;nein
2019_03_21 12:10;43;3;0;control;18;49;0;21;30;0;0;0.53000000000000003;0.46999999999999997;0.0;0.0;93;99;89;25;0.44;0.02;0.11;0.42999999999999999;1;4.793246798897144;48;14;21;2;nein
2019_03_21 12:10;43;3;0;control;19;75;1;67;80;36;81;0.81999999999999995;0.080000000000000002;0.059999999999999998;0.040000000000000001;3;97;0;0;0.32000000000000001;0.68000000000000005;0.0;0.0;1;3.7224110548213503;48;14;21;2;nein
2019_03_21 12:10;43;3;0;control;20;14;1;36;40;0;0;0.54000000000000004;0.46000000000000002;0.0;0.0;99;70;1;11;0.16;0.089999999999999997;0.080000000000000002;0.67000000000000004;1;5.043578102288848;48;14;21;2;nein
2019_03_21 12:10;43;3;0;control;21;28;0;47;30;0;0;0.97999999999999998;0.02;0.0;0.0;55;48;77;13;0.070000000000000007;0.26000000000000001;0.42999999999999999;0.23999999999999999;1;7.074616707953737;48;14;21;2;nein
2019_03_21 12:10;43;3;0;control;22;135;0;48;60;41;51;0.14000000000000001;0.40000000000000002;0.089999999999999997;0.37;94;1;85;65;0.64000000000000001;0.29999999999999999;0.01;0.050000000000000003;0;4.162692415750371;48;14;21;2;nein
2019_03_21 12:10;43;3;0;control;23;147;1;39;43;76;28;0.14000000000000001;0.10000000000000001;0.10000000000000001;0.66000000000000003;6;31;68;85;0.27000000000000002;0.20000000000000001;0.22;0.31;0;8.495655210988843;48;14;21;2;nein
2019_03_21 12:10;43;3;0;control;24;74;0;66;47;52;44;0.41999999999999998;0.26000000000000001;0.17999999999999999;0.14000000000000001;17;99;0;0;0.47999999999999998;0.52000000000000002;0.0;0.0;0;8.205479944117542;48;14;21;2;nein
2019_03_21 12:10;43;3;0;control;25;11;0;17;36;0;0;0.14000000000000001;0.85999999999999999;0.0;0.0;19;41;34;95;0.88;0.02;0.050000000000000003;0.050000000000000003;1;1.9512586321689014;48;14;21;2;nein
2019_03_21 12:10;43;3;0;control;26;104;1;55;85;93;3;0.87;0.02;0.089999999999999997;0.02;1;2;90;8;0.35999999999999999;0.070000000000000007;0.40000000000000002;0.17000000000000001;0;9.255959291697309;48;14;21;2;nein
2019_03_21 12:10;43;3;0;control;27;33;1;27;70;0;0;0.88;0.12;0.0;0.0;93;3;77;16;0.080000000000000002;0.40000000000000002;0.5;0.02;1;2.991906319075042;48;14;21;2;nein
2019_03_21 12:10;43;3;0;control;28;3;0;53;40;0;0;0.31;0.68999999999999995;0.0;0.0;96;24;7;88;0.11;0.27000000000000002;0.58999999999999997;0.029999999999999999;0;4.352933686723645;48;14;21;2;nein
2019_03_21 12:10;43;3;0;control;29;32;1;19;81;0;0;0.93000000000000005;0.070000000000000007;0.0;0.0;1;65;41;68;0.45000000000000001;0.050000000000000003;0.059999999999999998;0.44;1;2.761761430768729;48;14;21;2;nein
2019_03_21 12:10;43;3;0;control;30;21;1;64;28;0;0;0.080000000000000002;0.92000000000000004;0.0;0.0;50;1;88;13;0.57999999999999996;0.13;0.02;0.27000000000000002;1;4.71305694569719;48;14;21;2;nein
2019_03_21 12:10;43;3;0;control;31;99;1;8;24;15;73;0.56000000000000005;0.35999999999999999;0.070000000000000007;0.0099999999999999499;88;12;0;0;0.52000000000000002;0.47999999999999998;0.0;0.0;1;2.591760135061577;48;14;21;2;nein
2019_03_21 12:10;43;3;0;control;32;83;0;17;12;7;41;0.65000000000000002;0.19;0.089999999999999997;0.070000000000000007;6;84;0;0;0.72999999999999998;0.27000000000000002;0.0;0.0;0;2.751755940048497;48;14;21;2;nein
2019_03_21 12:10;43;3;0;control;33;42;0;70;48;0;0;0.79000000000000004;0.20999999999999999;0.0;0.0;51;8;12;67;0.19;0.26000000000000001;0.28999999999999998;0.26000000000000001;0;3.3521338119326174;48;14;21;2;nein
2019_03_21 12:10;43;3;0;control;34;76;1;39;62;9;28;0.01;0.51000000000000001;0.26000000000000001;0.22;77;7;0;0;0.57999999999999996;0.41999999999999998;0.0;0.0;0;5.72378277273674;48;14;21;2;nein
2019_03_21 12:10;43;3;0;control;35;60;0;64;59;57;96;0.83999999999999997;0.13;0.02;0.01;83;6;0;0;0.54000000000000004;0.46000000000000002;0.0;0.0;0;4.873292328257776;48;14;21;2;nein
2019_03_21 12:10;43;3;0;control;36;34;1;32;48;0;0;0.28000000000000003;0.71999999999999997;0.0;0.0;97;83;7;62;0.040000000000000001;0.54000000000000004;0.35999999999999999;0.059999999999999901;1;3.872462305820136;48;14;21;2;nein
2019_03_21 12:10;43;3;0;control;37;45;1;97;87;0;0;0.71999999999999997;0.28000000000000003;0.0;0.0;96;11;14;4;0.25;0.029999999999999999;0.14000000000000001;0.57999999999999996;0;2.6718746191454557;48;14;21;2;nein
2019_03_21 12:10;43;3;0;control;38;106;1;85;69;22;61;0.10000000000000001;0.58999999999999997;0.17999999999999999;0.13;20;79;91;84;0.55000000000000004;0.14999999999999999;0.26000000000000001;0.039999999999999897;0;4.6632289797134945;48;14;21;2;nein
2019_03_21 12:10;43;3;0;control;39;121;1;42;51;47;70;0.41999999999999998;0.17000000000000001;0.23999999999999999;0.17000000000000001;21;76;48;9;0.14999999999999999;0.34000000000000002;0.40999999999999998;0.10000000000000001;1;6.163994858222395;48;14;21;2;nein
2019_03_21 12:10;43;3;0;control;40;2;1;59;32;0;0;0.080000000000000002;0.92000000000000004;0.0;0.0;33;38;85;1;0.28999999999999998;0.050000000000000003;0.070000000000000007;0.58999999999999997;0;2.551601224892238;48;14;21;2;nein
2019_03_21 12:10;43;3;0;control;41;103;0;38;49;89;50;0.89000000000000001;0.070000000000000007;0.01;0.029999999999999999;6;64;99;27;0.70999999999999996;0.17999999999999999;0.059999999999999998;0.050000000000000003;0;2.6515708206702584;48;14;21;2;nein
2019_03_21 12:10;43;3;0;control;42;44;1;79;74;0;0;0.71999999999999997;0.28000000000000003;0.0;0.0;3;67;15;36;0.41999999999999998;0.53000000000000003;0.02;0.029999999999999999;0;4.79312043535765;48;14;21;2;nein
2019_03_21 12:10;43;3;0;control;43;7;1;49;29;0;0;0.95999999999999996;0.040000000000000001;0.0;0.0;23;99;64;25;0.68999999999999995;0.12;0.059999999999999998;0.13;1;3.6023153392507083;48;14;21;2;nein
2019_03_21 12:10;43;3;0;control;44;101;1;30;96;61;45;0.65000000000000002;0.14000000000000001;0.11;0.10000000000000001;3;98;63;89;0.75;0.19;0.040000000000000001;0.02;0;2.641905613491872;48;14;21;2;nein
2019_03_21 12:10;43;3;0;control;45;138;1;8;20;43;51;0.38;0.5;0.02;0.10000000000000001;72;82;70;1;0.39000000000000001;0.050000000000000003;0.070000000000000007;0.48999999999999999;0;5.963989277700875;48;14;21;2;nein
2019_03_21 12:10;43;3;0;control;46;123;1;26;24;51;92;0.72999999999999998;0.16;0.070000000000000007;0.040000000000000001;6;90;82;49;0.64000000000000001;0.25;0.050000000000000003;0.059999999999999998;0;4.2126829865924265;48;14;21;2;nein
2019_03_21 12:10;43;3;0;control;47;51;0;52;23;43;16;0.60999999999999999;0.20999999999999999;0.01;0.17000000000000001;92;7;0;0;0.14999999999999999;0.84999999999999998;0.0;0.0;0;2.5216219562103106;48;14;21;2;nein
2019_03_21 12:10;43;3;0;control;48;9;0;61;69;0;0;0.93999999999999995;0.060000000000000102;0.0;0.0;18;93;72;16;0.40999999999999998;0.34999999999999998;0.089999999999999997;0.14999999999999999;1;3.752417584673367;48;14;21;2;nein
2019_03_21 12:10;43;3;0;control;49;70;0;66;55;69;50;0.22;0.29999999999999999;0.29999999999999999;0.17999999999999999;2;90;0;0;0.34000000000000002;0.66000000000000003;0.0;0.0;1;1.721072371029095;48;14;21;2;nein
2019_03_21 12:10;43;3;0;control;50;96;1;51;54;39;7;0.17000000000000001;0.26000000000000001;0.10000000000000001;0.46999999999999997;24;96;0;0;0.28000000000000003;0.71999999999999997;0.0;0.0;1;2.671682187359238;48;14;21;2;nein
2019_03_21 12:10;43;3;0;control;51;68;0;84;27;55;62;0.01;0.050000000000000003;0.40999999999999998;0.53000000000000003;9;82;0;0;0.37;0.63;0.0;0.0;1;2.7018548499868302;48;14;21;2;nein
2019_03_21 12:10;43;3;0;control;52;118;1;62;52;65;68;0.40999999999999998;0.44;0.10000000000000001;0.0500000000000001;79;20;14;37;0.56999999999999995;0.23999999999999999;0.14000000000000001;0.050000000000000003;0;5.854759543654382;48;14;21;2;nein
2019_03_21 12:10;43;3;0;control;53;10;0;45;62;0;0;0.059999999999999998;0.93999999999999995;0.0;0.0;17;99;28;67;0.58999999999999997;0.34000000000000002;0.01;0.059999999999999998;0;3.832628605370246;48;14;21;2;nein
2019_03_21 12:10;43;3;0;control;54;105;0;49;74;63;58;0.84999999999999998;0.080000000000000002;0.02;0.050000000000000003;97;5;86;8;0.25;0.52000000000000002;0.070000000000000007;0.16;0;2.491566997692189;48;14;21;2;nein
2019_03_21 12:10;43;3;0;control;55;98;1;27;10;31;79;0.23000000000000001;0.67000000000000004;0.070000000000000007;0.029999999999999999;25;99;0;0;0.38;0.62;0.0;0.0;1;2.0714656374561855;48;14;21;2;nein
2019_03_21 12:10;43;3;0;control;56;30;0;33;30;0;0;0.71999999999999997;0.28000000000000003;0.0;0.0;9;88;1;14;0.55000000000000004;0.39000000000000001;0.01;0.049999999999999899;1;3.081972092259548;48;14;21;2;nein
2019_03_21 12:10;43;3;0;control;57;35;1;33;37;0;0;0.88;0.12;0.0;0.0;63;4;79;98;0.16;0.46000000000000002;0.17000000000000001;0.20999999999999999;1;4.673168081467793;48;14;21;2;nein
2019_03_21 12:10;43;3;0;control;58;126;0;16;55;51;42;0.68999999999999995;0.23999999999999999;0.01;0.060000000000000102;66;4;1;5;0.46999999999999997;0.38;0.089999999999999997;0.059999999999999998;0;5.083437460310961;48;14;21;2;nein
2019_03_21 12:10;43;3;0;control;59;1;1;22;51;0;0;0.26000000000000001;0.73999999999999999;0.0;0.0;14;11;92;31;0.29999999999999999;0.40999999999999998;0.14999999999999999;0.14000000000000001;1;2.511744432627438;48;14;21;2;nein
2019_03_21 12:10;43;3;0;control;60;66;1;89;23;27;15;0.070000000000000007;0.54000000000000004;0.17000000000000001;0.22;9;73;0;0;0.72999999999999998;0.27000000000000002;0.0;0.0;0;2.3914912437126077;48;14;21;2;nein
2019_03_21 12:10;43;3;0;control;61;26;1;76;41;0;0;0.57999999999999996;0.41999999999999998;0.0;0.0;61;79;84;2;0.13;0.029999999999999999;0.67000000000000004;0.17000000000000001;1;5.714064967536615;48;14;21;2;nein
2019_03_21 12:10;43;3;0;control;62;84;1;43;10;5;45;0.78000000000000003;0.13;0.059999999999999998;0.029999999999999999;87;1;0;0;0.57999999999999996;0.41999999999999998;0.0;0.0;1;2.511551359402347;48;14;21;2;nein
2019_03_21 12:10;43;3;0;control;63;80;1;47;39;45;10;0.13;0.76000000000000001;0.059999999999999998;0.050000000000000003;2;87;0;0;0.48999999999999999;0.51000000000000001;0.0;0.0;0;6.594417938747938;48;14;21;2;nein
2019_03_21 12:10;43;3;0;control;64;38;1;40;70;0;0;0.53000000000000003;0.46999999999999997;0.0;0.0;97;90;6;96;0.56999999999999995;0.070000000000000007;0.27000000000000002;0.089999999999999997;1;4.312780228788597;48;14;21;2;nein
2019_03_21 12:10;43;3;0;control;65;4;1;40;43;0;0;0.58999999999999997;0.40999999999999998;0.0;0.0;2;33;88;81;0.69999999999999996;0.14000000000000001;0.13;0.029999999999999999;0;4.442988555440024;48;14;21;2;nein
2019_03_21 12:10;43;3;0;control;66;23;0;54;40;0;0;0.93000000000000005;0.070000000000000007;0.0;0.0;36;23;71;86;0.02;0.41999999999999998;0.19;0.37;1;5.753881669846123;48;14;21;2;nein
2019_03_21 12:10;43;3;0;control;67;79;0;52;46;29;22;0.17999999999999999;0.51000000000000001;0.23999999999999999;0.070000000000000104;93;14;0;0;0.45000000000000001;0.55000000000000004;0.0;0.0;1;4.993366876331947;48;14;21;2;nein
2019_03_21 12:10;43;3;0;control;68;119;1;60;58;11;18;0.25;0.72999999999999998;0.01;0.01;96;23;42;85;0.44;0.48999999999999999;0.059999999999999998;0.010000000000000101;0;2.571768076079934;48;14;21;2;nein
2019_03_21 12:10;43;3;0;control;69;110;0;47;44;23;52;0.13;0.27000000000000002;0.040000000000000001;0.56000000000000005;99;2;30;22;0.28999999999999998;0.5;0.11;0.10000000000000001;0;3.212041547305489;48;14;21;2;nein
2019_03_21 12:10;43;3;0;control;70;61;1;43;18;39;70;0.75;0.089999999999999997;0.089999999999999997;0.070000000000000007;16;66;0;0;0.64000000000000001;0.35999999999999999;0.0;0.0;0;4.693143783747473;48;14;21;2;nein
2019_03_21 12:10;43;3;0;control;71;91;1;74;81;86;48;0.93000000000000005;0.02;0.01;0.039999999999999897;7;64;0;0;0.13;0.87;0.0;0.0;0;5.1132993456035365;48;14;21;2;nein
2019_03_21 12:10;43;3;0;control;72;58;1;37;58;76;34;0.20999999999999999;0.57999999999999996;0.19;0.020000000000000101;86;5;0;0;0.47999999999999998;0.52000000000000002;0.0;0.0;0;5.033377934744749;48;14;21;2;nein
2019_03_21 12:10;43;3;0;control;73;149;1;14;89;73;53;0.93999999999999995;0.01;0.01;0.040000000000000001;97;45;6;13;0.34000000000000002;0.01;0.40999999999999998;0.23999999999999999;1;6.404294692602889;48;14;21;2;nein
2019_03_21 12:10;43;3;0;control;74;53;1;26;70;50;80;0.29999999999999999;0.59999999999999998;0.040000000000000001;0.059999999999999998;89;1;0;0;0.40999999999999998;0.58999999999999997;0.0;0.0;0;2.3714886009820475;48;14;21;2;nein
2019_03_21 12:10;43;3;0;control;75;55;0;74;55;47;48;0.60999999999999999;0.31;0.070000000000000007;0.01;97;6;0;0;0.42999999999999999;0.56999999999999995;0.0;0.0;0;5.073265195375825;48;14;21;2;nein
2019_03_21 12:10;43;4;0;timed;1;46;1;5;19;0;0;0.32000000000000001;0.68000000000000005;0.0;0.0;88;38;97;66;0.60999999999999999;0.20000000000000001;0.040000000000000001;0.14999999999999999;0;1.9568490962760734;48;14;21;2;nein
2019_03_21 12:10;43;4;0;timed;2;9;0;61;69;0;0;0.93999999999999995;0.060000000000000102;0.0;0.0;18;93;72;16;0.40999999999999998;0.34999999999999998;0.089999999999999997;0.14999999999999999;0;1.630995372657253;48;14;21;2;nein
2019_03_21 12:10;43;4;0;timed;3;145;1;91;89;90;74;0.57999999999999996;0.29999999999999999;0.11;0.010000000000000101;2;75;84;39;0.32000000000000001;0.27000000000000002;0.39000000000000001;0.0199999999999999;0;2.1313407877132704;48;14;21;2;nein
2019_03_21 12:10;43;4;0;timed;4;40;0;45;49;0;0;0.68999999999999995;0.31;0.0;0.0;2;92;65;73;0.23999999999999999;0.59999999999999998;0.11;0.050000000000000003;1;1.6810141668279357;48;14;21;2;nein
2019_03_21 12:10;43;4;0;timed;5;76;1;39;62;9;28;0.01;0.51000000000000001;0.26000000000000001;0.22;77;7;0;0;0.57999999999999996;0.41999999999999998;0.0;0.0;1;2.9118203790394546;48;14;21;2;nein
2019_03_21 12:10;43;4;0;timed;6;133;1;59;88;60;36;0.67000000000000004;0.070000000000000007;0.12;0.14000000000000001;7;91;66;61;0.25;0.68999999999999995;0.01;0.0500000000000001;1;3.922988799187351;48;14;21;2;nein
2019_03_21 12:10;43;4;0;timed;7;23;1;54;40;0;0;0.93000000000000005;0.070000000000000007;0.0;0.0;36;23;71;86;0.02;0.41999999999999998;0.19;0.37;1;1.951230088121065;48;14;21;2;nein
2019_03_21 12:10;43;4;0;timed;8;49;1;21;30;0;0;0.53000000000000003;0.46999999999999997;0.0;0.0;93;99;89;25;0.44;0.02;0.11;0.42999999999999999;1;1.6411602610401133;48;14;21;2;nein
2019_03_21 12:10;43;4;0;timed;9;17;0;81;52;0;0;0.059999999999999998;0.93999999999999995;0.0;0.0;34;3;69;41;0.01;0.22;0.75;0.02;1;2.871979622756953;48;14;21;2;nein
2019_03_21 12:10;43;4;0;timed;10;136;0;29;67;14;75;0.46000000000000002;0.29999999999999999;0.20999999999999999;0.0300000000000001;70;86;1;85;0.31;0.39000000000000001;0.27000000000000002;0.029999999999999898;0;2.33152436763703;48;14;21;2;nein
2019_03_21 12:10;43;4;0;timed;11;149;1;14;89;73;53;0.93999999999999995;0.01;0.01;0.040000000000000001;97;45;6;13;0.34000000000000002;0.01;0.40999999999999998;0.23999999999999999;0;1.6410149750417986;48;14;21;2;nein
2019_03_21 12:10;43;4;0;timed;12;139;1;44;31;16;8;0.79000000000000004;0.070000000000000007;0.13;0.0099999999999999499;92;58;2;88;0.55000000000000004;0.070000000000000007;0.34000000000000002;0.039999999999999897;0;1.9714088059354253;48;14;21;2;nein
2019_03_21 12:10;43;4;0;timed;13;27;1;44;26;0;0;0.35999999999999999;0.64000000000000001;0.0;0.0;63;10;3;5;0.58999999999999997;0.19;0.14999999999999999;0.070000000000000007;0;2.7617155678599374;48;14;21;2;nein
2019_03_21 12:10;43;4;0;timed;14;135;1;48;60;41;51;0.14000000000000001;0.40000000000000002;0.089999999999999997;0.37;94;1;85;65;0.64000000000000001;0.29999999999999999;0.01;0.050000000000000003;1;1.480935462227535;48;14;21;2;nein
2019_03_21 12:10;43;4;0;timed;15;144;0;99;93;90;71;0.65000000000000002;0.32000000000000001;0.01;0.02;97;14;48;73;0.23000000000000001;0.46000000000000002;0.13;0.17999999999999999;0;1.6511667139193378;48;14;21;2;nein
2019_03_21 12:10;43;4;0;timed;16;110;1;47;44;23;52;0.13;0.27000000000000002;0.040000000000000001;0.56000000000000005;99;2;30;22;0.28999999999999998;0.5;0.11;0.10000000000000001;0;4.0526333007055655;48;14;21;2;nein
2019_03_21 12:10;43;4;0;timed;17;41;1;99;40;0;0;0.89000000000000001;0.11;0.0;0.0;1;67;52;46;0.51000000000000001;0.38;0.029999999999999999;0.080000000000000002;0;1.6410355010989406;48;14;21;2;nein
2019_03_21 12:10;43;4;0;timed;18;114;0;57;39;79;97;0.77000000000000002;0.02;0.13;0.080000000000000002;92;36;6;1;0.54000000000000004;0.12;0.13;0.20999999999999999;0;2.2514182222639647;48;14;21;2;nein
2019_03_21 12:10;43;4;0;timed;19;79;0;52;46;29;22;0.17999999999999999;0.51000000000000001;0.23999999999999999;0.070000000000000104;93;14;0;0;0.45000000000000001;0.55000000000000004;0.0;0.0;1;1.5110702799370301;48;14;21;2;nein
2019_03_21 12:10;43;4;0;timed;20;111;1;51;36;48;27;0.93000000000000005;0.01;0.01;0.049999999999999899;31;78;30;53;0.55000000000000004;0.16;0.029999999999999999;0.26000000000000001;1;2.3215964910705225;48;14;21;2;nein
2019_03_21 12:10;43;4;0;timed;21;56;0;28;84;37;41;0.68000000000000005;0.28000000000000003;0.02;0.0199999999999999;6;95;0;0;0.72999999999999998;0.27000000000000002;0.0;0.0;0;1.5510976950517943;48;14;21;2;nein
2019_03_21 12:10;43;4;0;timed;22;80;1;47;39;45;10;0.13;0.76000000000000001;0.059999999999999998;0.050000000000000003;2;87;0;0;0.48999999999999999;0.51000000000000001;0.0;0.0;1;2.581779339753666;48;14;21;2;nein
2019_03_21 12:10;43;4;0;timed;23;112;1;70;44;98;64;0.02;0.75;0.12;0.11;33;2;63;85;0.23999999999999999;0.31;0.080000000000000002;0.37;0;2.401519505527176;48;14;21;2;nein
2019_03_21 12:10;43;4;0;timed;24;55;1;74;55;47;48;0.60999999999999999;0.31;0.070000000000000007;0.01;97;6;0;0;0.42999999999999999;0.56999999999999995;0.0;0.0;0;2.351578646229882;48;14;21;2;nein
2019_03_21 12:10;43;4;0;timed;25;127;0;89;26;62;79;0.02;0.28999999999999998;0.53000000000000003;0.16;96;6;60;13;0.53000000000000003;0.25;0.17000000000000001;0.050000000000000003;0;1.6111248664201412;48;14;21;2;nein
2019_03_21 12:10;43;4;0;timed;26;68;0;84;27;55;62;0.01;0.050000000000000003;0.40999999999999998;0.53000000000000003;9;82;0;0;0.37;0.63;0.0;0.0;1;2.4016859590224158;48;14;21;2;nein
2019_03_21 12:10;43;4;0;timed;27;97;0;17;33;32;74;0.94999999999999996;0.01;0.029999999999999999;0.01;76;23;0;0;0.33000000000000002;0.67000000000000004;0.0;0.0;0;1.9113277536666828;48;14;21;2;nein
2019_03_21 12:10;43;4;0;timed;28;87;1;10;30;63;4;0.56999999999999995;0.12;0.16;0.14999999999999999;86;2;0;0;0.42999999999999999;0.56999999999999995;0.0;0.0;0;2.2315512439436134;48;14;21;2;nein
2019_03_21 12:10;43;4;0;timed;29;92;0;90;86;65;94;0.16;0.34000000000000002;0.28000000000000003;0.22;79;22;0;0;0.35999999999999999;0.64000000000000001;0.0;0.0;0;1.8311395040650496;48;14;21;2;nein
2019_03_21 12:10;43;4;0;timed;30;36;0;70;17;0;0;0.33000000000000002;0.67000000000000004;0.0;0.0;84;1;12;88;0.22;0.27000000000000002;0.14000000000000001;0.37;1;4.032615584152154;48;14;21;2;nein
2019_03_21 12:10;43;4;0;timed;31;96;1;51;54;39;7;0.17000000000000001;0.26000000000000001;0.10000000000000001;0.46999999999999997;24;96;0;0;0.28000000000000003;0.71999999999999997;0.0;0.0;1;1.5209433134441497;48;14;21;2;nein
2019_03_21 12:10;43;4;0;timed;32;103;1;38;49;89;50;0.89000000000000001;0.070000000000000007;0.01;0.029999999999999999;6;64;99;27;0.70999999999999996;0.17999999999999999;0.059999999999999998;0.050000000000000003;0;1.8111448793260934;48;14;21;2;nein
2019_03_21 12:10;43;4;0;timed;33;77;0;24;17;99;41;0.17999999999999999;0.13;0.10000000000000001;0.58999999999999997;12;97;0;0;0.59999999999999998;0.40000000000000002;0.0;0.0;0;2.8317985829326062;48;14;21;2;nein
2019_03_21 12:10;43;4;0;timed;34;42;1;70;48;0;0;0.79000000000000004;0.20999999999999999;0.0;0.0;51;8;12;67;0.19;0.26000000000000001;0.28999999999999998;0.26000000000000001;0;3.7924514141809595;48;14;21;2;nein
2019_03_21 12:10;43;4;0;timed;35;100;1;27;14;59;52;0.02;0.95999999999999996;0.01;0.01;17;98;0;0;0.48999999999999999;0.51000000000000001;0.0;0.0;1;2.751769089553818;48;14;21;2;nein
2019_03_21 12:10;43;4;0;timed;36;35;1;33;37;0;0;0.88;0.12;0.0;0.0;63;4;79;98;0.16;0.46000000000000002;0.17000000000000001;0.20999999999999999;1;1.51116328863327;48;14;21;2;nein
2019_03_21 12:10;43;4;0;timed;37;71;1;68;55;36;51;0.20000000000000001;0.75;0.02;0.029999999999999999;38;81;0;0;0.52000000000000002;0.47999999999999998;0.0;0.0;0;4.392849491402558;48;14;21;2;nein
2019_03_21 12:10;43;4;0;timed;38;67;0;44;42;8;89;0.88;0.070000000000000007;0.029999999999999999;0.02;10;63;0;0;0.39000000000000001;0.60999999999999999;0.0;0.0;0;2.63173174495887;48;14;21;2;nein
2019_03_21 12:10;43;4;0;timed;39;105;0;49;74;63;58;0.84999999999999998;0.080000000000000002;0.02;0.050000000000000003;97;5;86;8;0.25;0.52000000000000002;0.070000000000000007;0.16;0;2.8122093478232273;48;14;21;2;nein
2019_03_21 12:10;43;4;0;timed;40;24;0;35;27;0;0;0.070000000000000007;0.93000000000000005;0.0;0.0;62;3;81;95;0.35999999999999999;0.55000000000000004;0.01;0.080000000000000002;1;1.7210749367864082;48;14;21;2;nein
2019_03_21 12:10;43;4;0;timed;41;116;0;53;65;43;99;0.56999999999999995;0.37;0.050000000000000003;0.010000000000000101;57;72;11;87;0.67000000000000004;0.13;0.14999999999999999;0.050000000000000003;1;2.9318855620995237;48;14;21;2;nein
2019_03_21 12:10;43;4;0;timed;42;93;0;87;81;73;98;0.80000000000000004;0.040000000000000001;0.14999999999999999;0.0099999999999999499;5;71;0;0;0.51000000000000001;0.48999999999999999;0.0;0.0;0;1.711239106757148;48;14;21;2;nein
2019_03_21 12:10;43;4;0;timed;43;75;1;67;80;36;81;0.81999999999999995;0.080000000000000002;0.059999999999999998;0.040000000000000001;3;97;0;0;0.32000000000000001;0.68000000000000005;0.0;0.0;1;2.031401018862198;48;14;21;2;nein
2019_03_21 12:10;43;4;0;timed;44;22;1;32;55;0;0;0.39000000000000001;0.60999999999999999;0.0;0.0;93;72;59;22;0.20000000000000001;0.11;0.14000000000000001;0.55000000000000004;1;2.2815803011430944;48;14;21;2;nein
2019_03_21 12:10;43;4;0;timed;45;119;1;60;58;11;18;0.25;0.72999999999999998;0.01;0.01;96;23;42;85;0.44;0.48999999999999999;0.059999999999999998;0.010000000000000101;1;2.3717592883617726;48;14;21;2;nein
2019_03_21 12:10;43;4;0;timed;46;113;1;85;65;39;64;0.44;0.34000000000000002;0.13;0.089999999999999997;87;2;4;35;0.67000000000000004;0.17000000000000001;0.11;0.049999999999999899;1;2.2113712432505963;48;14;21;2;nein
2019_03_21 12:10;43;4;0;timed;47;58;1;37;58;76;34;0.20999999999999999;0.57999999999999996;0.19;0.020000000000000101;86;5;0;0;0.47999999999999998;0.52000000000000002;0.0;0.0;0;2.831807242362629;48;14;21;2;nein
2019_03_21 12:10;43;4;0;timed;48;84;1;43;10;5;45;0.78000000000000003;0.13;0.059999999999999998;0.029999999999999999;87;1;0;0;0.57999999999999996;0.41999999999999998;0.0;0.0;1;2.7518806999901244;48;14;21;2;nein
2019_03_21 12:10;43;4;0;timed;49;59;0;56;47;83;90;0.31;0.12;0.54000000000000004;0.029999999999999898;10;98;0;0;0.46999999999999997;0.53000000000000003;0.0;0.0;1;3.0420110661107174;48;14;21;2;nein
2019_03_21 12:10;43;4;0;timed;50;126;1;16;55;51;42;0.68999999999999995;0.23999999999999999;0.01;0.060000000000000102;66;4;1;5;0.46999999999999997;0.38;0.089999999999999997;0.059999999999999998;1;2.6818329640782395;48;14;21;2;nein
2019_03_21 12:10;43;4;0;timed;51;102;0;40;56;53;17;0.28000000000000003;0.26000000000000001;0.14999999999999999;0.31;1;76;29;62;0.68000000000000005;0.23000000000000001;0.050000000000000003;0.039999999999999897;0;3.041959430247971;48;14;21;2;nein
2019_03_21 12:10;43;4;0;timed;52;109;1;75;28;16;56;0.19;0.070000000000000007;0.059999999999999998;0.68000000000000005;3;50;98;44;0.5;0.02;0.34999999999999998;0.13;0;2.321638505343799;48;14;21;2;nein
2019_03_21 12:10;43;4;0;timed;53;74;0;66;47;52;44;0.41999999999999998;0.26000000000000001;0.17999999999999999;0.14000000000000001;17;99;0;0;0.47999999999999998;0.52000000000000002;0.0;0.0;1;2.1613595049116157;48;14;21;2;nein
2019_03_21 12:10;43;4;0;timed;54;6;1;9;51;0;0;0.14999999999999999;0.84999999999999998;0.0;0.0;6;40;50;73;0.42999999999999999;0.26000000000000001;0.059999999999999998;0.25;1;2.6317984546444677;48;14;21;2;nein
2019_03_21 12:10;43;4;0;timed;55;118;0;62;52;65;68;0.40999999999999998;0.44;0.10000000000000001;0.0500000000000001;79;20;14;37;0.56999999999999995;0.23999999999999999;0.14000000000000001;0.050000000000000003;0;2.721857492716481;48;14;21;2;nein
2019_03_21 12:10;43;4;0;timed;56;25;0;50;53;0;0;0.82999999999999996;0.17000000000000001;0.0;0.0;83;16;97;4;0.45000000000000001;0.29999999999999999;0.11;0.14000000000000001;1;2.7117092817547928;48;14;21;2;nein
2019_03_21 12:10;43;4;0;timed;57;134;0;57;48;50;55;0.02;0.62;0.17999999999999999;0.17999999999999999;80;96;15;18;0.23999999999999999;0.35999999999999999;0.33000000000000002;0.070000000000000007;1;2.491723829597504;48;14;21;2;nein
2019_03_21 12:10;43;4;0;timed;58;73;1;65;68;70;47;0.25;0.23000000000000001;0.20999999999999999;0.31;27;95;0;0;0.45000000000000001;0.55000000000000004;0.0;0.0;1;1.7912499983963244;48;14;21;2;nein
2019_03_21 12:10;43;4;0;timed;59;61;0;43;18;39;70;0.75;0.089999999999999997;0.089999999999999997;0.070000000000000007;16;66;0;0;0.64000000000000001;0.35999999999999999;0.0;0.0;0;1.9514818530410594;48;14;21;2;nein
2019_03_21 12:10;43;4;0;timed;60;47;0;2;40;0;0;0.45000000000000001;0.55000000000000004;0.0;0.0;93;89;11;56;0.58999999999999997;0.070000000000000007;0.28000000000000003;0.059999999999999998;1;1.8311565022058858;48;14;21;2;nein
2019_03_21 12:10;43;4;0;timed;61;143;0;88;44;56;73;0.95999999999999996;0.02;0.01;0.01;20;3;87;32;0.19;0.40000000000000002;0.28000000000000003;0.13;0;2.2814683699875786;48;14;21;2;nein
2019_03_21 12:10;43;4;0;timed;62;107;0;52;48;13;63;0.68000000000000005;0.19;0.050000000000000003;0.079999999999999905;54;91;33;3;0.19;0.17999999999999999;0.33000000000000002;0.29999999999999999;0;4.14273820168637;48;14;21;2;nein
2019_03_21 12:10;43;4;0;timed;63;85;0;31;22;82;50;0.11;0.69999999999999996;0.01;0.17999999999999999;3;99;0;0;0.62;0.38;0.0;0.0;0;2.031284597631384;48;14;21;2;nein
2019_03_21 12:10;43;4;0;timed;64;44;1;79;74;0;0;0.71999999999999997;0.28000000000000003;0.0;0.0;3;67;15;36;0.41999999999999998;0.53000000000000003;0.02;0.029999999999999999;0;1.5909743719344078;48;14;21;2;nein
2019_03_21 12:10;43;4;0;timed;65;78;0;74;36;34;3;0.14999999999999999;0.64000000000000001;0.13;0.080000000000000002;1;83;0;0;0.41999999999999998;0.57999999999999996;0.0;0.0;0;1.5208509461872382;48;14;21;2;nein
2019_03_21 12:10;43;4;0;timed;66;8;0;50;36;0;0;0.080000000000000002;0.92000000000000004;0.0;0.0;6;19;84;29;0.54000000000000004;0.070000000000000007;0.17000000000000001;0.22;0;2.95188595979198;48;14;21;2;nein
2019_03_21 12:10;43;4;0;timed;67;32;1;19;81;0;0;0.93000000000000005;0.070000000000000007;0.0;0.0;1;65;41;68;0.45000000000000001;0.050000000000000003;0.059999999999999998;0.44;1;3.242194966754141;48;14;21;2;nein
2019_03_21 12:10;43;4;0;timed;68;15;1;77;81;0;0;0.28000000000000003;0.71999999999999997;0.0;0.0;98;14;87;18;0.55000000000000004;0.23000000000000001;0.16;0.059999999999999901;0;2.071443507800268;48;14;21;2;nein
2019_03_21 12:10;43;4;0;timed;69;70;0;66;55;69;50;0.22;0.29999999999999999;0.29999999999999999;0.17999999999999999;2;90;0;0;0.34000000000000002;0.66000000000000003;0.0;0.0;1;1.8711569768711342;48;14;21;2;nein
2019_03_21 12:10;43;4;0;timed;70;104;0;55;85;93;3;0.87;0.02;0.089999999999999997;0.02;1;2;90;8;0.35999999999999999;0.070000000000000007;0.40000000000000002;0.17000000000000001;0;3.452313799796684;48;14;21;2;nein
2019_03_21 12:10;43;4;0;timed;71;121;0;42;51;47;70;0.41999999999999998;0.17000000000000001;0.23999999999999999;0.17000000000000001;21;76;48;9;0.14999999999999999;0.34000000000000002;0.40999999999999998;0.10000000000000001;0;2.9320391868091065;48;14;21;2;nein
2019_03_21 12:10;43;4;0;timed;72;129;0;12;29;81;36;0.17999999999999999;0.79000000000000004;0.01;0.02;5;19;95;92;0.47999999999999998;0.26000000000000001;0.13;0.13;0;3.212401394745484;48;14;21;2;nein
2019_03_21 12:10;43;4;0;timed;73;98;0;27;10;31;79;0.23000000000000001;0.67000000000000004;0.070000000000000007;0.029999999999999999;25;99;0;0;0.38;0.62;0.0;0.0;1;2.111317939645687;48;14;21;2;nein
2019_03_21 12:10;43;4;0;timed;74;20;0;44;40;0;0;0.91000000000000003;0.089999999999999997;0.0;0.0;29;5;80;99;0.25;0.40000000000000002;0.26000000000000001;0.089999999999999997;1;3.272078019543187;48;14;21;2;nein
2019_03_21 12:10;43;4;0;timed;75;63;1;56;78;42;36;0.93000000000000005;0.040000000000000001;0.01;0.0199999999999999;2;72;0;0;0.32000000000000001;0.68000000000000005;0.0;0.0;1;2.0713001461199383;48;14;21;2;nein
