date;id;block;order;cond;trial;gameid;leftright;oa1;oa2;oa3;oa4;pa1;pa2;pa3;pa4;ob1;ob2;ob3;ob4;pb1;pb2;pb3;pb4;choice;rt;paytrial;payout;alter;geschlecht;comment
2019_03_25 11:51;57;0;0;practice;1;47;1;91;99;90;78;0.93000000000000005;0.040000000000000001;0.02;0.0099999999999999499;10;87;0;0;0.23000000000000001;0.77000000000000002;0.0;0.0;1;11.340271699580057;62;22;20;2;
2019_03_25 11:51;57;0;0;practice;2;40;0;29;65;30;41;0.70999999999999996;0.01;0.14999999999999999;0.13;2;59;0;0;0.32000000000000001;0.68000000000000005;0.0;0.0;0;11.099623820811757;62;22;20;2;
2019_03_25 11:51;57;0;0;practice;3;45;1;37;40;75;23;0.54000000000000004;0.38;0.059999999999999998;0.02;1;90;0;0;0.28000000000000003;0.71999999999999997;0.0;0.0;0;6.88310381666804;62;22;20;2;
2019_03_25 11:51;57;0;0;practice;4;41;0;19;54;51;8;0.76000000000000001;0.070000000000000007;0.16;0.0099999999999999794;2;77;0;0;0.54000000000000004;0.46000000000000002;0.0;0.0;0;6.64978387897861;62;22;20;2;
2019_03_25 11:51;57;0;0;practice;5;59;0;13;27;48;51;0.56999999999999995;0.13;0.13;0.17000000000000001;8;37;97;1;0.65000000000000002;0.16;0.14999999999999999;0.040000000000000001;0;10.732969544848515;62;22;20;2;
2019_03_25 11:51;57;0;0;practice;6;20;0;32;11;0;0;0.40999999999999998;0.58999999999999997;0.0;0.0;1;86;42;65;0.45000000000000001;0.38;0.050000000000000003;0.12;0;3.3999071178336635;62;22;20;2;
2019_03_25 11:51;57;0;0;practice;7;74;1;36;46;10;12;0.11;0.19;0.65000000000000002;0.049999999999999899;92;24;79;19;0.51000000000000001;0.40999999999999998;0.02;0.059999999999999998;1;5.533236645221905;62;22;20;2;
2019_03_25 11:51;57;0;0;practice;8;63;1;24;82;6;96;0.91000000000000003;0.070000000000000007;0.01;0.0099999999999999603;73;10;71;22;0.31;0.51000000000000001;0.050000000000000003;0.13;1;24.96590813966577;62;22;20;2;
2019_03_25 11:51;57;0;0;practice;9;66;1;44;18;63;36;0.47999999999999998;0.10000000000000001;0.029999999999999999;0.39000000000000001;13;93;61;53;0.52000000000000002;0.45000000000000001;0.02;0.0099999999999999707;0;8.399915135976471;62;22;20;2;
2019_03_25 11:51;57;0;0;practice;10;43;1;11;17;21;44;0.16;0.46000000000000002;0.25;0.13;2;66;0;0;0.44;0.56000000000000005;0.0;0.0;0;5.966401736537364;62;22;20;2;
2019_03_25 11:51;57;0;0;practice;11;16;0;50;42;0;0;0.32000000000000001;0.68000000000000005;0.0;0.0;97;2;56;31;0.35999999999999999;0.16;0.16;0.32000000000000001;0;6.94979199333909;62;22;20;2;
2019_03_25 11:51;57;0;0;practice;12;11;0;10;44;0;0;0.48999999999999999;0.51000000000000001;0.0;0.0;88;12;54;50;0.17000000000000001;0.75;0.02;0.059999999999999998;1;9.249722812803043;62;22;20;2;
2019_03_25 11:51;57;0;0;practice;13;10;1;34;59;0;0;0.16;0.83999999999999997;0.0;0.0;21;61;96;7;0.19;0.01;0.5;0.29999999999999999;0;9.883020107257039;62;22;20;2;
2019_03_25 11:51;57;0;0;practice;14;9;1;57;44;0;0;0.14999999999999999;0.84999999999999998;0.0;0.0;38;35;64;95;0.34000000000000002;0.45000000000000001;0.089999999999999997;0.12;0;4.599855224413318;62;22;20;2;
2019_03_25 11:51;57;0;0;practice;15;8;0;20;44;0;0;0.26000000000000001;0.73999999999999999;0.0;0.0;99;3;69;24;0.20999999999999999;0.60999999999999999;0.12;0.060000000000000102;0;3.4998487778265144;62;22;20;2;
2019_03_25 11:51;57;0;0;practice;16;28;0;37;83;75;8;0.83999999999999997;0.070000000000000007;0.01;0.080000000000000002;94;2;0;0;0.19;0.81000000000000005;0.0;0.0;0;3.2165713202576853;62;22;20;2;
2019_03_25 11:51;57;0;0;practice;17;36;1;56;89;86;77;0.66000000000000003;0.080000000000000002;0.14999999999999999;0.11;29;91;0;0;0.40999999999999998;0.58999999999999997;0.0;0.0;0;8.04982506016006;62;22;20;2;
2019_03_25 11:51;57;0;0;practice;18;71;0;94;87;26;75;0.71999999999999997;0.23999999999999999;0.02;0.02;90;27;12;83;0.16;0.73999999999999999;0.02;0.080000000000000002;0;8.366478518272856;62;22;20;2;
2019_03_25 11:51;57;0;0;practice;19;75;0;21;86;27;62;0.88;0.040000000000000001;0.070000000000000007;0.0099999999999999794;13;3;49;87;0.28999999999999998;0.39000000000000001;0.070000000000000007;0.25;0;5.19974220067229;62;22;20;2;
2019_03_25 11:51;57;0;0;practice;20;27;1;68;43;98;36;0.54000000000000004;0.44;0.01;0.0099999999999999603;97;13;0;0;0.27000000000000002;0.72999999999999998;0.0;0.0;0;4.6164765137372115;62;22;20;2;
2019_03_25 11:51;57;0;0;practice;21;57;0;39;68;59;91;0.73999999999999999;0.040000000000000001;0.14999999999999999;0.070000000000000007;9;22;40;84;0.29999999999999999;0.32000000000000001;0.040000000000000001;0.34000000000000002;0;11.299775908944753;62;22;20;2;
2019_03_25 11:51;57;0;0;practice;22;50;1;17;12;21;14;0.55000000000000004;0.34000000000000002;0.059999999999999998;0.049999999999999899;13;93;0;0;0.28999999999999998;0.70999999999999996;0.0;0.0;1;6.183257219776351;62;22;20;2;
2019_03_25 11:51;57;0;0;practice;23;42;1;23;45;91;22;0.72999999999999998;0.02;0.20000000000000001;0.050000000000000003;2;86;0;0;0.40999999999999998;0.58999999999999997;0.0;0.0;0;5.716498355158137;62;22;20;2;
2019_03_25 11:51;57;0;0;practice;24;39;0;53;65;48;75;0.92000000000000004;0.029999999999999999;0.01;0.040000000000000001;16;83;0;0;0.31;0.68999999999999995;0.0;0.0;0;7.099698870628572;62;22;20;2;
2019_03_25 11:51;57;0;0;practice;25;37;0;50;66;99;12;0.26000000000000001;0.71999999999999997;0.01;0.01;22;90;0;0;0.37;0.63;0.0;0.0;1;8.516307459214204;62;22;20;2;
2019_03_25 11:51;57;0;0;practice;26;19;0;25;73;0;0;0.69999999999999996;0.29999999999999999;0.0;0.0;87;84;1;86;0.040000000000000001;0.59999999999999998;0.28000000000000003;0.080000000000000002;0;11.416244244176141;62;22;20;2;
2019_03_25 11:51;57;0;0;practice;27;33;1;54;82;55;71;0.56000000000000005;0.20999999999999999;0.02;0.20999999999999999;13;99;0;0;0.5;0.5;0.0;0.0;0;7.849945268157171;62;22;20;2;
2019_03_25 11:51;57;0;0;practice;28;72;0;86;85;97;43;0.51000000000000001;0.14999999999999999;0.33000000000000002;0.0099999999999999499;72;29;10;90;0.01;0.11;0.65000000000000002;0.23000000000000001;0;5.200008082287923;62;22;20;2;
2019_03_25 11:51;57;0;0;practice;29;2;0;41;60;0;0;0.97999999999999998;0.02;0.0;0.0;10;14;97;6;0.54000000000000004;0.17000000000000001;0.12;0.17000000000000001;0;5.866606327469299;62;22;20;2;
2019_03_25 11:51;57;0;0;practice;30;58;0;44;50;85;42;0.38;0.57999999999999996;0.02;0.02;37;88;19;12;0.20000000000000001;0.29999999999999999;0.46000000000000002;0.040000000000000001;0;7.366410845147584;62;22;20;2;
2019_03_25 11:51;57;0;0;practice;31;7;0;13;31;0;0;0.51000000000000001;0.48999999999999999;0.0;0.0;8;79;42;18;0.85999999999999999;0.089999999999999997;0.02;0.029999999999999999;0;7.449739554685266;62;22;20;2;
2019_03_25 11:51;57;0;0;practice;32;51;0;38;13;51;84;0.91000000000000003;0.070000000000000007;0.01;0.0099999999999999603;4;89;35;16;0.80000000000000004;0.089999999999999997;0.059999999999999998;0.050000000000000003;0;4.399800957622801;62;22;20;2;
2019_03_25 11:51;57;0;0;practice;33;56;0;47;52;64;10;0.77000000000000002;0.040000000000000001;0.11;0.080000000000000002;1;5;12;99;0.14000000000000001;0.28999999999999998;0.27000000000000002;0.29999999999999999;0;11.616278625972654;62;22;20;2;
2019_03_25 11:51;57;0;0;practice;34;6;0;42;59;0;0;0.35999999999999999;0.64000000000000001;0.0;0.0;77;19;6;7;0.44;0.14999999999999999;0.17999999999999999;0.23000000000000001;0;15.78287029627677;62;22;20;2;
2019_03_25 11:51;57;0;0;practice;35;15;0;24;59;0;0;0.56999999999999995;0.42999999999999999;0.0;0.0;9;8;80;22;0.31;0.10000000000000001;0.55000000000000004;0.039999999999999897;1;12.849771755546726;62;22;20;2;
2019_03_25 11:51;57;0;0;practice;36;61;0;51;48;56;88;0.91000000000000003;0.02;0.01;0.059999999999999998;78;21;14;82;0.55000000000000004;0.29999999999999999;0.070000000000000007;0.080000000000000002;1;16.366276781799797;62;22;20;2;
2019_03_25 11:51;57;0;0;practice;37;38;1;51;89;10;60;0.57999999999999996;0.029999999999999999;0.080000000000000002;0.31;8;84;0;0;0.33000000000000002;0.67000000000000004;0.0;0.0;0;11.699642294612886;62;22;20;2;
2019_03_25 11:51;57;0;0;practice;38;5;1;23;58;0;0;0.71999999999999997;0.28000000000000003;0.0;0.0;94;12;52;3;0.11;0.84999999999999998;0.029999999999999999;0.01;0;11.849631919136073;62;22;20;2;
2019_03_25 11:51;57;0;0;practice;39;69;0;38;74;27;73;0.22;0.19;0.45000000000000001;0.14000000000000001;1;97;79;84;0.28000000000000003;0.45000000000000001;0.17000000000000001;0.10000000000000001;0;12.449804662004908;62;22;20;2;
2019_03_25 11:51;57;0;0;practice;40;70;1;21;42;14;63;0.96999999999999997;0.01;0.01;0.01;70;2;6;76;0.23999999999999999;0.42999999999999999;0.01;0.32000000000000001;0;13.9997283453215;62;22;20;2;
2019_03_25 11:51;57;0;0;practice;41;22;1;84;87;0;0;0.17000000000000001;0.82999999999999996;0.0;0.0;3;24;41;83;0.68000000000000005;0.11;0.10000000000000001;0.11;0;3.666690293460988;62;22;20;2;
2019_03_25 11:51;57;0;0;practice;42;55;1;53;11;80;74;0.31;0.37;0.28000000000000003;0.039999999999999897;6;93;98;96;0.69999999999999996;0.22;0.050000000000000003;0.029999999999999999;0;5.183147852308366;62;22;20;2;
2019_03_25 11:51;57;0;0;practice;43;24;0;19;38;0;0;0.89000000000000001;0.11;0.0;0.0;45;76;95;57;0.29999999999999999;0.22;0.40000000000000002;0.080000000000000002;1;4.350006687131099;62;22;20;2;
2019_03_25 11:51;57;0;0;practice;44;4;0;40;59;0;0;0.19;0.81000000000000005;0.0;0.0;10;88;13;45;0.56000000000000005;0.28999999999999998;0.01;0.14000000000000001;0;5.600300712427952;62;22;20;2;
2019_03_25 11:51;57;0;0;practice;45;35;0;84;95;4;35;0.89000000000000001;0.050000000000000003;0.01;0.050000000000000003;5;98;0;0;0.19;0.81000000000000005;0.0;0.0;0;26.066150640376918;62;22;20;2;
2019_03_25 11:51;57;0;0;practice;46;25;1;7;18;0;0;0.20999999999999999;0.79000000000000004;0.0;0.0;92;45;33;13;0.41999999999999998;0.17999999999999999;0.22;0.17999999999999999;1;5.71640309962163;62;22;20;2;
2019_03_25 11:51;57;0;0;practice;47;60;0;39;93;27;78;0.85999999999999999;0.02;0.11;0.01;22;5;62;95;0.059999999999999998;0.56999999999999995;0.14000000000000001;0.23000000000000001;0;9.649697924487555;62;22;20;2;
2019_03_25 11:51;57;0;0;practice;48;46;1;79;57;98;81;0.67000000000000004;0.070000000000000007;0.20999999999999999;0.050000000000000003;1;76;0;0;0.56000000000000005;0.44;0.0;0.0;0;3.6999530778282406;62;22;20;2;
2019_03_25 11:51;57;0;0;practice;49;52;1;17;61;57;59;0.070000000000000007;0.050000000000000003;0.33000000000000002;0.55000000000000004;12;93;94;62;0.71999999999999997;0.16;0.080000000000000002;0.040000000000000001;0;7.799644892491187;62;22;20;2;
2019_03_25 11:51;57;0;0;practice;50;12;0;45;86;0;0;0.97999999999999998;0.02;0.0;0.0;6;23;95;81;0.14999999999999999;0.40999999999999998;0.050000000000000003;0.39000000000000001;0;8.21656169848643;62;22;20;2;
2019_03_25 11:51;57;0;0;practice;51;53;1;47;24;95;38;0.57999999999999996;0.28000000000000003;0.02;0.12;8;22;93;96;0.54000000000000004;0.34000000000000002;0.10000000000000001;0.0199999999999999;0;4.8664709812185265;62;22;20;2;
2019_03_25 11:51;57;0;0;practice;52;26;1;24;46;74;59;0.29999999999999999;0.11;0.25;0.34000000000000002;91;6;0;0;0.28999999999999998;0.70999999999999996;0.0;0.0;0;14.4496920872798;62;22;20;2;
2019_03_25 11:51;57;0;0;practice;53;48;0;20;25;24;35;0.32000000000000001;0.13;0.48999999999999999;0.059999999999999901;44;76;0;0;0.29999999999999999;0.69999999999999996;0.0;0.0;1;5.2333285972836165;62;22;20;2;
2019_03_25 11:51;57;0;0;practice;54;3;0;20;70;0;0;0.13;0.87;0.0;0.0;95;19;80;73;0.31;0.57999999999999996;0.029999999999999999;0.080000000000000002;0;12.599550855712323;62;22;20;2;
2019_03_25 11:51;57;0;0;practice;55;34;1;57;23;66;79;0.56000000000000005;0.23000000000000001;0.13;0.079999999999999905;85;9;0;0;0.56000000000000005;0.44;0.0;0.0;0;6.516494121578717;62;22;20;2;
2019_03_25 11:51;57;0;0;practice;56;31;1;72;59;40;92;0.59999999999999998;0.34999999999999998;0.02;0.029999999999999999;97;29;0;0;0.38;0.62;0.0;0.0;0;3.7165089391066886;62;22;20;2;
2019_03_25 11:51;57;0;0;practice;57;1;0;67;36;0;0;0.14999999999999999;0.84999999999999998;0.0;0.0;1;4;81;77;0.25;0.54000000000000004;0.14000000000000001;0.070000000000000007;0;3.483508764952603;62;22;20;2;
2019_03_25 11:51;57;0;0;practice;58;14;0;92;56;0;0;0.11;0.89000000000000001;0.0;0.0;97;31;51;4;0.58999999999999997;0.22;0.080000000000000002;0.11;0;11.73286049810622;62;22;20;2;
2019_03_25 11:51;57;0;0;practice;59;32;1;21;86;16;78;0.45000000000000001;0.41999999999999998;0.050000000000000003;0.080000000000000099;95;9;0;0;0.42999999999999999;0.56999999999999995;0.0;0.0;0;23.549418861045297;62;22;20;2;
2019_03_25 11:51;57;0;0;practice;60;30;0;54;78;85;25;0.20999999999999999;0.60999999999999999;0.089999999999999997;0.090000000000000094;87;20;0;0;0.58999999999999997;0.40999999999999998;0.0;0.0;0;12.18295253034944;62;22;20;2;
2019_03_25 11:51;57;0;0;practice;61;29;0;66;40;92;49;0.46999999999999997;0.10000000000000001;0.34000000000000002;0.089999999999999997;8;94;0;0;0.44;0.56000000000000005;0.0;0.0;0;12.316269549434992;62;22;20;2;
2019_03_25 11:51;57;0;0;practice;62;21;0;59;69;0;0;0.34000000000000002;0.66000000000000003;0.0;0.0;64;18;5;24;0.14999999999999999;0.040000000000000001;0.51000000000000001;0.29999999999999999;0;2.816527573270605;62;22;20;2;
2019_03_25 11:51;57;0;0;practice;63;67;0;74;31;10;77;0.11;0.070000000000000007;0.77000000000000002;0.050000000000000003;2;23;8;97;0.56999999999999995;0.01;0.059999999999999998;0.35999999999999999;0;5.066464630849396;62;22;20;2;
2019_03_25 11:51;57;0;0;practice;64;65;1;35;15;77;1;0.62;0.33000000000000002;0.029999999999999999;0.02;68;3;25;96;0.38;0.28000000000000003;0.28000000000000003;0.059999999999999901;1;25.899250752663193;62;22;20;2;
2019_03_25 11:51;57;0;0;practice;65;18;1;47;36;0;0;0.089999999999999997;0.91000000000000003;0.0;0.0;2;44;81;9;0.20000000000000001;0.25;0.51000000000000001;0.040000000000000001;0;12.649780030270222;62;22;20;2;
2019_03_25 11:51;57;0;0;practice;66;44;1;69;48;22;63;0.39000000000000001;0.40999999999999998;0.19;0.01;1;94;0;0;0.22;0.78000000000000003;0.0;0.0;0;12.08295602625958;62;22;20;2;
2019_03_25 11:51;57;0;0;practice;67;68;0;39;58;40;8;0.48999999999999999;0.44;0.02;0.050000000000000003;92;83;51;2;0.57999999999999996;0.13;0.02;0.27000000000000002;0;16.83279959229344;62;22;20;2;
2019_03_25 11:51;57;0;0;practice;68;54;1;69;80;22;55;0.27000000000000002;0.31;0.059999999999999998;0.35999999999999999;52;2;49;90;0.059999999999999998;0.33000000000000002;0.20000000000000001;0.40999999999999998;0;11.76627402355848;62;22;20;2;
2019_03_25 11:51;57;0;0;practice;69;23;1;99;93;0;0;0.57999999999999996;0.41999999999999998;0.0;0.0;64;10;80;81;0.13;0.55000000000000004;0.02;0.29999999999999999;0;4.683343334630081;62;22;20;2;
2019_03_25 11:51;57;0;0;practice;70;64;0;44;60;96;45;0.53000000000000003;0.10000000000000001;0.029999999999999999;0.34000000000000002;88;20;43;31;0.47999999999999998;0.38;0.050000000000000003;0.089999999999999997;1;34.132301280754064;62;22;20;2;
2019_03_25 11:51;57;0;0;practice;71;62;1;65;52;74;55;0.16;0.12;0.14999999999999999;0.56999999999999995;72;86;2;68;0.12;0.53000000000000003;0.22;0.13;0;9.199840342740345;62;22;20;2;
2019_03_25 11:51;57;0;0;practice;72;13;1;15;25;0;0;0.29999999999999999;0.69999999999999996;0.0;0.0;3;43;35;73;0.44;0.40000000000000002;0.01;0.14999999999999999;0;4.516479688921663;62;22;20;2;
2019_03_25 11:51;57;0;0;practice;73;49;1;14;31;42;22;0.77000000000000002;0.089999999999999997;0.02;0.12;87;28;0;0;0.68000000000000005;0.32000000000000001;0.0;0.0;1;3.9165048338174984;62;22;20;2;
2019_03_25 11:51;57;0;0;practice;74;17;0;27;61;0;0;0.68999999999999995;0.31;0.0;0.0;3;91;69;43;0.29999999999999999;0.33000000000000002;0.27000000000000002;0.099999999999999895;0;7.7163889876903795;62;22;20;2;
2019_03_25 11:51;57;0;0;practice;75;73;0;99;88;95;28;0.83999999999999997;0.14000000000000001;0.01;0.01;90;93;10;74;0.080000000000000002;0.46000000000000002;0.34999999999999998;0.11;0;9.899967895356212;62;22;20;2;
2019_03_25 11:51;57;1;0;control;1;146;1;25;5;64;35;0.94999999999999996;0.02;0.01;0.02;47;97;12;79;0.20999999999999999;0.029999999999999999;0.02;0.73999999999999999;1;23.70250829957945;62;22;20;2;
2019_03_25 11:51;57;1;0;control;2;53;1;26;70;50;80;0.29999999999999999;0.59999999999999998;0.040000000000000001;0.059999999999999998;89;1;0;0;0.40999999999999998;0.58999999999999997;0.0;0.0;0;3.783373514919731;62;22;20;2;
2019_03_25 11:51;57;1;0;control;3;9;1;61;69;0;0;0.93999999999999995;0.060000000000000102;0.0;0.0;18;93;72;16;0.40999999999999998;0.34999999999999998;0.089999999999999997;0.14999999999999999;0;5.149963325014824;62;22;20;2;
2019_03_25 11:51;57;1;0;control;4;100;0;27;14;59;52;0.02;0.95999999999999996;0.01;0.01;17;98;0;0;0.48999999999999999;0.51000000000000001;0.0;0.0;1;5.716502845318246;62;22;20;2;
2019_03_25 11:51;57;1;0;control;5;94;1;84;86;93;39;0.78000000000000003;0.20000000000000001;0.01;0.0099999999999999603;9;83;0;0;0.46999999999999997;0.53000000000000003;0.0;0.0;0;6.916446782463709;62;22;20;2;
2019_03_25 11:51;57;1;0;control;6;12;1;53;68;0;0;0.31;0.68999999999999995;0.0;0.0;69;54;97;29;0.25;0.20999999999999999;0.20000000000000001;0.34000000000000002;0;18.216113003214787;62;22;20;2;
2019_03_25 11:51;57;1;0;control;7;147;0;39;43;76;28;0.14000000000000001;0.10000000000000001;0.10000000000000001;0.66000000000000003;6;31;68;85;0.27000000000000002;0.20000000000000001;0.22;0.31;0;24.932607830389998;62;22;20;2;
2019_03_25 11:51;57;1;0;control;8;128;0;70;49;27;54;0.27000000000000002;0.53000000000000003;0.02;0.17999999999999999;72;97;6;20;0.29999999999999999;0.39000000000000001;0.22;0.0899999999999999;1;21.9661871710357;62;22;20;2;
2019_03_25 11:51;57;1;0;control;9;112;1;70;44;98;64;0.02;0.75;0.12;0.11;33;2;63;85;0.23999999999999999;0.31;0.080000000000000002;0.37;0;4.466731282206865;62;22;20;2;
2019_03_25 11:51;57;1;0;control;10;21;0;64;28;0;0;0.080000000000000002;0.92000000000000004;0.0;0.0;50;1;88;13;0.57999999999999996;0.13;0.02;0.27000000000000002;0;18.68295589796935;62;22;20;2;
2019_03_25 11:51;57;1;0;control;11;32;1;19;81;0;0;0.93000000000000005;0.070000000000000007;0.0;0.0;1;65;41;68;0.45000000000000001;0.050000000000000003;0.059999999999999998;0.44;0;19.01633359835978;62;22;20;2;
2019_03_25 11:51;57;1;0;control;12;10;1;45;62;0;0;0.059999999999999998;0.93999999999999995;0.0;0.0;17;99;28;67;0.58999999999999997;0.34000000000000002;0.01;0.059999999999999998;0;12.349829325812152;62;22;20;2;
2019_03_25 11:51;57;1;0;control;13;96;0;51;54;39;7;0.17000000000000001;0.26000000000000001;0.10000000000000001;0.46999999999999997;24;96;0;0;0.28000000000000003;0.71999999999999997;0.0;0.0;1;6.84980030013503;62;22;20;2;
2019_03_25 11:51;57;1;0;control;14;102;1;40;56;53;17;0.28000000000000003;0.26000000000000001;0.14999999999999999;0.31;1;76;29;62;0.68000000000000005;0.23000000000000001;0.050000000000000003;0.039999999999999897;0;4.133262495714462;62;22;20;2;
2019_03_25 11:51;57;1;0;control;15;92;0;90;86;65;94;0.16;0.34000000000000002;0.28000000000000003;0.22;79;22;0;0;0.35999999999999999;0.64000000000000001;0.0;0.0;0;5.916471799069086;62;22;20;2;
2019_03_25 11:51;57;1;0;control;16;38;1;40;70;0;0;0.53000000000000003;0.46999999999999997;0.0;0.0;97;90;6;96;0.56999999999999995;0.070000000000000007;0.27000000000000002;0.089999999999999997;1;23.18297049098942;62;22;20;2;
2019_03_25 11:51;57;1;0;control;17;40;1;45;49;0;0;0.68999999999999995;0.31;0.0;0.0;2;92;65;73;0.23999999999999999;0.59999999999999998;0.11;0.050000000000000003;0;16.816323912443067;62;22;20;2;
2019_03_25 11:51;57;1;0;control;18;86;0;56;30;57;88;0.20000000000000001;0.35999999999999999;0.080000000000000002;0.35999999999999999;98;2;0;0;0.77000000000000002;0.23000000000000001;0.0;0.0;0;20.049441151482142;62;22;20;2;
2019_03_25 11:51;57;1;0;control;19;78;1;74;36;34;3;0.14999999999999999;0.64000000000000001;0.13;0.080000000000000002;1;83;0;0;0.41999999999999998;0.57999999999999996;0.0;0.0;0;4.699854935760186;62;22;20;2;
2019_03_25 11:51;57;1;0;control;20;18;0;68;50;0;0;0.029999999999999999;0.96999999999999997;0.0;0.0;34;64;15;89;0.65000000000000002;0.029999999999999999;0.050000000000000003;0.27000000000000002;0;13.216274007522316;62;22;20;2;
2019_03_25 11:51;57;1;0;control;21;123;1;26;24;51;92;0.72999999999999998;0.16;0.070000000000000007;0.040000000000000001;6;90;82;49;0.64000000000000001;0.25;0.050000000000000003;0.059999999999999998;0;8.799698132959293;62;22;20;2;
2019_03_25 11:51;57;1;0;control;22;60;1;64;59;57;96;0.83999999999999997;0.13;0.02;0.01;83;6;0;0;0.54000000000000004;0.46000000000000002;0.0;0.0;0;6.38330988293842;62;22;20;2;
2019_03_25 11:51;57;1;0;control;23;84;0;43;10;5;45;0.78000000000000003;0.13;0.059999999999999998;0.029999999999999999;87;1;0;0;0.57999999999999996;0.41999999999999998;0.0;0.0;0;18.549873650105383;62;22;20;2;
2019_03_25 11:51;57;1;0;control;24;39;0;14;33;0;0;0.78000000000000003;0.22;0.0;0.0;93;84;1;25;0.14000000000000001;0.23999999999999999;0.39000000000000001;0.23000000000000001;0;26.41600754860019;62;22;20;2;
2019_03_25 11:51;57;1;0;control;25;42;0;70;48;0;0;0.79000000000000004;0.20999999999999999;0.0;0.0;51;8;12;67;0.19;0.26000000000000001;0.28999999999999998;0.26000000000000001;0;4.883313250558331;62;22;20;2;
2019_03_25 11:51;57;1;0;control;26;33;0;27;70;0;0;0.88;0.12;0.0;0.0;93;3;77;16;0.080000000000000002;0.40000000000000002;0.5;0.02;0;16.616172465761792;62;22;20;2;
2019_03_25 11:51;57;1;0;control;27;52;1;71;51;10;54;0.22;0.12;0.19;0.46999999999999997;91;1;0;0;0.29999999999999999;0.69999999999999996;0.0;0.0;0;4.149998604842949;62;22;20;2;
2019_03_25 11:51;57;1;0;control;28;44;0;79;74;0;0;0.71999999999999997;0.28000000000000003;0.0;0.0;3;67;15;36;0.41999999999999998;0.53000000000000003;0.02;0.029999999999999999;0;2.4166929394477847;62;22;20;2;
2019_03_25 11:51;57;1;0;control;29;101;1;30;96;61;45;0.65000000000000002;0.14000000000000001;0.11;0.10000000000000001;3;98;63;89;0.75;0.19;0.040000000000000001;0.02;0;2.7332059196987757;62;22;20;2;
2019_03_25 11:51;57;1;0;control;30;56;1;28;84;37;41;0.68000000000000005;0.28000000000000003;0.02;0.0199999999999999;6;95;0;0;0.72999999999999998;0.27000000000000002;0.0;0.0;0;5.483111385794928;62;22;20;2;
2019_03_25 11:51;57;1;0;control;31;137;1;71;22;28;17;0.25;0.46000000000000002;0.050000000000000003;0.23999999999999999;3;98;92;69;0.42999999999999999;0.23999999999999999;0.20000000000000001;0.13;0;9.333009827998012;62;22;20;2;
2019_03_25 11:51;57;1;0;control;32;27;0;44;26;0;0;0.35999999999999999;0.64000000000000001;0.0;0.0;63;10;3;5;0.58999999999999997;0.19;0.14999999999999999;0.070000000000000007;0;24.415979645463267;62;22;20;2;
2019_03_25 11:51;57;1;0;control;33;116;0;53;65;43;99;0.56999999999999995;0.37;0.050000000000000003;0.010000000000000101;57;72;11;87;0.67000000000000004;0.13;0.14999999999999999;0.050000000000000003;0;26.465908941479938;62;22;20;2;
2019_03_25 11:51;57;1;0;control;34;130;1;37;79;23;95;0.94999999999999996;0.029999999999999999;0.01;0.01;94;4;58;49;0.46000000000000002;0.5;0.029999999999999999;0.01;0;5.6000162287209605;62;22;20;2;
2019_03_25 11:51;57;1;0;control;35;50;1;15;20;0;0;0.82999999999999996;0.17000000000000001;0.0;0.0;97;18;88;87;0.56999999999999995;0.39000000000000001;0.01;0.029999999999999999;1;3.5500510114247845;62;22;20;2;
2019_03_25 11:51;57;1;0;control;36;14;1;36;40;0;0;0.54000000000000004;0.46000000000000002;0.0;0.0;99;70;1;11;0.16;0.089999999999999997;0.080000000000000002;0.67000000000000004;0;7.649766559789896;62;22;20;2;
2019_03_25 11:51;57;1;0;control;37;104;0;55;85;93;3;0.87;0.02;0.089999999999999997;0.02;1;2;90;8;0.35999999999999999;0.070000000000000007;0.40000000000000002;0.17000000000000001;0;9.866374763505064;62;22;20;2;
2019_03_25 11:51;57;1;0;control;38;150;1;25;21;78;38;0.84999999999999998;0.059999999999999998;0.050000000000000003;0.040000000000000001;31;43;64;95;0.059999999999999998;0.45000000000000001;0.13;0.35999999999999999;1;13.799740789479074;62;22;20;2;
2019_03_25 11:51;57;1;0;control;39;25;0;50;53;0;0;0.82999999999999996;0.17000000000000001;0.0;0.0;83;16;97;4;0.45000000000000001;0.29999999999999999;0.11;0.14000000000000001;0;20.7160929578572;62;22;20;2;
2019_03_25 11:51;57;1;0;control;40;2;1;59;32;0;0;0.080000000000000002;0.92000000000000004;0.0;0.0;33;38;85;1;0.28999999999999998;0.050000000000000003;0.070000000000000007;0.58999999999999997;0;3.4997955373582954;62;22;20;2;
2019_03_25 11:51;57;1;0;control;41;138;0;8;20;43;51;0.38;0.5;0.02;0.10000000000000001;72;82;70;1;0.39000000000000001;0.050000000000000003;0.070000000000000007;0.48999999999999999;1;18.682703486833816;62;22;20;2;
2019_03_25 11:51;57;1;0;control;42;70;0;66;55;69;50;0.22;0.29999999999999999;0.29999999999999999;0.17999999999999999;2;90;0;0;0.34000000000000002;0.66000000000000003;0.0;0.0;0;3.916632803376615;62;22;20;2;
2019_03_25 11:51;57;1;0;control;43;71;0;68;55;36;51;0.20000000000000001;0.75;0.02;0.029999999999999999;38;81;0;0;0.52000000000000002;0.47999999999999998;0.0;0.0;1;10.582966770571147;62;22;20;2;
2019_03_25 11:51;57;1;0;control;44;74;1;66;47;52;44;0.41999999999999998;0.26000000000000001;0.17999999999999999;0.14000000000000001;17;99;0;0;0.47999999999999998;0.52000000000000002;0.0;0.0;0;21.916016047831818;62;22;20;2;
2019_03_25 11:51;57;1;0;control;45;113;1;85;65;39;64;0.44;0.34000000000000002;0.13;0.089999999999999997;87;2;4;35;0.67000000000000004;0.17000000000000001;0.11;0.049999999999999899;0;10.033032182580428;62;22;20;2;
2019_03_25 11:51;57;1;0;control;46;65;0;75;64;59;52;0.59999999999999998;0.22;0.14000000000000001;0.040000000000000001;1;99;0;0;0.35999999999999999;0.64000000000000001;0.0;0.0;0;2.8498455224603276;62;22;20;2;
2019_03_25 11:51;57;1;0;control;47;47;0;2;40;0;0;0.45000000000000001;0.55000000000000004;0.0;0.0;93;89;11;56;0.58999999999999997;0.070000000000000007;0.28000000000000003;0.059999999999999998;1;4.733139850201951;62;22;20;2;
2019_03_25 11:51;57;1;0;control;48;79;1;52;46;29;22;0.17999999999999999;0.51000000000000001;0.23999999999999999;0.070000000000000104;93;14;0;0;0.45000000000000001;0.55000000000000004;0.0;0.0;0;10.349817779686418;62;22;20;2;
2019_03_25 11:51;57;1;0;control;49;103;0;38;49;89;50;0.89000000000000001;0.070000000000000007;0.01;0.029999999999999999;6;64;99;27;0.70999999999999996;0.17999999999999999;0.059999999999999998;0.050000000000000003;0;4.966488011753881;62;22;20;2;
2019_03_25 11:51;57;1;0;control;50;110;1;47;44;23;52;0.13;0.27000000000000002;0.040000000000000001;0.56000000000000005;99;2;30;22;0.28999999999999998;0.5;0.11;0.10000000000000001;0;4.666505555450385;62;22;20;2;
2019_03_25 11:51;57;1;0;control;51;111;0;51;36;48;27;0.93000000000000005;0.01;0.01;0.049999999999999899;31;78;30;53;0.55000000000000004;0.16;0.029999999999999999;0.26000000000000001;0;10.633193058597953;62;22;20;2;
2019_03_25 11:51;57;1;0;control;52;131;1;83;41;81;88;0.23999999999999999;0.58999999999999997;0.10000000000000001;0.070000000000000007;82;97;4;17;0.26000000000000001;0.46999999999999997;0.11;0.16;0;9.599855545139235;62;22;20;2;
2019_03_25 11:51;57;1;0;control;53;132;1;27;70;21;19;0.64000000000000001;0.23000000000000001;0.029999999999999999;0.10000000000000001;11;85;55;6;0.39000000000000001;0.46999999999999997;0.029999999999999999;0.11;1;19.566086655597246;62;22;20;2;
2019_03_25 11:51;57;1;0;control;54;57;0;52;35;23;47;0.22;0.68000000000000005;0.040000000000000001;0.059999999999999998;71;7;0;0;0.28999999999999998;0.70999999999999996;0.0;0.0;0;3.6831213924374424;62;22;20;2;
2019_03_25 11:51;57;1;0;control;55;107;1;52;48;13;63;0.68000000000000005;0.19;0.050000000000000003;0.079999999999999905;54;91;33;3;0.19;0.17999999999999999;0.33000000000000002;0.29999999999999999;0;6.599737518076836;62;22;20;2;
2019_03_25 11:51;57;1;0;control;56;31;0;10;59;0;0;0.23999999999999999;0.76000000000000001;0.0;0.0;1;79;53;73;0.23000000000000001;0.58999999999999997;0.050000000000000003;0.13;1;26.582786201995077;62;22;20;2;
2019_03_25 11:51;57;1;0;control;57;75;0;67;80;36;81;0.81999999999999995;0.080000000000000002;0.059999999999999998;0.040000000000000001;3;97;0;0;0.32000000000000001;0.68000000000000005;0.0;0.0;0;2.599904936898838;62;22;20;2;
2019_03_25 11:51;57;1;0;control;58;20;0;44;40;0;0;0.91000000000000003;0.089999999999999997;0.0;0.0;29;5;80;99;0.25;0.40000000000000002;0.26000000000000001;0.089999999999999997;0;5.483168154245959;62;22;20;2;
2019_03_25 11:51;57;1;0;control;59;11;1;17;36;0;0;0.14000000000000001;0.85999999999999999;0.0;0.0;19;41;34;95;0.88;0.02;0.050000000000000003;0.050000000000000003;0;4.383175819590178;62;22;20;2;
2019_03_25 11:51;57;1;0;control;60;15;1;77;81;0;0;0.28000000000000003;0.71999999999999997;0.0;0.0;98;14;87;18;0.55000000000000004;0.23000000000000001;0.16;0.059999999999999901;0;4.316617857558413;62;22;20;2;
2019_03_25 11:51;57;1;0;control;61;141;1;93;28;60;91;0.81999999999999995;0.10000000000000001;0.01;0.070000000000000007;14;85;7;89;0.45000000000000001;0.070000000000000007;0.23999999999999999;0.23999999999999999;0;5.399835595999775;62;22;20;2;
2019_03_25 11:51;57;1;0;control;62;17;0;81;52;0;0;0.059999999999999998;0.93999999999999995;0.0;0.0;34;3;69;41;0.01;0.22;0.75;0.02;0;7.999721289355875;62;22;20;2;
2019_03_25 11:51;57;1;0;control;63;80;1;47;39;45;10;0.13;0.76000000000000001;0.059999999999999998;0.050000000000000003;2;87;0;0;0.48999999999999999;0.51000000000000001;0.0;0.0;0;7.7830896726641186;62;22;20;2;
2019_03_25 11:51;57;1;0;control;64;55;1;74;55;47;48;0.60999999999999999;0.31;0.070000000000000007;0.01;97;6;0;0;0.42999999999999999;0.56999999999999995;0.0;0.0;0;3.549794751580066;62;22;20;2;
2019_03_25 11:51;57;1;0;control;65;24;1;35;27;0;0;0.070000000000000007;0.93000000000000005;0.0;0.0;62;3;81;95;0.35999999999999999;0.55000000000000004;0.01;0.080000000000000002;0;3.316572314507539;62;22;20;2;
2019_03_25 11:51;57;1;0;control;66;72;0;63;82;51;61;0.01;0.96999999999999997;0.01;0.01;92;12;0;0;0.89000000000000001;0.11;0.0;0.0;0;6.283221009843601;62;22;20;2;
2019_03_25 11:51;57;1;0;control;67;82;1;78;66;30;27;0.28999999999999998;0.58999999999999997;0.080000000000000002;0.040000000000000001;90;6;0;0;0.82999999999999996;0.17000000000000001;0.0;0.0;0;11.23298702439979;62;22;20;2;
2019_03_25 11:51;57;1;0;control;68;149;0;14;89;73;53;0.93999999999999995;0.01;0.01;0.040000000000000001;97;45;6;13;0.34000000000000002;0.01;0.40999999999999998;0.23999999999999999;0;13.899703938094717;62;22;20;2;
2019_03_25 11:51;57;1;0;control;69;51;1;52;23;43;16;0.60999999999999999;0.20999999999999999;0.01;0.17000000000000001;92;7;0;0;0.14999999999999999;0.84999999999999998;0.0;0.0;0;5.083297919868983;62;22;20;2;
2019_03_25 11:51;57;1;0;control;70;142;1;98;65;64;84;0.88;0.070000000000000007;0.01;0.040000000000000001;5;68;60;16;0.46000000000000002;0.080000000000000002;0.27000000000000002;0.19;0;3.533208742084753;62;22;20;2;
2019_03_25 11:51;57;1;0;control;71;22;0;32;55;0;0;0.39000000000000001;0.60999999999999999;0.0;0.0;93;72;59;22;0.20000000000000001;0.11;0.14000000000000001;0.55000000000000004;1;4.949824065910434;62;22;20;2;
2019_03_25 11:51;57;1;0;control;72;97;1;17;33;32;74;0.94999999999999996;0.01;0.029999999999999999;0.01;76;23;0;0;0.33000000000000002;0.67000000000000004;0.0;0.0;1;12.38297151731149;62;22;20;2;
2019_03_25 11:51;57;1;0;control;73;119;0;60;58;11;18;0.25;0.72999999999999998;0.01;0.01;96;23;42;85;0.44;0.48999999999999999;0.059999999999999998;0.010000000000000101;1;23.149470690320413;62;22;20;2;
2019_03_25 11:51;57;1;0;control;74;66;0;89;23;27;15;0.070000000000000007;0.54000000000000004;0.17000000000000001;0.22;9;73;0;0;0.72999999999999998;0.27000000000000002;0.0;0.0;0;6.583087363439063;62;22;20;2;
2019_03_25 11:51;57;1;0;control;75;77;0;24;17;99;41;0.17999999999999999;0.13;0.10000000000000001;0.58999999999999997;12;97;0;0;0.59999999999999998;0.40000000000000002;0.0;0.0;0;10.549806939157406;62;22;20;2;
2019_03_25 11:51;57;2;0;timed;1;73;0;65;68;70;47;0.25;0.23000000000000001;0.20999999999999999;0.31;27;95;0;0;0.45000000000000001;0.55000000000000004;0.0;0.0;NA;5.208597437593653;62;22;20;2;
2019_03_25 11:51;57;2;0;timed;2;29;1;44;51;0;0;0.78000000000000003;0.22;0.0;0.0;74;1;68;82;0.69999999999999996;0.28000000000000003;0.01;0.01;0;2.2832008041236804;62;22;20;2;
2019_03_25 11:51;57;2;0;timed;3;135;0;48;60;41;51;0.14000000000000001;0.40000000000000002;0.089999999999999997;0.37;94;1;85;65;0.64000000000000001;0.29999999999999999;0.01;0.050000000000000003;0;3.4667203775325106;62;22;20;2;
2019_03_25 11:51;57;2;0;timed;4;111;0;51;36;48;27;0.93000000000000005;0.01;0.01;0.049999999999999899;31;78;30;53;0.55000000000000004;0.16;0.029999999999999999;0.26000000000000001;0;2.733349284092128;62;22;20;2;
2019_03_25 11:51;57;2;0;timed;5;48;1;13;32;0;0;0.90000000000000002;0.10000000000000001;0.0;0.0;24;99;84;94;0.62;0.14999999999999999;0.20000000000000001;0.029999999999999999;1;3.3999898650677096;62;22;20;2;
2019_03_25 11:51;57;2;0;timed;6;8;1;50;36;0;0;0.080000000000000002;0.92000000000000004;0.0;0.0;6;19;84;29;0.54000000000000004;0.070000000000000007;0.17000000000000001;0.22;0;3.449990682918269;62;22;20;2;
2019_03_25 11:51;57;2;0;timed;7;17;0;81;52;0;0;0.059999999999999998;0.93999999999999995;0.0;0.0;34;3;69;41;0.01;0.22;0.75;0.02;0;2.416498579666495;62;22;20;2;
2019_03_25 11:51;57;2;0;timed;8;82;1;78;66;30;27;0.28999999999999998;0.58999999999999997;0.080000000000000002;0.040000000000000001;90;6;0;0;0.82999999999999996;0.17000000000000001;0.0;0.0;0;3.5498819889739934;62;22;20;2;
2019_03_25 11:51;57;2;0;timed;9;119;0;60;58;11;18;0.25;0.72999999999999998;0.01;0.01;96;23;42;85;0.44;0.48999999999999999;0.059999999999999998;0.010000000000000101;0;4.433147451401055;62;22;20;2;
2019_03_25 11:51;57;2;0;timed;10;136;0;29;67;14;75;0.46000000000000002;0.29999999999999999;0.20999999999999999;0.0300000000000001;70;86;1;85;0.31;0.39000000000000001;0.27000000000000002;0.029999999999999898;1;3.133331131016803;62;22;20;2;
2019_03_25 11:51;57;2;0;timed;11;103;0;38;49;89;50;0.89000000000000001;0.070000000000000007;0.01;0.029999999999999999;6;64;99;27;0.70999999999999996;0.17999999999999999;0.059999999999999998;0.050000000000000003;0;2.1667135460747886;62;22;20;2;
2019_03_25 11:51;57;2;0;timed;12;131;1;83;41;81;88;0.23999999999999999;0.58999999999999997;0.10000000000000001;0.070000000000000007;82;97;4;17;0.26000000000000001;0.46999999999999997;0.11;0.16;0;4.249810050196629;62;22;20;2;
2019_03_25 11:51;57;2;0;timed;13;21;1;64;28;0;0;0.080000000000000002;0.92000000000000004;0.0;0.0;50;1;88;13;0.57999999999999996;0.13;0.02;0.27000000000000002;0;4.216700893445704;62;22;20;2;
2019_03_25 11:51;57;2;0;timed;14;77;1;24;17;99;41;0.17999999999999999;0.13;0.10000000000000001;0.58999999999999997;12;97;0;0;0.59999999999999998;0.40000000000000002;0.0;0.0;0;2.7832160385946736;62;22;20;2;
2019_03_25 11:51;57;2;0;timed;15;95;0;93;88;68;85;0.83999999999999997;0.14000000000000001;0.01;0.01;2;82;0;0;0.41999999999999998;0.57999999999999996;0.0;0.0;0;2.7166311356031656;62;22;20;2;
2019_03_25 11:51;57;2;0;timed;16;115;1;50;28;61;79;0.83999999999999997;0.040000000000000001;0.059999999999999998;0.059999999999999998;1;26;97;55;0.45000000000000001;0.080000000000000002;0.40999999999999998;0.060000000000000102;0;3.0331656044763804;62;22;20;2;
2019_03_25 11:51;57;2;0;timed;17;113;0;85;65;39;64;0.44;0.34000000000000002;0.13;0.089999999999999997;87;2;4;35;0.67000000000000004;0.17000000000000001;0.11;0.049999999999999899;0;3.0331733018938394;62;22;20;2;
2019_03_25 11:51;57;2;0;timed;18;53;0;26;70;50;80;0.29999999999999999;0.59999999999999998;0.040000000000000001;0.059999999999999998;89;1;0;0;0.40999999999999998;0.58999999999999997;0.0;0.0;0;2.3498145724292954;62;22;20;2;
2019_03_25 11:51;57;2;0;timed;19;107;1;52;48;13;63;0.68000000000000005;0.19;0.050000000000000003;0.079999999999999905;54;91;33;3;0.19;0.17999999999999999;0.33000000000000002;0.29999999999999999;0;2.9332191335979587;62;22;20;2;
2019_03_25 11:51;57;2;0;timed;20;37;1;14;98;0;0;0.93000000000000005;0.070000000000000007;0.0;0.0;41;2;87;66;0.17999999999999999;0.48999999999999999;0.32000000000000001;0.010000000000000101;0;3.5168283177708872;62;22;20;2;
2019_03_25 11:51;57;2;0;timed;21;38;0;40;70;0;0;0.53000000000000003;0.46999999999999997;0.0;0.0;97;90;6;96;0.56999999999999995;0.070000000000000007;0.27000000000000002;0.089999999999999997;1;3.216668500148444;62;22;20;2;
2019_03_25 11:51;57;2;0;timed;22;61;0;43;18;39;70;0.75;0.089999999999999997;0.089999999999999997;0.070000000000000007;16;66;0;0;0.64000000000000001;0.35999999999999999;0.0;0.0;1;3.916525360263222;62;22;20;2;
2019_03_25 11:51;57;2;0;timed;23;22;1;32;55;0;0;0.39000000000000001;0.60999999999999999;0.0;0.0;93;72;59;22;0.20000000000000001;0.11;0.14000000000000001;0.55000000000000004;1;3.9833026986821096;62;22;20;2;
2019_03_25 11:51;57;2;0;timed;24;132;1;27;70;21;19;0.64000000000000001;0.23000000000000001;0.029999999999999999;0.10000000000000001;11;85;55;6;0.39000000000000001;0.46999999999999997;0.029999999999999999;0.11;0;4.133190332428967;62;22;20;2;
2019_03_25 11:51;57;2;0;timed;25;51;0;52;23;43;16;0.60999999999999999;0.20999999999999999;0.01;0.17000000000000001;92;7;0;0;0.14999999999999999;0.84999999999999998;0.0;0.0;0;3.983103528014908;62;22;20;2;
2019_03_25 11:51;57;2;0;timed;26;118;0;62;52;65;68;0.40999999999999998;0.44;0.10000000000000001;0.0500000000000001;79;20;14;37;0.56999999999999995;0.23999999999999999;0.14000000000000001;0.050000000000000003;0;3.19997600971692;62;22;20;2;
2019_03_25 11:51;57;2;0;timed;27;70;1;66;55;69;50;0.22;0.29999999999999999;0.29999999999999999;0.17999999999999999;2;90;0;0;0.34000000000000002;0.66000000000000003;0.0;0.0;0;2.5832076355814024;62;22;20;2;
2019_03_25 11:51;57;2;0;timed;28;147;1;39;43;76;28;0.14000000000000001;0.10000000000000001;0.10000000000000001;0.66000000000000003;6;31;68;85;0.27000000000000002;0.20000000000000001;0.22;0.31;0;3.7333534535264334;62;22;20;2;
2019_03_25 11:51;57;2;0;timed;29;125;0;37;41;10;35;0.91000000000000003;0.040000000000000001;0.029999999999999999;0.02;7;13;91;93;0.26000000000000001;0.39000000000000001;0.16;0.19;0;4.299754420322188;62;22;20;2;
2019_03_25 11:51;57;2;0;timed;30;56;0;28;84;37;41;0.68000000000000005;0.28000000000000003;0.02;0.0199999999999999;6;95;0;0;0.72999999999999998;0.27000000000000002;0.0;0.0;0;3.5499201553338935;62;22;20;2;
2019_03_25 11:51;57;2;0;timed;31;109;1;75;28;16;56;0.19;0.070000000000000007;0.059999999999999998;0.68000000000000005;3;50;98;44;0.5;0.02;0.34999999999999998;0.13;0;3.2664355089550554;62;22;20;2;
2019_03_25 11:51;57;2;0;timed;32;49;0;21;30;0;0;0.53000000000000003;0.46999999999999997;0.0;0.0;93;99;89;25;0.44;0.02;0.11;0.42999999999999999;1;3.116688353070458;62;22;20;2;
2019_03_25 11:51;57;2;0;timed;33;133;0;59;88;60;36;0.67000000000000004;0.070000000000000007;0.12;0.14000000000000001;7;91;66;61;0.25;0.68999999999999995;0.01;0.0500000000000001;0;3.7497893633881176;62;22;20;2;
2019_03_25 11:51;57;2;0;timed;34;102;0;40;56;53;17;0.28000000000000003;0.26000000000000001;0.14999999999999999;0.31;1;76;29;62;0.68000000000000005;0.23000000000000001;0.050000000000000003;0.039999999999999897;0;2.1332163112115268;62;22;20;2;
2019_03_25 11:51;57;2;0;timed;35;5;1;70;5;0;0;0.98999999999999999;0.01;0.0;0.0;92;87;47;1;0.44;0.02;0.16;0.38;0;3.0165744633695795;62;22;20;2;
2019_03_25 11:51;57;2;0;timed;36;14;1;36;40;0;0;0.54000000000000004;0.46000000000000002;0.0;0.0;99;70;1;11;0.16;0.089999999999999997;0.080000000000000002;0.67000000000000004;0;4.149941194940311;62;22;20;2;
2019_03_25 11:51;57;2;0;timed;37;116;1;53;65;43;99;0.56999999999999995;0.37;0.050000000000000003;0.010000000000000101;57;72;11;87;0.67000000000000004;0.13;0.14999999999999999;0.050000000000000003;0;3.766654404253586;62;22;20;2;
2019_03_25 11:51;57;2;0;timed;38;59;1;56;47;83;90;0.31;0.12;0.54000000000000004;0.029999999999999898;10;98;0;0;0.46999999999999997;0.53000000000000003;0.0;0.0;0;3.9502769306163827;62;22;20;2;
2019_03_25 11:51;57;2;0;timed;39;143;1;88;44;56;73;0.95999999999999996;0.02;0.01;0.01;20;3;87;32;0.19;0.40000000000000002;0.28000000000000003;0.13;0;3.5665257290975205;62;22;20;2;
2019_03_25 11:51;57;2;0;timed;40;57;0;52;35;23;47;0.22;0.68000000000000005;0.040000000000000001;0.059999999999999998;71;7;0;0;0.28999999999999998;0.70999999999999996;0.0;0.0;0;2.649881058869596;62;22;20;2;
2019_03_25 11:51;57;2;0;timed;41;126;1;16;55;51;42;0.68999999999999995;0.23999999999999999;0.01;0.060000000000000102;66;4;1;5;0.46999999999999997;0.38;0.089999999999999997;0.059999999999999998;0;3.533404705495286;62;22;20;2;
2019_03_25 11:51;57;2;0;timed;42;68;0;84;27;55;62;0.01;0.050000000000000003;0.40999999999999998;0.53000000000000003;9;82;0;0;0.37;0.63;0.0;0.0;0;4.183331307415756;62;22;20;2;
2019_03_25 11:51;57;2;0;timed;43;86;1;56;30;57;88;0.20000000000000001;0.35999999999999999;0.080000000000000002;0.35999999999999999;98;2;0;0;0.77000000000000002;0.23000000000000001;0.0;0.0;0;2.349913035222926;62;22;20;2;
2019_03_25 11:51;57;2;0;timed;44;16;0;64;53;0;0;0.65000000000000002;0.34999999999999998;0.0;0.0;29;17;81;46;0.10000000000000001;0.01;0.44;0.45000000000000001;0;3.2164981947953493;62;22;20;2;
2019_03_25 11:51;57;2;0;timed;45;106;0;85;69;22;61;0.10000000000000001;0.58999999999999997;0.17999999999999999;0.13;20;79;91;84;0.55000000000000004;0.14999999999999999;0.26000000000000001;0.039999999999999897;0;3.933184815946788;62;22;20;2;
2019_03_25 11:51;57;2;0;timed;46;94;1;84;86;93;39;0.78000000000000003;0.20000000000000001;0.01;0.0099999999999999603;9;83;0;0;0.46999999999999997;0.53000000000000003;0.0;0.0;0;2.116679052024665;62;22;20;2;
2019_03_25 11:51;57;2;0;timed;47;35;0;33;37;0;0;0.88;0.12;0.0;0.0;63;4;79;98;0.16;0.46000000000000002;0.17000000000000001;0.20999999999999999;0;4.349993216651455;62;22;20;2;
2019_03_25 11:51;57;2;0;timed;48;149;0;14;89;73;53;0.93999999999999995;0.01;0.01;0.040000000000000001;97;45;6;13;0.34000000000000002;0.01;0.40999999999999998;0.23999999999999999;0;4.183168058028514;62;22;20;2;
2019_03_25 11:51;57;2;0;timed;49;137;1;71;22;28;17;0.25;0.46000000000000002;0.050000000000000003;0.23999999999999999;3;98;92;69;0.42999999999999999;0.23999999999999999;0.20000000000000001;0.13;0;2.7999082083010762;62;22;20;2;
2019_03_25 11:51;57;2;0;timed;50;142;1;98;65;64;84;0.88;0.070000000000000007;0.01;0.040000000000000001;5;68;60;16;0.46000000000000002;0.080000000000000002;0.27000000000000002;0.19;0;2.3162916795090496;62;22;20;2;
2019_03_25 11:51;57;2;0;timed;51;66;0;89;23;27;15;0.070000000000000007;0.54000000000000004;0.17000000000000001;0.22;9;73;0;0;0.72999999999999998;0.27000000000000002;0.0;0.0;0;4.1165392156140115;62;22;20;2;
2019_03_25 11:51;57;2;0;timed;52;134;0;57;48;50;55;0.02;0.62;0.17999999999999999;0.17999999999999999;80;96;15;18;0.23999999999999999;0.35999999999999999;0.33000000000000002;0.070000000000000007;1;2.1833588898271046;62;22;20;2;
2019_03_25 11:51;57;2;0;timed;53;39;1;14;33;0;0;0.78000000000000003;0.22;0.0;0.0;93;84;1;25;0.14000000000000001;0.23999999999999999;0.39000000000000001;0.23000000000000001;0;3.9498009736589665;62;22;20;2;
2019_03_25 11:51;57;2;0;timed;54;30;0;33;30;0;0;0.71999999999999997;0.28000000000000003;0.0;0.0;9;88;1;14;0.55000000000000004;0.39000000000000001;0.01;0.049999999999999899;0;3.583381468917196;62;22;20;2;
2019_03_25 11:51;57;2;0;timed;55;64;0;48;39;34;19;0.46000000000000002;0.5;0.02;0.02;13;92;0;0;0.68999999999999995;0.31;0.0;0.0;0;3.749790646290876;62;22;20;2;
2019_03_25 11:51;57;2;0;timed;56;120;0;64;40;48;51;0.19;0.02;0.070000000000000007;0.71999999999999997;97;9;79;94;0.23000000000000001;0.54000000000000004;0.01;0.22;0;3.4000431055360423;62;22;20;2;
2019_03_25 11:51;57;2;0;timed;57;123;0;26;24;51;92;0.72999999999999998;0.16;0.070000000000000007;0.040000000000000001;6;90;82;49;0.64000000000000001;0.25;0.050000000000000003;0.059999999999999998;0;3.5664936565267453;62;22;20;2;
2019_03_25 11:51;57;2;0;timed;58;34;1;32;48;0;0;0.28000000000000003;0.71999999999999997;0.0;0.0;97;83;7;62;0.040000000000000001;0.54000000000000004;0.35999999999999999;0.059999999999999901;0;3.5500981581039923;62;22;20;2;
2019_03_25 11:51;57;2;0;timed;59;81;0;67;38;52;65;0.27000000000000002;0.35999999999999999;0.01;0.35999999999999999;2;77;0;0;0.14000000000000001;0.85999999999999999;0.0;0.0;0;2.883210939055971;62;22;20;2;
2019_03_25 11:51;57;2;0;timed;60;55;1;74;55;47;48;0.60999999999999999;0.31;0.070000000000000007;0.01;97;6;0;0;0.42999999999999999;0.56999999999999995;0.0;0.0;0;2.8831987514790853;62;22;20;2;
2019_03_25 11:51;57;2;0;timed;61;104;1;55;85;93;3;0.87;0.02;0.089999999999999997;0.02;1;2;90;8;0.35999999999999999;0.070000000000000007;0.40000000000000002;0.17000000000000001;0;3.2166964032853684;62;22;20;2;
2019_03_25 11:51;57;2;0;timed;62;146;0;25;5;64;35;0.94999999999999996;0.02;0.01;0.02;47;97;12;79;0.20999999999999999;0.029999999999999999;0.02;0.73999999999999999;1;3.1332041236346413;62;22;20;2;
2019_03_25 11:51;57;2;0;timed;63;96;0;51;54;39;7;0.17000000000000001;0.26000000000000001;0.10000000000000001;0.46999999999999997;24;96;0;0;0.28000000000000003;0.71999999999999997;0.0;0.0;1;3.5165229868925962;62;22;20;2;
2019_03_25 11:51;57;2;0;timed;64;91;0;74;81;86;48;0.93000000000000005;0.02;0.01;0.039999999999999897;7;64;0;0;0.13;0.87;0.0;0.0;0;4.116534084002524;62;22;20;2;
2019_03_25 11:51;57;2;0;timed;65;25;0;50;53;0;0;0.82999999999999996;0.17000000000000001;0.0;0.0;83;16;97;4;0.45000000000000001;0.29999999999999999;0.11;0.14000000000000001;0;3.683241985304903;62;22;20;2;
2019_03_25 11:51;57;2;0;timed;66;23;0;54;40;0;0;0.93000000000000005;0.070000000000000007;0.0;0.0;36;23;71;86;0.02;0.41999999999999998;0.19;0.37;0;3.549879743894053;62;22;20;2;
2019_03_25 11:51;57;2;0;timed;67;140;0;36;32;26;27;0.39000000000000001;0.14999999999999999;0.19;0.27000000000000002;44;3;99;25;0.29999999999999999;0.34000000000000002;0.34000000000000002;0.0199999999999999;0;3.066536473409087;62;22;20;2;
2019_03_25 11:51;57;2;0;timed;68;27;0;44;26;0;0;0.35999999999999999;0.64000000000000001;0.0;0.0;63;10;3;5;0.58999999999999997;0.19;0.14999999999999999;0.070000000000000007;0;3.84980030013503;62;22;20;2;
2019_03_25 11:51;57;2;0;timed;69;26;1;76;41;0;0;0.57999999999999996;0.41999999999999998;0.0;0.0;61;79;84;2;0.13;0.029999999999999999;0.67000000000000004;0.17000000000000001;0;2.816620904452975;62;22;20;2;
2019_03_25 11:51;57;2;0;timed;70;69;0;54;34;64;49;0.34000000000000002;0.25;0.20999999999999999;0.20000000000000001;14;98;0;0;0.62;0.38;0.0;0.0;0;3.616366825543537;62;22;20;2;
2019_03_25 11:51;57;2;0;timed;71;101;0;30;96;61;45;0.65000000000000002;0.14000000000000001;0.11;0.10000000000000001;3;98;63;89;0.75;0.19;0.040000000000000001;0.02;0;2.2334151932259374;62;22;20;2;
2019_03_25 11:51;57;2;0;timed;72;54;1;44;79;78;52;0.79000000000000004;0.19;0.01;0.0099999999999999603;96;1;0;0;0.28000000000000003;0.71999999999999997;0.0;0.0;0;2.583364791180429;62;22;20;2;
2019_03_25 11:51;57;2;0;timed;73;97;1;17;33;32;74;0.94999999999999996;0.01;0.029999999999999999;0.01;76;23;0;0;0.33000000000000002;0.67000000000000004;0.0;0.0;1;3.9832674188537567;62;22;20;2;
2019_03_25 11:51;57;2;0;timed;74;83;1;17;12;7;41;0.65000000000000002;0.19;0.089999999999999997;0.070000000000000007;6;84;0;0;0.72999999999999998;0.27000000000000002;0.0;0.0;0;2.083271620360847;62;22;20;2;
2019_03_25 11:51;57;2;0;timed;75;110;1;47;44;23;52;0.13;0.27000000000000002;0.040000000000000001;0.56000000000000005;99;2;30;22;0.28999999999999998;0.5;0.11;0.10000000000000001;0;4.033177792053721;62;22;20;2;
2019_03_25 11:51;57;3;0;control;1;99;1;8;24;15;73;0.56000000000000005;0.35999999999999999;0.070000000000000007;0.0099999999999999499;88;12;0;0;0.52000000000000002;0.47999999999999998;0.0;0.0;1;9.025260998566864;62;22;20;2;
2019_03_25 11:51;57;3;0;control;2;45;0;97;87;0;0;0.71999999999999997;0.28000000000000003;0.0;0.0;96;11;14;4;0.25;0.029999999999999999;0.14000000000000001;0.57999999999999996;0;4.083314276880628;62;22;20;2;
2019_03_25 11:51;57;3;0;control;3;54;1;44;79;78;52;0.79000000000000004;0.19;0.01;0.0099999999999999603;96;1;0;0;0.28000000000000003;0.71999999999999997;0.0;0.0;0;4.783145158212392;62;22;20;2;
2019_03_25 11:51;57;3;0;control;4;93;0;87;81;73;98;0.80000000000000004;0.040000000000000001;0.14999999999999999;0.0099999999999999499;5;71;0;0;0.51000000000000001;0.48999999999999999;0.0;0.0;0;5.183292178879128;62;22;20;2;
2019_03_25 11:51;57;3;0;control;5;109;0;75;28;16;56;0.19;0.070000000000000007;0.059999999999999998;0.68000000000000005;3;50;98;44;0.5;0.02;0.34999999999999998;0.13;0;3.3664900643984765;62;22;20;2;
2019_03_25 11:51;57;3;0;control;6;5;1;70;5;0;0;0.98999999999999999;0.01;0.0;0.0;92;87;47;1;0.44;0.02;0.16;0.38;0;2.883303308061386;62;22;20;2;
2019_03_25 11:51;57;3;0;control;7;121;1;42;51;47;70;0.41999999999999998;0.17000000000000001;0.23999999999999999;0.17000000000000001;21;76;48;9;0.14999999999999999;0.34000000000000002;0.40999999999999998;0.10000000000000001;0;6.166606744413002;62;22;20;2;
2019_03_25 11:51;57;3;0;control;8;19;1;22;53;0;0;0.13;0.87;0.0;0.0;4;93;96;65;0.46999999999999997;0.059999999999999998;0.26000000000000001;0.20999999999999999;0;4.350038438976753;62;22;20;2;
2019_03_25 11:51;57;3;0;control;9;16;0;64;53;0;0;0.65000000000000002;0.34999999999999998;0.0;0.0;29;17;81;46;0.10000000000000001;0.01;0.44;0.45000000000000001;0;15.616131412870345;62;22;20;2;
2019_03_25 11:51;57;3;0;control;10;64;1;48;39;34;19;0.46000000000000002;0.5;0.02;0.02;13;92;0;0;0.68999999999999995;0.31;0.0;0.0;0;8.549868197768319;62;22;20;2;
2019_03_25 11:51;57;3;0;control;11;8;0;50;36;0;0;0.080000000000000002;0.92000000000000004;0.0;0.0;6;19;84;29;0.54000000000000004;0.070000000000000007;0.17000000000000001;0.22;0;2.3166560239183127;62;22;20;2;
2019_03_25 11:51;57;3;0;control;12;91;0;74;81;86;48;0.93000000000000005;0.02;0.01;0.039999999999999897;7;64;0;0;0.13;0.87;0.0;0.0;0;6.1500329224945744;62;22;20;2;
2019_03_25 11:51;57;3;0;control;13;90;0;27;44;50;72;0.68000000000000005;0.28999999999999998;0.02;0.0099999999999999707;6;96;0;0;0.46999999999999997;0.53000000000000003;0.0;0.0;0;8.016433344056168;62;22;20;2;
2019_03_25 11:51;57;3;0;control;14;135;1;48;60;41;51;0.14000000000000001;0.40000000000000002;0.089999999999999997;0.37;94;1;85;65;0.64000000000000001;0.29999999999999999;0.01;0.050000000000000003;0;3.166598084818361;62;22;20;2;
2019_03_25 11:51;57;3;0;control;15;81;0;67;38;52;65;0.27000000000000002;0.35999999999999999;0.01;0.35999999999999999;2;77;0;0;0.14000000000000001;0.85999999999999999;0.0;0.0;0;9.849687404684573;62;22;20;2;
2019_03_25 11:51;57;3;0;control;16;68;0;84;27;55;62;0.01;0.050000000000000003;0.40999999999999998;0.53000000000000003;9;82;0;0;0.37;0.63;0.0;0.0;0;2.916705608113716;62;22;20;2;
2019_03_25 11:51;57;3;0;control;17;114;1;57;39;79;97;0.77000000000000002;0.02;0.13;0.080000000000000002;92;36;6;1;0.54000000000000004;0.12;0.13;0.20999999999999999;0;4.499915809500635;62;22;20;2;
2019_03_25 11:51;57;3;0;control;18;69;1;54;34;64;49;0.34000000000000002;0.25;0.20999999999999999;0.20000000000000001;14;98;0;0;0.62;0.38;0.0;0.0;0;4.816636299287438;62;22;20;2;
2019_03_25 11:51;57;3;0;control;19;134;0;57;48;50;55;0.02;0.62;0.17999999999999999;0.17999999999999999;80;96;15;18;0.23999999999999999;0.35999999999999999;0.33000000000000002;0.070000000000000007;0;21.832794781407756;62;22;20;2;
2019_03_25 11:51;57;3;0;control;20;1;1;22;51;0;0;0.26000000000000001;0.73999999999999999;0.0;0.0;14;11;92;31;0.29999999999999999;0.40999999999999998;0.14999999999999999;0.14000000000000001;0;14.333156720374063;62;22;20;2;
2019_03_25 11:51;57;3;0;control;21;46;1;5;19;0;0;0.32000000000000001;0.68000000000000005;0.0;0.0;88;38;97;66;0.60999999999999999;0.20000000000000001;0.040000000000000001;0.14999999999999999;1;2.949887569601742;62;22;20;2;
2019_03_25 11:51;57;3;0;control;22;133;1;59;88;60;36;0.67000000000000004;0.070000000000000007;0.12;0.14000000000000001;7;91;66;61;0.25;0.68999999999999995;0.01;0.0500000000000001;1;10.34944092697424;62;22;20;2;
2019_03_25 11:51;57;3;0;control;23;67;1;44;42;8;89;0.88;0.070000000000000007;0.029999999999999999;0.02;10;63;0;0;0.39000000000000001;0.60999999999999999;0.0;0.0;1;8.316381161982918;62;22;20;2;
2019_03_25 11:51;57;3;0;control;24;76;1;39;62;9;28;0.01;0.51000000000000001;0.26000000000000001;0.22;77;7;0;0;0.57999999999999996;0.41999999999999998;0.0;0.0;1;5.483263089056891;62;22;20;2;
2019_03_25 11:51;57;3;0;control;25;58;0;37;58;76;34;0.20999999999999999;0.57999999999999996;0.19;0.020000000000000101;86;5;0;0;0.47999999999999998;0.52000000000000002;0.0;0.0;0;3.8503381571549653;62;22;20;2;
2019_03_25 11:51;57;3;0;control;26;49;0;21;30;0;0;0.53000000000000003;0.46999999999999997;0.0;0.0;93;99;89;25;0.44;0.02;0.11;0.42999999999999999;1;7.016684151563368;62;22;20;2;
2019_03_25 11:51;57;3;0;control;27;139;0;44;31;16;8;0.79000000000000004;0.070000000000000007;0.13;0.0099999999999999499;92;58;2;88;0.55000000000000004;0.070000000000000007;0.34000000000000002;0.039999999999999897;0;8.166426175836932;62;22;20;2;
2019_03_25 11:51;57;3;0;control;28;41;0;99;40;0;0;0.89000000000000001;0.11;0.0;0.0;1;67;52;46;0.51000000000000001;0.38;0.029999999999999999;0.080000000000000002;0;4.049829229594252;62;22;20;2;
2019_03_25 11:51;57;3;0;control;29;106;0;85;69;22;61;0.10000000000000001;0.58999999999999997;0.17999999999999999;0.13;20;79;91;84;0.55000000000000004;0.14999999999999999;0.26000000000000001;0.039999999999999897;0;5.933147291038495;62;22;20;2;
2019_03_25 11:51;57;3;0;control;30;143;0;88;44;56;73;0.95999999999999996;0.02;0.01;0.01;20;3;87;32;0.19;0.40000000000000002;0.28000000000000003;0.13;0;3.099880080656021;62;22;20;2;
2019_03_25 11:51;57;3;0;control;31;48;1;13;32;0;0;0.90000000000000002;0.10000000000000001;0.0;0.0;24;99;84;94;0.62;0.14999999999999999;0.20000000000000001;0.029999999999999999;1;4.149825412958307;62;22;20;2;
2019_03_25 11:51;57;3;0;control;32;129;1;12;29;81;36;0.17999999999999999;0.79000000000000004;0.01;0.02;5;19;95;92;0.47999999999999998;0.26000000000000001;0.13;0.13;0;4.766510719134203;62;22;20;2;
2019_03_25 11:51;57;3;0;control;33;127;0;89;26;62;79;0.02;0.28999999999999998;0.53000000000000003;0.16;96;6;60;13;0.53000000000000003;0.25;0.17000000000000001;0.050000000000000003;0;11.799589086217111;62;22;20;2;
2019_03_25 11:51;57;3;0;control;34;85;1;31;22;82;50;0.11;0.69999999999999996;0.01;0.17999999999999999;3;99;0;0;0.62;0.38;0.0;0.0;0;5.049817362742942;62;22;20;2;
2019_03_25 11:51;57;3;0;control;35;4;1;40;43;0;0;0.58999999999999997;0.40999999999999998;0.0;0.0;2;33;88;81;0.69999999999999996;0.14000000000000001;0.13;0.029999999999999999;0;2.449894785930155;62;22;20;2;
2019_03_25 11:51;57;3;0;control;36;7;0;49;29;0;0;0.95999999999999996;0.040000000000000001;0.0;0.0;23;99;64;25;0.68999999999999995;0.12;0.059999999999999998;0.13;0;13.049628455298716;62;22;20;2;
2019_03_25 11:51;57;3;0;control;37;28;0;47;30;0;0;0.97999999999999998;0.02;0.0;0.0;55;48;77;13;0.070000000000000007;0.26000000000000001;0.42999999999999999;0.23999999999999999;1;5.349761652686993;62;22;20;2;
2019_03_25 11:51;57;3;0;control;38;36;1;70;17;0;0;0.33000000000000002;0.67000000000000004;0.0;0.0;84;1;12;88;0.22;0.27000000000000002;0.14000000000000001;0.37;0;2.5165191381843215;62;22;20;2;
2019_03_25 11:51;57;3;0;control;39;59;1;56;47;83;90;0.31;0.12;0.54000000000000004;0.029999999999999898;10;98;0;0;0.46999999999999997;0.53000000000000003;0.0;0.0;0;6.916545245257112;62;22;20;2;
2019_03_25 11:51;57;3;0;control;40;34;0;32;48;0;0;0.28000000000000003;0.71999999999999997;0.0;0.0;97;83;7;62;0.040000000000000001;0.54000000000000004;0.35999999999999999;0.059999999999999901;0;7.249879647676607;62;22;20;2;
2019_03_25 11:51;57;3;0;control;41;120;1;64;40;48;51;0.19;0.02;0.070000000000000007;0.71999999999999997;97;9;79;94;0.23000000000000001;0.54000000000000004;0.01;0.22;0;10.632991322124326;62;22;20;2;
2019_03_25 11:51;57;3;0;control;42;136;1;29;67;14;75;0.46000000000000002;0.29999999999999999;0.20999999999999999;0.0300000000000001;70;86;1;85;0.31;0.39000000000000001;0.27000000000000002;0.029999999999999898;0;3.2664646949947382;62;22;20;2;
2019_03_25 11:51;57;3;0;control;43;6;1;9;51;0;0;0.14999999999999999;0.84999999999999998;0.0;0.0;6;40;50;73;0.42999999999999999;0.26000000000000001;0.059999999999999998;0.25;0;7.683195800802423;62;22;20;2;
2019_03_25 11:51;57;3;0;control;44;105;1;49;74;63;58;0.84999999999999998;0.080000000000000002;0.02;0.050000000000000003;97;5;86;8;0.25;0.52000000000000002;0.070000000000000007;0.16;0;4.266544876422813;62;22;20;2;
2019_03_25 11:51;57;3;0;control;45;43;1;60;83;0;0;0.23000000000000001;0.77000000000000002;0.0;0.0;72;5;70;12;0.29999999999999999;0.40999999999999998;0.12;0.17000000000000001;0;2.6331459119173815;62;22;20;2;
2019_03_25 11:51;57;3;0;control;46;89;0;26;41;13;56;0.059999999999999998;0.40999999999999998;0.050000000000000003;0.47999999999999998;5;97;0;0;0.37;0.63;0.0;0.0;0;11.91622740607636;62;22;20;2;
2019_03_25 11:51;57;3;0;control;47;83;1;17;12;7;41;0.65000000000000002;0.19;0.089999999999999997;0.070000000000000007;6;84;0;0;0.72999999999999998;0.27000000000000002;0.0;0.0;0;5.883134285610595;62;22;20;2;
2019_03_25 11:51;57;3;0;control;48;122;1;35;58;25;31;0.81999999999999995;0.070000000000000007;0.080000000000000002;0.029999999999999999;18;64;68;89;0.63;0.17000000000000001;0.11;0.089999999999999997;0;15.866173668483043;62;22;20;2;
2019_03_25 11:51;57;3;0;control;49;63;0;56;78;42;36;0.93000000000000005;0.040000000000000001;0.01;0.0199999999999999;2;72;0;0;0.32000000000000001;0.68000000000000005;0.0;0.0;0;2.649884266126719;62;22;20;2;
2019_03_25 11:51;57;3;0;control;50;73;0;65;68;70;47;0.25;0.23000000000000001;0.20999999999999999;0.31;27;95;0;0;0.45000000000000001;0.55000000000000004;0.0;0.0;1;3.8498474468146924;62;22;20;2;
2019_03_25 11:51;57;3;0;control;51;118;1;62;52;65;68;0.40999999999999998;0.44;0.10000000000000001;0.0500000000000001;79;20;14;37;0.56999999999999995;0.23999999999999999;0.14000000000000001;0.050000000000000003;0;6.033116854168384;62;22;20;2;
2019_03_25 11:51;57;3;0;control;52;124;1;37;65;15;41;0.17999999999999999;0.45000000000000001;0.02;0.34999999999999998;40;7;98;30;0.070000000000000007;0.45000000000000001;0.45000000000000001;0.029999999999999898;0;5.300085409257463;62;22;20;2;
2019_03_25 11:51;57;3;0;control;53;30;1;33;30;0;0;0.71999999999999997;0.28000000000000003;0.0;0.0;9;88;1;14;0.55000000000000004;0.39000000000000001;0.01;0.049999999999999899;0;8.916535944211773;62;22;20;2;
2019_03_25 11:51;57;3;0;control;54;98;0;27;10;31;79;0.23000000000000001;0.67000000000000004;0.070000000000000007;0.029999999999999999;25;99;0;0;0.38;0.62;0.0;0.0;1;7.149786605147256;62;22;20;2;
2019_03_25 11:51;57;3;0;control;55;61;0;43;18;39;70;0.75;0.089999999999999997;0.089999999999999997;0.070000000000000007;16;66;0;0;0.64000000000000001;0.35999999999999999;0.0;0.0;0;10.116286483752901;62;22;20;2;
2019_03_25 11:51;57;3;0;control;56;145;0;91;89;90;74;0.57999999999999996;0.29999999999999999;0.11;0.010000000000000101;2;75;84;39;0.32000000000000001;0.27000000000000002;0.39000000000000001;0.0199999999999999;0;3.9666749948446522;62;22;20;2;
2019_03_25 11:51;57;3;0;control;57;23;1;54;40;0;0;0.93000000000000005;0.070000000000000007;0.0;0.0;36;23;71;86;0.02;0.41999999999999998;0.19;0.37;0;10.88318624317617;62;22;20;2;
2019_03_25 11:51;57;3;0;control;58;29;1;44;51;0;0;0.78000000000000003;0.22;0.0;0.0;74;1;68;82;0.69999999999999996;0.28000000000000003;0.01;0.01;0;1.8499077432488775;62;22;20;2;
2019_03_25 11:51;57;3;0;control;59;88;1;77;13;12;7;0.12;0.19;0.66000000000000003;0.029999999999999898;94;2;0;0;0.40999999999999998;0.58999999999999997;0.0;0.0;0;3.2833339052940573;62;22;20;2;
2019_03_25 11:51;57;3;0;control;60;148;0;37;63;55;10;0.72999999999999998;0.070000000000000007;0.029999999999999999;0.17000000000000001;80;14;23;70;0.46999999999999997;0.10000000000000001;0.23000000000000001;0.20000000000000001;1;9.766316038626883;62;22;20;2;
2019_03_25 11:51;57;3;0;control;61;62;0;12;45;16;50;0.20999999999999999;0.76000000000000001;0.02;0.01;92;15;0;0;0.20999999999999999;0.79000000000000004;0.0;0.0;0;14.716241133136919;62;22;20;2;
2019_03_25 11:51;57;3;0;control;62;13;0;52;56;0;0;0.46999999999999997;0.53000000000000003;0.0;0.0;94;71;27;2;0.089999999999999997;0.31;0.57999999999999996;0.020000000000000101;0;7.549803090448677;62;22;20;2;
2019_03_25 11:51;57;3;0;control;63;95;1;93;88;68;85;0.83999999999999997;0.14000000000000001;0.01;0.01;2;82;0;0;0.41999999999999998;0.57999999999999996;0.0;0.0;0;2.9165183042973695;62;22;20;2;
2019_03_25 11:51;57;3;0;control;64;117;0;65;85;92;41;0.23000000000000001;0.17999999999999999;0.54000000000000004;0.050000000000000003;99;93;10;13;0.64000000000000001;0.16;0.01;0.19;0;12.632980096724168;62;22;20;2;
2019_03_25 11:51;57;3;0;control;65;3;0;53;40;0;0;0.31;0.68999999999999995;0.0;0.0;96;24;7;88;0.11;0.27000000000000002;0.58999999999999997;0.029999999999999999;0;3.1332025200058524;62;22;20;2;
2019_03_25 11:51;57;3;0;control;66;37;1;14;98;0;0;0.93000000000000005;0.070000000000000007;0.0;0.0;41;2;87;66;0.17999999999999999;0.48999999999999999;0.32000000000000001;0.010000000000000101;0;7.383089544373888;62;22;20;2;
2019_03_25 11:51;57;3;0;control;67;126;0;16;55;51;42;0.68999999999999995;0.23999999999999999;0.01;0.060000000000000102;66;4;1;5;0.46999999999999997;0.38;0.089999999999999997;0.059999999999999998;0;7.566420851789644;62;22;20;2;
2019_03_25 11:51;57;3;0;control;68;108;0;48;72;39;70;0.14000000000000001;0.66000000000000003;0.02;0.17999999999999999;81;44;98;8;0.59999999999999998;0.029999999999999999;0.050000000000000003;0.32000000000000001;0;6.1665842936126865;62;22;20;2;
2019_03_25 11:51;57;3;0;control;69;140;1;36;32;26;27;0.39000000000000001;0.14999999999999999;0.19;0.27000000000000002;44;3;99;25;0.29999999999999999;0.34000000000000002;0.34000000000000002;0.0199999999999999;0;7.366402185553397;62;22;20;2;
2019_03_25 11:51;57;3;0;control;70;35;1;33;37;0;0;0.88;0.12;0.0;0.0;63;4;79;98;0.16;0.46000000000000002;0.17000000000000001;0.20999999999999999;0;11.316273398143494;62;22;20;2;
2019_03_25 11:51;57;3;0;control;71;144;0;99;93;90;71;0.65000000000000002;0.32000000000000001;0.01;0.02;97;14;48;73;0.23000000000000001;0.46000000000000002;0.13;0.17999999999999999;0;3.26652948158835;62;22;20;2;
2019_03_25 11:51;57;3;0;control;72;125;1;37;41;10;35;0.91000000000000003;0.040000000000000001;0.029999999999999999;0.02;7;13;91;93;0.26000000000000001;0.39000000000000001;0.16;0.19;0;9.883172772696525;62;22;20;2;
2019_03_25 11:51;57;3;0;control;73;87;0;10;30;63;4;0.56999999999999995;0.12;0.16;0.14999999999999999;86;2;0;0;0.42999999999999999;0.56999999999999995;0.0;0.0;0;18.94960853823204;62;22;20;2;
2019_03_25 11:51;57;3;0;control;74;26;1;76;41;0;0;0.57999999999999996;0.41999999999999998;0.0;0.0;61;79;84;2;0.13;0.029999999999999999;0.67000000000000004;0.17000000000000001;0;3.4500856177292007;62;22;20;2;
2019_03_25 11:51;57;3;0;control;75;115;1;50;28;61;79;0.83999999999999997;0.040000000000000001;0.059999999999999998;0.059999999999999998;1;26;97;55;0.45000000000000001;0.080000000000000002;0.40999999999999998;0.060000000000000102;0;3.0331800371336612;62;22;20;2;
2019_03_25 11:51;57;4;0;timed;1;141;1;93;28;60;91;0.81999999999999995;0.10000000000000001;0.01;0.070000000000000007;14;85;7;89;0.45000000000000001;0.070000000000000007;0.23999999999999999;0.23999999999999999;0;2.3499887264911195;62;22;20;2;
2019_03_25 11:51;57;4;0;timed;2;89;1;26;41;13;56;0.059999999999999998;0.40999999999999998;0.050000000000000003;0.47999999999999998;5;97;0;0;0.37;0.63;0.0;0.0;0;3.2832934938542166;62;22;20;2;
2019_03_25 11:51;57;4;0;timed;3;74;1;66;47;52;44;0.41999999999999998;0.26000000000000001;0.17999999999999999;0.14000000000000001;17;99;0;0;0.47999999999999998;0.52000000000000002;0.0;0.0;1;3.4165319351400285;62;22;20;2;
2019_03_25 11:51;57;4;0;timed;4;75;1;67;80;36;81;0.81999999999999995;0.080000000000000002;0.059999999999999998;0.040000000000000001;3;97;0;0;0.32000000000000001;0.68000000000000005;0.0;0.0;0;1.7832275847204073;62;22;20;2;
2019_03_25 11:51;57;4;0;timed;5;2;0;59;32;0;0;0.080000000000000002;0.92000000000000004;0.0;0.0;33;38;85;1;0.28999999999999998;0.050000000000000003;0.070000000000000007;0.58999999999999997;0;2.1831956404398625;62;22;20;2;
2019_03_25 11:51;57;4;0;timed;6;3;1;53;40;0;0;0.31;0.68999999999999995;0.0;0.0;96;24;7;88;0.11;0.27000000000000002;0.58999999999999997;0.029999999999999999;0;2.9165407550972304;62;22;20;2;
2019_03_25 11:51;57;4;0;timed;7;121;0;42;51;47;70;0.41999999999999998;0.17000000000000001;0.23999999999999999;0.17000000000000001;21;76;48;9;0.14999999999999999;0.34000000000000002;0.40999999999999998;0.10000000000000001;0;2.9000467938817565;62;22;20;2;
2019_03_25 11:51;57;4;0;timed;8;122;1;35;58;25;31;0.81999999999999995;0.070000000000000007;0.080000000000000002;0.029999999999999999;18;64;68;89;0.63;0.17000000000000001;0.11;0.089999999999999997;0;3.899803683791106;62;22;20;2;
2019_03_25 11:51;57;4;0;timed;9;45;1;97;87;0;0;0.71999999999999997;0.28000000000000003;0.0;0.0;96;11;14;4;0.25;0.029999999999999999;0.14000000000000001;0.57999999999999996;0;2.34995088085725;62;22;20;2;
2019_03_25 11:51;57;4;0;timed;10;44;1;79;74;0;0;0.71999999999999997;0.28000000000000003;0.0;0.0;3;67;15;36;0.41999999999999998;0.53000000000000003;0.02;0.029999999999999999;0;2.349860115480624;62;22;20;2;
2019_03_25 11:51;57;4;0;timed;11;105;1;49;74;63;58;0.84999999999999998;0.080000000000000002;0.02;0.050000000000000003;97;5;86;8;0.25;0.52000000000000002;0.070000000000000007;0.16;0;3.4000418226328293;62;22;20;2;
2019_03_25 11:51;57;4;0;timed;12;60;0;64;59;57;96;0.83999999999999997;0.13;0.02;0.01;83;6;0;0;0.54000000000000004;0.46000000000000002;0.0;0.0;0;2.3498626812861403;62;22;20;2;
2019_03_25 11:51;57;4;0;timed;13;20;1;44;40;0;0;0.91000000000000003;0.089999999999999997;0.0;0.0;29;5;80;99;0.25;0.40000000000000002;0.26000000000000001;0.089999999999999997;0;3.7166551900313607;62;22;20;2;
2019_03_25 11:51;57;4;0;timed;14;92;1;90;86;65;94;0.16;0.34000000000000002;0.28000000000000003;0.22;79;22;0;0;0.35999999999999999;0.64000000000000001;0.0;0.0;0;2.4832621268797084;62;22;20;2;
2019_03_25 11:51;57;4;0;timed;15;6;1;9;51;0;0;0.14999999999999999;0.84999999999999998;0.0;0.0;6;40;50;73;0.42999999999999999;0.26000000000000001;0.059999999999999998;0.25;1;4.316508810816231;62;22;20;2;
2019_03_25 11:51;57;4;0;timed;16;129;0;12;29;81;36;0.17999999999999999;0.79000000000000004;0.01;0.02;5;19;95;92;0.47999999999999998;0.26000000000000001;0.13;0.13;0;3.399842331240052;62;22;20;2;
2019_03_25 11:51;57;4;0;timed;17;100;0;27;14;59;52;0.02;0.95999999999999996;0.01;0.01;17;98;0;0;0.48999999999999999;0.51000000000000001;0.0;0.0;1;3.7165208059582255;62;22;20;2;
2019_03_25 11:51;57;4;0;timed;18;90;0;27;44;50;72;0.68000000000000005;0.28999999999999998;0.02;0.0099999999999999707;6;96;0;0;0.46999999999999997;0.53000000000000003;0.0;0.0;0;2.883215108490276;62;22;20;2;
2019_03_25 11:51;57;4;0;timed;19;88;1;77;13;12;7;0.12;0.19;0.66000000000000003;0.029999999999999898;94;2;0;0;0.40999999999999998;0.58999999999999997;0.0;0.0;0;2.9832786442539145;62;22;20;2;
2019_03_25 11:51;57;4;0;timed;20;32;1;19;81;0;0;0.93000000000000005;0.070000000000000007;0.0;0.0;1;65;41;68;0.45000000000000001;0.050000000000000003;0.059999999999999998;0.44;0;3.116546271579864;62;22;20;2;
2019_03_25 11:51;57;4;0;timed;21;108;0;48;72;39;70;0.14000000000000001;0.66000000000000003;0.02;0.17999999999999999;81;44;98;8;0.59999999999999998;0.029999999999999999;0.050000000000000003;0.32000000000000001;0;3.233306467209786;62;22;20;2;
2019_03_25 11:51;57;4;0;timed;22;40;0;45;49;0;0;0.68999999999999995;0.31;0.0;0.0;2;92;65;73;0.23999999999999999;0.59999999999999998;0.11;0.050000000000000003;0;2.3498896222463372;62;22;20;2;
2019_03_25 11:51;57;4;0;timed;23;87;0;10;30;63;4;0.56999999999999995;0.12;0.16;0.14999999999999999;86;2;0;0;0.42999999999999999;0.56999999999999995;0.0;0.0;0;3.6833754072013107;62;22;20;2;
2019_03_25 11:51;57;4;0;timed;24;19;0;22;53;0;0;0.13;0.87;0.0;0.0;4;93;96;65;0.46999999999999997;0.059999999999999998;0.26000000000000001;0.20999999999999999;1;4.14999283178031;62;22;20;2;
2019_03_25 11:51;57;4;0;timed;25;139;1;44;31;16;8;0.79000000000000004;0.070000000000000007;0.13;0.0099999999999999499;92;58;2;88;0.55000000000000004;0.070000000000000007;0.34000000000000002;0.039999999999999897;0;3.5332799431930653;62;22;20;2;
2019_03_25 11:51;57;4;0;timed;26;72;0;63;82;51;61;0.01;0.96999999999999997;0.01;0.01;92;12;0;0;0.89000000000000001;0.11;0.0;0.0;0;3.0498038922632986;62;22;20;2;
2019_03_25 11:51;57;4;0;timed;27;80;1;47;39;45;10;0.13;0.76000000000000001;0.059999999999999998;0.050000000000000003;2;87;0;0;0.48999999999999999;0.51000000000000001;0.0;0.0;0;2.349966596417289;62;22;20;2;
2019_03_25 11:51;57;4;0;timed;28;62;1;12;45;16;50;0.20999999999999999;0.76000000000000001;0.02;0.01;92;15;0;0;0.20999999999999999;0.79000000000000004;0.0;0.0;1;2.583184864055511;62;22;20;2;
2019_03_25 11:51;57;4;0;timed;29;67;1;44;42;8;89;0.88;0.070000000000000007;0.029999999999999999;0.02;10;63;0;0;0.39000000000000001;0.60999999999999999;0.0;0.0;1;3.4499900414666627;62;22;20;2;
2019_03_25 11:51;57;4;0;timed;30;93;1;87;81;73;98;0.80000000000000004;0.040000000000000001;0.14999999999999999;0.0099999999999999499;5;71;0;0;0.51000000000000001;0.48999999999999999;0.0;0.0;0;2.916562243719909;62;22;20;2;
2019_03_25 11:51;57;4;0;timed;31;127;1;89;26;62;79;0.02;0.28999999999999998;0.53000000000000003;0.16;96;6;60;13;0.53000000000000003;0.25;0.17000000000000001;0.050000000000000003;0;2.8998460195853113;62;22;20;2;
2019_03_25 11:51;57;4;0;timed;32;31;1;10;59;0;0;0.23999999999999999;0.76000000000000001;0.0;0.0;1;79;53;73;0.23000000000000001;0.58999999999999997;0.050000000000000003;0.13;0;4.016530203221464;62;22;20;2;
2019_03_25 11:51;57;4;0;timed;33;128;1;70;49;27;54;0.27000000000000002;0.53000000000000003;0.02;0.17999999999999999;72;97;6;20;0.29999999999999999;0.39000000000000001;0.22;0.0899999999999999;0;2.5667265033939657;62;22;20;2;
2019_03_25 11:51;57;4;0;timed;34;78;1;74;36;34;3;0.14999999999999999;0.64000000000000001;0.13;0.080000000000000002;1;83;0;0;0.41999999999999998;0.57999999999999996;0.0;0.0;0;1.8167209708749397;62;22;20;2;
2019_03_25 11:51;57;4;0;timed;35;12;0;53;68;0;0;0.31;0.68999999999999995;0.0;0.0;69;54;97;29;0.25;0.20999999999999999;0.20000000000000001;0.34000000000000002;0;2.916565130251456;62;22;20;2;
2019_03_25 11:51;57;4;0;timed;36;114;1;57;39;79;97;0.77000000000000002;0.02;0.13;0.080000000000000002;92;36;6;1;0.54000000000000004;0.12;0.13;0.20999999999999999;0;2.966492181188187;62;22;20;2;
2019_03_25 11:51;57;4;0;timed;37;150;0;25;21;78;38;0.84999999999999998;0.059999999999999998;0.050000000000000003;0.040000000000000001;31;43;64;95;0.059999999999999998;0.45000000000000001;0.13;0.35999999999999999;1;3.3332683329222164;62;22;20;2;
2019_03_25 11:51;57;4;0;timed;38;112;0;70;44;98;64;0.02;0.75;0.12;0.11;33;2;63;85;0.23999999999999999;0.31;0.080000000000000002;0.37;0;2.2000218734938244;62;22;20;2;
2019_03_25 11:51;57;4;0;timed;39;138;0;8;20;43;51;0.38;0.5;0.02;0.10000000000000001;72;82;70;1;0.39000000000000001;0.050000000000000003;0.070000000000000007;0.48999999999999999;0;3.500026459871151;62;22;20;2;
2019_03_25 11:51;57;4;0;timed;40;98;1;27;10;31;79;0.23000000000000001;0.67000000000000004;0.070000000000000007;0.029999999999999999;25;99;0;0;0.38;0.62;0.0;0.0;1;4.016483697992953;62;22;20;2;
2019_03_25 11:51;57;4;0;timed;41;36;1;70;17;0;0;0.33000000000000002;0.67000000000000004;0.0;0.0;84;1;12;88;0.22;0.27000000000000002;0.14000000000000001;0.37;0;3.483310556462129;62;22;20;2;
2019_03_25 11:51;57;4;0;timed;42;58;1;37;58;76;34;0.20999999999999999;0.57999999999999996;0.19;0.020000000000000101;86;5;0;0;0.47999999999999998;0.52000000000000002;0.0;0.0;0;3.816632450578709;62;22;20;2;
2019_03_25 11:51;57;4;0;timed;43;71;0;68;55;36;51;0.20000000000000001;0.75;0.02;0.029999999999999999;38;81;0;0;0.52000000000000002;0.47999999999999998;0.0;0.0;1;3.2831931067062214;62;22;20;2;
2019_03_25 11:51;57;4;0;timed;44;47;0;2;40;0;0;0.45000000000000001;0.55000000000000004;0.0;0.0;93;89;11;56;0.58999999999999997;0.070000000000000007;0.28000000000000003;0.059999999999999998;1;2.1165523653680793;62;22;20;2;
2019_03_25 11:51;57;4;0;timed;45;50;0;15;20;0;0;0.82999999999999996;0.17000000000000001;0.0;0.0;97;18;88;87;0.56999999999999995;0.39000000000000001;0.01;0.029999999999999999;1;2.3833509358296396;62;22;20;2;
2019_03_25 11:51;57;4;0;timed;46;63;0;56;78;42;36;0.93000000000000005;0.040000000000000001;0.01;0.0199999999999999;2;72;0;0;0.32000000000000001;0.68000000000000005;0.0;0.0;0;3.0832494902870167;62;22;20;2;
2019_03_25 11:51;57;4;0;timed;47;11;1;17;36;0;0;0.14000000000000001;0.85999999999999999;0.0;0.0;19;41;34;95;0.88;0.02;0.050000000000000003;0.050000000000000003;1;3.516511761492893;62;22;20;2;
2019_03_25 11:51;57;4;0;timed;48;76;0;39;62;9;28;0.01;0.51000000000000001;0.26000000000000001;0.22;77;7;0;0;0.57999999999999996;0.41999999999999998;0.0;0.0;1;3.8501203843961775;62;22;20;2;
2019_03_25 11:51;57;4;0;timed;49;33;1;27;70;0;0;0.88;0.12;0.0;0.0;93;3;77;16;0.080000000000000002;0.40000000000000002;0.5;0.02;0;3.4832072827830416;62;22;20;2;
2019_03_25 11:51;57;4;0;timed;50;130;1;37;79;23;95;0.94999999999999996;0.029999999999999999;0.01;0.01;94;4;58;49;0.46000000000000002;0.5;0.029999999999999999;0.01;1;2.7332418409782804;62;22;20;2;
2019_03_25 11:51;57;4;0;timed;51;24;1;35;27;0;0;0.070000000000000007;0.93000000000000005;0.0;0.0;62;3;81;95;0.35999999999999999;0.55000000000000004;0.01;0.080000000000000002;1;3.2831690522780264;62;22;20;2;
2019_03_25 11:51;57;4;0;timed;52;99;1;8;24;15;73;0.56000000000000005;0.35999999999999999;0.070000000000000007;0.0099999999999999499;88;12;0;0;0.52000000000000002;0.47999999999999998;0.0;0.0;1;2.850125836733696;62;22;20;2;
2019_03_25 11:51;57;4;0;timed;53;41;1;99;40;0;0;0.89000000000000001;0.11;0.0;0.0;1;67;52;46;0.51000000000000001;0.38;0.029999999999999999;0.080000000000000002;0;2.1165972669678013;62;22;20;2;
2019_03_25 11:51;57;4;0;timed;54;46;0;5;19;0;0;0.32000000000000001;0.68000000000000005;0.0;0.0;88;38;97;66;0.60999999999999999;0.20000000000000001;0.040000000000000001;0.14999999999999999;1;1.8498442395575694;62;22;20;2;
2019_03_25 11:51;57;4;0;timed;55;10;1;45;62;0;0;0.059999999999999998;0.93999999999999995;0.0;0.0;17;99;28;67;0.58999999999999997;0.34000000000000002;0.01;0.059999999999999998;0;2.516570454298744;62;22;20;2;
2019_03_25 11:51;57;4;0;timed;56;145;1;91;89;90;74;0.57999999999999996;0.29999999999999999;0.11;0.010000000000000101;2;75;84;39;0.32000000000000001;0.27000000000000002;0.39000000000000001;0.0199999999999999;0;2.2998865593153823;62;22;20;2;
2019_03_25 11:51;57;4;0;timed;57;65;1;75;64;59;52;0.59999999999999998;0.22;0.14000000000000001;0.040000000000000001;1;99;0;0;0.35999999999999999;0.64000000000000001;0.0;0.0;0;2.9831689560596715;62;22;20;2;
2019_03_25 11:51;57;4;0;timed;58;117;1;65;85;92;41;0.23000000000000001;0.17999999999999999;0.54000000000000004;0.050000000000000003;99;93;10;13;0.64000000000000001;0.16;0.01;0.19;1;4.233206400786912;62;22;20;2;
2019_03_25 11:51;57;4;0;timed;59;124;1;37;65;15;41;0.17999999999999999;0.45000000000000001;0.02;0.34999999999999998;40;7;98;30;0.070000000000000007;0.45000000000000001;0.45000000000000001;0.029999999999999898;0;3.2997781540252618;62;22;20;2;
2019_03_25 11:51;57;4;0;timed;60;15;0;77;81;0;0;0.28000000000000003;0.71999999999999997;0.0;0.0;98;14;87;18;0.55000000000000004;0.23000000000000001;0.16;0.059999999999999901;0;2.1832389384107955;62;22;20;2;
2019_03_25 11:51;57;4;0;timed;61;43;1;60;83;0;0;0.23000000000000001;0.77000000000000002;0.0;0.0;72;5;70;12;0.29999999999999999;0.40999999999999998;0.12;0.17000000000000001;0;2.6500532885766006;62;22;20;2;
2019_03_25 11:51;57;4;0;timed;62;85;0;31;22;82;50;0.11;0.69999999999999996;0.01;0.17999999999999999;3;99;0;0;0.62;0.38;0.0;0.0;0;2.4498338480443635;62;22;20;2;
2019_03_25 11:51;57;4;0;timed;63;13;0;52;56;0;0;0.46999999999999997;0.53000000000000003;0.0;0.0;94;71;27;2;0.089999999999999997;0.31;0.57999999999999996;0.020000000000000101;0;3.716589441260112;62;22;20;2;
2019_03_25 11:51;57;4;0;timed;64;7;0;49;29;0;0;0.95999999999999996;0.040000000000000001;0.0;0.0;23;99;64;25;0.68999999999999995;0.12;0.059999999999999998;0.13;0;3.0500078738159573;62;22;20;2;
2019_03_25 11:51;57;4;0;timed;65;4;0;40;43;0;0;0.58999999999999997;0.40999999999999998;0.0;0.0;2;33;88;81;0.69999999999999996;0.14000000000000001;0.13;0.029999999999999999;0;3.083356291948803;62;22;20;2;
2019_03_25 11:51;57;4;0;timed;66;79;1;52;46;29;22;0.17999999999999999;0.51000000000000001;0.23999999999999999;0.070000000000000104;93;14;0;0;0.45000000000000001;0.55000000000000004;0.0;0.0;1;3.4165264828034196;62;22;20;2;
2019_03_25 11:51;57;4;0;timed;67;144;0;99;93;90;71;0.65000000000000002;0.32000000000000001;0.01;0.02;97;14;48;73;0.23000000000000001;0.46000000000000002;0.13;0.17999999999999999;0;3.5331728208047934;62;22;20;2;
2019_03_25 11:51;57;4;0;timed;68;1;1;22;51;0;0;0.26000000000000001;0.73999999999999999;0.0;0.0;14;11;92;31;0.29999999999999999;0.40999999999999998;0.14999999999999999;0.14000000000000001;0;3.716506052574914;62;22;20;2;
2019_03_25 11:51;57;4;0;timed;69;28;0;47;30;0;0;0.97999999999999998;0.02;0.0;0.0;55;48;77;13;0.070000000000000007;0.26000000000000001;0.42999999999999999;0.23999999999999999;0;3.416555989569133;62;22;20;2;
2019_03_25 11:51;57;4;0;timed;70;18;0;68;50;0;0;0.029999999999999999;0.96999999999999997;0.0;0.0;34;64;15;89;0.65000000000000002;0.029999999999999999;0.050000000000000003;0.27000000000000002;0;2.64997278642295;62;22;20;2;
2019_03_25 11:51;57;4;0;timed;71;84;0;43;10;5;45;0.78000000000000003;0.13;0.059999999999999998;0.029999999999999999;87;1;0;0;0.57999999999999996;0.41999999999999998;0.0;0.0;0;2.316505924285593;62;22;20;2;
2019_03_25 11:51;57;4;0;timed;72;148;0;37;63;55;10;0.72999999999999998;0.070000000000000007;0.029999999999999999;0.17000000000000001;80;14;23;70;0.46999999999999997;0.10000000000000001;0.23000000000000001;0.20000000000000001;1;3.833396142118545;62;22;20;2;
2019_03_25 11:51;57;4;0;timed;73;9;0;61;69;0;0;0.93999999999999995;0.060000000000000102;0.0;0.0;18;93;72;16;0.40999999999999998;0.34999999999999998;0.089999999999999997;0.14999999999999999;0;3.5164896314181533;62;22;20;2;
2019_03_25 11:51;57;4;0;timed;74;42;1;70;48;0;0;0.79000000000000004;0.20999999999999999;0.0;0.0;51;8;12;67;0.19;0.26000000000000001;0.28999999999999998;0.26000000000000001;0;2.7832099448060035;62;22;20;2;
2019_03_25 11:51;57;4;0;timed;75;52;1;71;51;10;54;0.22;0.12;0.19;0.46999999999999997;91;1;0;0;0.29999999999999999;0.69999999999999996;0.0;0.0;0;1.6165631096791913;62;22;20;2;
